SubID,Vers,Block,Trial,RewLvl,EffLvl,Congruency,TargetResp,DistractorResp,RollingEffLvl,Resp,RT,Acc,Fast,AccRT,IsRewarded,IsMiss,runavgRRgen,runavgRRcond,ZRT,AccZRT,RtThreshold,isDistError,isRandError
1,104,1,1,1,1,1,4,4,0.2,NaN,NaN,0,0,NaN,0,1,0,0,NaN,NaN,750,0,1
1,104,1,2,2,1,1,3,3,0.2,3,505,1,1,505,1,0,0,NaN,-1.03336775949902,-1.03336775949902,750,1,0
1,104,1,3,1,0,0,4,1,0.4,1,831,0,0,NaN,0,0,0.4,0,1.31533321743365,NaN,750,1,0
1,104,1,4,2,1,2,2,NaN,0.4,2,718,1,1,718,1,0,0.4,NaN,0.501212940153311,0.501212940153311,750,0,0
1,104,1,5,1,0,1,1,1,0.6,1,762,1,0,762,1,0,0.8,0,0.818215525996984,0.818215525996984,750,1,0
1,104,1,6,1,0,0,2,4,0.6,4,909,0,0,NaN,1,0,1,0.2,1.8772923468838,NaN,750,1,0
1,104,1,7,1,0,0,4,2,0.6,2,739,0,1,NaN,0,0,1.2,0.4,0.652509628851427,NaN,750,1,0
1,104,1,8,1,0,2,3,NaN,0.6,NaN,NaN,0,0,NaN,1,1,0.8,0.4,NaN,NaN,750,0,1
1,104,1,9,2,1,1,1,1,0.6,1,859,1,0,859,0,0,1,NaN,1.51706213569781,1.51706213569781,750,1,0
1,104,1,10,1,0,0,2,3,0.6,4,786,0,0,NaN,1,0,0.6,0.6,0.99112602736626,NaN,750,0,1
1,104,1,11,2,1,0,4,2,0.6,2,812,0,0,NaN,0,0,0.6,NaN,1.17844573718298,NaN,750,1,0
1,104,1,12,1,1,0,3,1,0.4,4,964,0,0,NaN,0,0,0.4,0,2.27354557918839,NaN,750,0,1
1,104,1,13,2,1,1,2,2,0.4,2,864,1,0,864,0,0,0.4,NaN,1.55308515681641,1.55308515681641,750,1,0
1,104,1,14,1,1,2,1,NaN,0.2,1,790,1,0,790,0,0,0.2,0,1.01994444426114,1.01994444426114,750,0,0
1,104,1,15,2,0,1,3,3,0,2,701,0,1,NaN,0,0,0.2,NaN,0.378734668350073,NaN,750,0,1
1,104,1,16,1,0,2,2,NaN,0,2,757,1,0,757,0,0,0,0.8,0.782192504878385,0.782192504878385,750,0,0
1,104,1,17,2,1,1,4,4,0,4,965,1,0,965,0,0,0,NaN,2.28075018341211,2.28075018341211,750,1,0
1,104,1,18,2,0,1,1,1,0,1,802,1,0,802,0,0,0,NaN,1.10639969494578,1.10639969494578,750,1,0
1,104,1,19,1,0,0,2,3,0,NaN,NaN,0,0,NaN,0,1,0,0.6,NaN,NaN,750,0,1
1,104,1,20,2,0,0,3,4,0,4,877,0,0,NaN,0,0,0,NaN,1.64674501172477,NaN,750,1,0
1,104,1,21,1,0,2,2,NaN,0,2,917,1,0,917,0,0,0,0.4,1.93492918067356,1.93492918067356,750,0,0
1,104,1,22,2,1,1,3,3,0,NaN,NaN,0,0,NaN,0,1,0,NaN,NaN,NaN,750,0,1
1,104,1,23,1,0,2,4,NaN,0,4,929,1,0,929,0,0,0,0.4,2.0213844313582,2.0213844313582,750,0,0
1,104,1,24,2,1,1,1,1,0,1,870,1,0,870,0,0,0,NaN,1.59631278215873,1.59631278215873,750,1,0
1,104,1,25,1,0,2,3,NaN,0,3,650,1,1,650,0,0,0,0.2,0.0112998529403608,0.0112998529403608,750,0,0
1,104,1,26,2,1,0,4,1,0,1,926,0,0,NaN,0,0,0,NaN,1.99977061868704,NaN,750,1,0
1,104,1,27,2,0,0,3,2,0,3,767,1,0,767,0,0,0,NaN,0.854238547115583,0.854238547115583,750,0,0
1,104,1,28,1,1,1,1,1,0,1,780,1,0,780,0,0,0,0,0.947898402023941,0.947898402023941,750,1,0
1,104,1,29,1,0,0,4,3,0,3,830,0,0,NaN,0,0,0,0,1.30812861320993,NaN,750,1,0
1,104,1,30,1,1,0,1,2,0,1,939,1,0,939,0,0,0,0,2.0934304735954,2.0934304735954,750,0,0
1,104,1,31,1,1,2,3,NaN,0,2,838,0,0,NaN,0,0,0,0,1.36576544699969,NaN,750,0,1
1,104,1,32,2,0,1,4,4,0,4,801,1,0,801,0,0,0,NaN,1.09919509072206,1.09919509072206,750,1,0
1,104,1,33,2,1,1,3,3,0,NaN,NaN,0,0,NaN,0,1,0,NaN,NaN,NaN,750,0,1
1,104,1,34,2,1,2,4,NaN,0,4,781,1,0,781,0,0,0,NaN,0.955103006247661,0.955103006247661,750,0,0
1,104,1,35,1,0,0,3,1,0,NaN,NaN,0,0,NaN,0,1,0,0,NaN,NaN,750,0,1
1,104,1,36,1,0,0,4,3,0,3,785,0,0,NaN,0,0,0,0,0.98392142314254,NaN,750,1,0
1,104,1,37,2,0,1,1,1,0,1,956,1,0,956,0,0,0,NaN,2.21590874539863,2.21590874539863,750,1,0
1,104,1,38,2,1,2,2,NaN,0,2,831,1,0,831,0,0,0,NaN,1.31533321743365,1.31533321743365,750,0,0
1,104,1,39,2,1,0,1,4,0,4,740,0,1,NaN,0,0,0,NaN,0.659714233075147,NaN,750,1,0
1,104,1,40,1,0,0,2,1,0,1,787,0,0,NaN,0,0,0,0,0.99833063158998,NaN,750,1,0
1,104,1,41,2,1,1,4,4,0,3,596,0,1,NaN,0,0,0,NaN,-0.377748775140511,NaN,750,0,1
1,104,1,42,1,1,1,3,3,0,3,867,1,0,867,0,0,0,0,1.57469896948757,1.57469896948757,750,1,0
1,104,1,43,1,1,0,1,2,0,4,581,0,1,NaN,0,0,0,0,-0.485817838496309,NaN,750,0,1
1,104,1,44,1,1,2,3,NaN,0,2,665,0,1,NaN,0,0,0,0,0.119368916296159,NaN,750,0,1
1,104,1,45,2,1,1,4,4,0,4,771,1,0,771,0,0,0,NaN,0.883056964010463,0.883056964010463,750,1,0
1,104,1,46,1,0,1,2,2,0,2,851,1,0,851,0,0,0,0,1.45942530190805,1.45942530190805,750,1,0
1,104,1,47,1,0,1,3,3,0,4,945,0,0,NaN,0,0,0,0,2.13665809893772,NaN,750,0,1
1,104,1,48,1,0,2,4,NaN,0,NaN,NaN,0,0,NaN,0,1,0,0,NaN,NaN,750,0,1
1,104,1,49,2,1,0,2,4,0,NaN,NaN,0,0,NaN,0,1,0,NaN,NaN,NaN,750,0,1
1,104,1,50,1,1,1,3,3,0,NaN,NaN,0,0,NaN,0,1,0,0,NaN,NaN,750,0,1
1,104,1,51,2,1,2,4,NaN,0,4,768,1,0,768,0,0,0,NaN,0.861443151339303,0.861443151339303,750,0,0
1,104,1,52,2,0,1,3,3,0,3,649,1,1,649,0,0,0,NaN,0.00409524871664096,0.00409524871664096,750,1,0
1,104,1,53,2,0,2,4,NaN,0,4,602,1,1,602,0,0,0,NaN,-0.334521149798192,-0.334521149798192,750,0,0
1,104,1,54,2,1,1,1,1,0,1,705,1,1,705,1,0,0,NaN,0.407553085244953,0.407553085244953,750,1,0
1,104,1,55,2,1,2,2,NaN,0.2,2,831,1,0,831,0,0,0.4,NaN,1.31533321743365,1.31533321743365,750,0,0
1,104,1,56,1,1,0,4,2,0.2,2,950,0,0,NaN,0,0,0.4,0,2.17268112005632,NaN,750,1,0
1,104,1,57,1,0,0,3,1,0.2,4,658,0,1,NaN,0,0,0.4,0,0.0689366867301196,NaN,750,0,1
1,104,1,58,2,0,0,4,2,0.2,2,896,0,0,NaN,0,0,0.4,NaN,1.78363249197544,NaN,750,1,0
1,104,1,59,1,1,2,1,NaN,0.2,2,743,0,1,NaN,0,0,0.4,0,0.681328045746307,NaN,750,0,1
1,104,1,60,1,1,1,4,4,0.2,3,760,0,0,NaN,0,0,0,0,0.803806317549544,NaN,750,0,1
1,104,1,61,2,0,1,2,2,0.2,2,747,1,1,747,0,0,0,NaN,0.710146462641186,0.710146462641186,750,1,0
1,104,1,62,2,0,0,1,3,0.2,1,721,1,1,721,0,0,0,NaN,0.52282675282447,0.52282675282447,750,0,0
1,104,1,63,1,0,2,2,NaN,0.2,2,747,1,1,747,0,0,0,0,0.710146462641186,0.710146462641186,750,0,0
1,104,1,64,2,0,1,1,1,0.2,1,736,1,1,736,0,0,0,NaN,0.630895816180268,0.630895816180268,750,1,0
1,104,1,65,1,0,2,2,NaN,0.2,2,694,1,1,694,0,0,0,0,0.328302438784034,0.328302438784034,750,0,0
1,104,1,66,1,0,0,3,2,0.2,2,872,0,0,NaN,1,0,0,0,1.61072199060617,NaN,750,1,0
1,104,1,67,2,0,2,1,NaN,0.2,1,773,1,0,773,0,0,0.2,NaN,0.897466172457902,0.897466172457902,750,0,0
1,104,1,68,2,1,1,2,2,0.2,2,781,1,0,781,0,0,0.2,NaN,0.955103006247661,0.955103006247661,750,1,0
1,104,1,69,2,1,2,4,NaN,0,3,946,0,0,NaN,0,0,0.2,NaN,2.14386270316144,NaN,750,0,1
1,104,1,70,2,0,0,2,4,0,3,730,0,1,NaN,0,0,0.2,NaN,0.587668190837949,NaN,750,0,1
1,104,1,71,2,1,2,1,NaN,0,1,873,1,0,873,0,0,0.2,NaN,1.61792659482989,1.61792659482989,750,0,0
1,104,1,72,2,1,0,4,3,0,2,636,0,1,NaN,0,0,0,NaN,-0.0895646061917171,NaN,750,0,1
1,104,1,73,1,0,2,1,NaN,0,2,823,0,0,NaN,0,0,0,0.2,1.25769638364389,NaN,750,0,1
1,104,1,74,2,1,1,4,4,0,4,724,1,1,724,1,0,0,NaN,0.54444056549563,0.54444056549563,750,1,0
1,104,1,75,1,0,0,1,2,0.2,2,850,0,0,NaN,0,0,0.4,0.2,1.45222069768433,NaN,750,1,0
1,104,1,76,2,1,0,2,3,0.2,NaN,NaN,0,0,NaN,0,1,0.4,NaN,NaN,NaN,750,0,1
1,104,1,77,1,1,2,4,NaN,0.2,NaN,NaN,0,0,NaN,0,1,0.4,0,NaN,NaN,750,0,1
1,104,1,78,2,0,1,2,2,0.2,2,564,1,1,564,1,0,0.4,NaN,-0.608296110299546,-0.608296110299546,750,1,0
1,104,1,79,2,1,1,3,3,0.2,3,802,1,0,802,0,0,0.8,NaN,1.10639969494578,1.10639969494578,750,1,0
1,104,1,80,2,1,2,1,NaN,0.2,2,686,0,1,NaN,0,0,0.4,NaN,0.270665604994275,NaN,750,0,1
1,104,1,81,1,1,1,3,3,0.2,3,723,1,1,723,1,0,0.4,0,0.53723596127191,0.53723596127191,750,1,0
1,104,1,82,1,1,1,1,1,0.2,1,714,1,1,714,1,0,0.6,0.2,0.472394523258431,0.472394523258431,750,1,0
1,104,1,83,2,0,1,2,2,0.4,2,736,1,1,736,1,0,0.8,NaN,0.630895816180268,0.630895816180268,750,1,0
1,104,1,84,1,0,1,1,1,0.4,1,739,1,1,739,1,0,0.8,0.2,0.652509628851427,0.652509628851427,750,1,0
1,104,1,85,1,1,0,4,2,0.4,4,923,1,0,923,0,0,1,0.4,1.97815680601588,1.97815680601588,750,0,0
1,104,1,86,2,0,1,1,1,0.4,1,626,1,1,626,1,0,1,NaN,-0.161610648428916,-0.161610648428916,750,1,0
1,104,1,87,1,1,0,2,3,0.4,NaN,NaN,0,0,NaN,0,1,1.2,0.4,NaN,NaN,750,0,1
1,104,1,88,1,0,1,1,1,0.4,1,656,1,1,656,0,0,1,0.4,0.0545274782826799,0.0545274782826799,750,1,0
1,104,1,89,1,1,2,3,NaN,0.4,NaN,NaN,0,0,NaN,0,1,0.6,0.4,NaN,NaN,750,0,1
1,104,1,90,2,1,1,1,1,0.4,1,639,1,1,639,1,0,0.4,NaN,-0.0679507935205575,-0.0679507935205575,750,1,0
1,104,1,91,2,0,0,4,2,0.4,4,681,1,1,681,1,0,0.8,NaN,0.234642583875676,0.234642583875676,750,0,0
1,104,1,92,1,0,0,3,1,0.4,1,758,0,0,NaN,1,0,0.8,0.4,0.789397109102104,NaN,750,1,0
1,104,1,93,1,0,2,4,NaN,0.4,4,895,1,0,895,0,0,1,0.4,1.77642788775172,1.77642788775172,750,0,0
1,104,1,94,2,0,1,3,3,0.4,4,862,0,0,NaN,0,0,1,NaN,1.53867594836897,NaN,750,0,1
1,104,1,95,1,1,1,2,2,0.4,NaN,NaN,0,0,NaN,0,1,1,0.4,NaN,NaN,750,0,1
1,104,1,96,1,1,1,1,1,0.2,1,575,1,1,575,1,0,0.6,0.2,-0.529045463838628,-0.529045463838628,750,1,0
1,104,1,97,2,0,0,4,2,0.4,4,919,1,0,919,1,0,0.4,NaN,1.949338389121,1.949338389121,750,0,0
1,104,1,98,2,0,2,2,NaN,0.4,2,829,1,0,829,0,0,0.6,NaN,1.30092400898621,1.30092400898621,750,0,0
1,104,1,99,2,1,1,4,4,0.4,4,930,1,0,930,0,0,0.6,NaN,2.02858903558192,2.02858903558192,750,1,0
1,104,1,100,2,1,1,2,2,0.4,2,739,1,1,739,1,0,0.6,NaN,0.652509628851427,0.652509628851427,750,1,0
1,104,1,101,1,0,2,3,NaN,0.6,1,717,0,1,NaN,0,0,1,0.4,0.494008335929591,NaN,750,0,1
1,104,1,102,2,1,1,4,4,0.6,4,573,1,1,573,1,0,0.8,NaN,-0.543454672286068,-0.543454672286068,750,1,0
1,104,1,103,1,1,0,3,2,0.6,2,864,0,0,NaN,0,0,0.8,0.2,1.55308515681641,NaN,750,1,0
1,104,1,104,1,0,1,4,4,0.6,4,614,1,1,614,0,0,0.8,0.4,-0.248065899113554,-0.248065899113554,750,1,0
1,104,1,105,1,1,0,2,1,0.6,1,512,0,1,NaN,0,0,0.8,0.2,-0.982935529932978,NaN,750,1,0
1,104,1,106,1,1,2,3,NaN,0.4,2,682,0,1,NaN,0,0,0.4,0.2,0.241847188099396,NaN,750,0,1
1,104,1,107,1,1,1,1,1,0.4,1,600,1,1,600,1,0,0.4,0.2,-0.348930358245632,-0.348930358245632,750,1,0
1,104,1,108,2,1,0,4,2,0.4,4,838,1,0,838,0,0,0.2,NaN,1.36576544699969,1.36576544699969,750,0,0
1,104,1,109,1,0,1,1,1,0.2,1,532,1,1,532,0,0,0.2,0.2,-0.838843445458581,-0.838843445458581,750,1,0
1,104,1,110,2,1,1,3,3,0.2,3,563,1,1,563,1,0,0.2,NaN,-0.615500714523266,-0.615500714523266,750,1,0
1,104,1,111,2,1,1,2,2,0.4,2,669,1,1,669,1,0,0.6,NaN,0.148187333191038,0.148187333191038,750,1,0
1,104,1,112,2,0,0,1,3,0.6,2,874,0,0,NaN,1,0,1,NaN,1.62513119905361,NaN,750,0,1
1,104,1,113,2,1,0,4,2,0.6,4,913,1,0,913,0,0,1.2,NaN,1.90611076377868,1.90611076377868,750,0,0
1,104,1,114,2,1,1,1,1,0.6,1,646,1,1,646,1,0,1.2,NaN,-0.0175185639545186,-0.0175185639545186,750,1,0
1,104,1,115,2,1,0,4,2,0.6,NaN,NaN,0,0,NaN,0,1,1.6,NaN,NaN,NaN,750,0,1
1,104,1,116,2,0,0,2,4,0.6,NaN,NaN,0,0,NaN,1,1,1.2,NaN,NaN,NaN,750,0,1
1,104,1,117,2,0,2,4,NaN,0.6,4,876,1,0,876,1,0,1.2,NaN,1.63954040750105,1.63954040750105,750,0,0
1,104,1,118,1,1,1,1,1,0.6,1,563,1,1,563,1,0,1.2,0.4,-0.615500714523266,-0.615500714523266,750,1,0
1,104,1,119,1,0,2,4,NaN,0.6,4,739,1,1,739,0,0,1.4,0.2,0.652509628851427,0.652509628851427,750,0,0
1,104,1,120,2,0,1,1,1,0.6,1,578,1,1,578,0,0,1,NaN,-0.507431651167468,-0.507431651167468,750,1,0
1,104,1,121,1,1,0,3,2,0.6,3,962,1,0,962,0,0,1,0.4,2.25913637074095,2.25913637074095,750,0,0
1,104,1,122,1,0,2,1,NaN,0.4,1,675,1,1,675,0,0,0.6,0,0.191414958533357,0.191414958533357,750,0,0
1,104,1,123,2,1,1,3,3,0.4,3,579,1,1,579,1,0,0.2,NaN,-0.500227046943749,-0.500227046943749,750,1,0
1,104,1,124,1,1,1,4,4,0.6,4,717,1,1,717,1,0,0.4,0.4,0.494008335929591,0.494008335929591,750,1,0
1,104,1,125,1,0,0,3,2,0.6,2,739,0,1,NaN,0,0,0.6,0,0.652509628851427,NaN,750,1,0
1,104,1,126,1,1,0,1,4,0.6,4,725,0,1,NaN,0,0,0.6,0.6,0.55164516971935,NaN,750,1,0
1,104,1,127,2,1,1,2,2,0.6,3,795,0,0,NaN,0,0,0.6,NaN,1.05596746537974,NaN,750,0,1
1,104,1,128,2,0,2,1,NaN,0.4,1,634,1,1,634,1,0,0.6,NaN,-0.103973814639157,-0.103973814639157,750,0,0
1,104,1,129,1,0,0,2,4,0.4,4,725,0,1,NaN,1,0,0.6,0,0.55164516971935,NaN,750,1,0
1,104,1,130,2,0,2,4,NaN,0.4,4,618,1,1,618,1,0,0.6,NaN,-0.219247482218674,-0.219247482218674,750,0,0
1,104,1,131,2,1,1,3,3,0.4,3,666,1,1,666,1,0,1,NaN,0.126573520519878,0.126573520519878,750,1,0
1,104,1,132,1,1,0,4,1,0.6,1,773,0,0,NaN,0,0,1.4,0.6,0.897466172457902,NaN,750,1,0
1,104,1,133,1,0,0,3,4,0.4,4,698,0,1,NaN,0,0,1.4,0.2,0.357120855678914,NaN,750,1,0
1,104,1,134,2,1,1,1,1,0.4,1,713,1,1,713,1,0,1,NaN,0.465189919034711,0.465189919034711,750,1,0
1,104,1,135,2,0,1,3,3,0.4,3,891,1,0,891,0,0,1.2,NaN,1.74760947085684,1.74760947085684,750,1,0
1,104,1,136,1,0,1,1,1,0.4,1,453,1,1,453,1,0,0.8,0.2,-1.40800717913245,-1.40800717913245,750,1,0
1,104,1,137,1,0,2,2,NaN,0.4,2,678,1,1,678,0,0,0.6,0.4,0.213028771204517,0.213028771204517,750,0,0
1,104,1,138,2,0,0,1,4,0.4,4,650,0,1,NaN,1,0,0.6,NaN,0.0112998529403608,NaN,750,1,0
1,104,1,139,1,1,0,4,3,0.4,3,641,0,1,NaN,0,0,1,0.4,-0.0535415850731178,NaN,750,1,0
1,104,1,140,1,1,1,2,2,0.4,2,606,1,1,606,1,0,0.6,0.2,-0.305702732903313,-0.305702732903313,750,1,0
1,104,1,141,1,0,1,1,1,0.6,1,586,1,1,586,0,0,0.8,0.4,-0.44979481737771,-0.44979481737771,750,1,0
1,104,1,142,1,0,0,4,3,0.6,3,802,0,0,NaN,0,0,0.6,0.4,1.10639969494578,NaN,750,1,0
1,104,1,143,1,0,0,3,2,0.6,2,672,0,1,NaN,1,0,0.6,0.2,0.169801145862197,NaN,750,1,0
1,104,1,144,1,0,1,1,1,0.6,1,510,1,1,510,1,0,0.4,0.4,-0.997344738380418,-0.997344738380418,750,1,0
1,104,1,145,2,0,2,4,NaN,0.6,3,727,0,1,NaN,0,0,0.6,NaN,0.566054378166789,NaN,750,0,1
1,104,1,146,1,1,0,3,2,0.6,2,779,0,0,NaN,0,0,0.4,0.4,0.940693797800221,NaN,750,1,0
1,104,1,147,2,0,2,4,NaN,0.4,3,697,0,1,NaN,0,0,0.4,NaN,0.349916251455194,NaN,750,0,1
1,104,1,148,2,1,0,2,4,0.4,3,797,0,0,NaN,0,0,0.4,NaN,1.07037667382718,NaN,750,0,1
1,104,1,149,1,0,2,1,NaN,0.4,1,674,1,1,674,1,0,0.2,0.4,0.184210354309637,0.184210354309637,750,0,0
1,104,1,150,2,1,1,3,3,0.4,3,805,1,0,805,0,0,0.2,NaN,1.12801350761694,1.12801350761694,750,1,0
1,104,2,151,2,0,0,2,1,0.2,NaN,NaN,0,0,NaN,1,1,0.2,NaN,NaN,NaN,750,0,1
1,104,2,152,1,1,2,4,NaN,0.2,3,650,0,1,NaN,0,0,0.6,0.2,0.0112998529403608,NaN,750,0,1
1,104,2,153,2,0,1,2,2,0.2,2,665,1,1,665,0,0,0.6,NaN,0.119368916296159,0.119368916296159,750,1,0
1,104,2,154,2,0,2,4,NaN,0.2,3,552,0,1,NaN,1,0,0.6,NaN,-0.694751360984184,NaN,750,0,1
1,104,2,155,2,0,1,3,3,0.2,NaN,NaN,0,0,NaN,0,1,0.8,NaN,NaN,NaN,750,0,1
1,104,2,156,2,1,1,1,1,0.2,1,589,1,1,589,1,0,0.8,NaN,-0.42818100470655,-0.42818100470655,750,1,0
1,104,2,157,2,1,0,4,3,0.2,4,744,1,1,744,1,0,0.8,NaN,0.688532649970027,0.688532649970027,750,0,0
1,104,2,158,1,0,1,1,1,0.4,1,519,1,1,519,1,0,1.2,0.6,-0.932503300366939,-0.932503300366939,750,1,0
1,104,2,159,2,0,0,4,3,0.4,3,493,0,1,NaN,0,0,1.4,NaN,-1.11982301018366,NaN,750,1,0
1,104,2,160,1,0,2,1,NaN,0.4,1,757,1,0,757,0,0,1,0.8,0.782192504878385,0.782192504878385,750,0,0
1,104,2,161,1,1,1,4,4,0.4,4,583,1,1,583,1,0,1,0.2,-0.471408630048869,-0.471408630048869,750,1,0
1,104,2,162,1,1,0,1,2,0.6,2,964,0,0,NaN,0,0,0.8,0.4,2.27354557918839,NaN,750,1,0
1,104,2,163,2,0,1,3,3,0.6,3,517,1,1,517,1,0,0.4,NaN,-0.946912508814379,-0.946912508814379,750,1,0
1,104,2,164,1,1,1,4,4,0.6,4,629,1,1,629,1,0,0.6,0.4,-0.139996835757756,-0.139996835757756,750,1,0
1,104,2,165,2,0,0,1,2,0.8,1,899,1,0,899,1,0,0.8,NaN,1.8052463046466,1.8052463046466,750,0,0
1,104,2,166,1,0,2,4,NaN,0.8,3,553,0,1,NaN,1,0,1.2,0.8,-0.687546756760465,NaN,750,0,1
1,104,2,167,2,1,1,2,2,0.8,2,822,1,0,822,0,0,1.2,NaN,1.25049177942017,1.25049177942017,750,1,0
1,104,2,168,2,0,1,3,3,0.6,3,512,1,1,512,1,0,1.2,NaN,-0.982935529932978,-0.982935529932978,750,1,0
1,104,2,169,2,0,0,2,4,0.6,4,655,0,1,NaN,1,0,1.2,NaN,0.0473228740589601,NaN,750,1,0
1,104,2,170,1,1,0,4,2,0.6,3,624,0,1,NaN,0,0,1.4,0.4,-0.176019856876355,NaN,750,0,1
1,104,2,171,2,0,0,2,4,0.4,3,690,0,1,NaN,0,0,1,NaN,0.299484021889155,NaN,750,0,1
1,104,2,172,1,1,2,4,NaN,0.4,3,866,0,0,NaN,0,0,0.8,0.4,1.56749436526385,NaN,750,0,1
1,104,2,173,1,1,1,3,3,0.2,3,570,1,1,570,1,0,0.8,0.4,-0.565068484957227,-0.565068484957227,750,1,0
1,104,2,174,1,0,1,1,1,0.4,2,774,0,0,NaN,1,0,0.6,0.8,0.904670776681622,NaN,750,0,1
1,104,2,175,2,1,1,2,2,0.4,2,708,1,1,708,1,0,0.4,NaN,0.429166897916112,0.429166897916112,750,1,0
1,104,2,176,1,1,0,4,3,0.4,3,578,0,1,NaN,0,0,0.8,0.4,-0.507431651167468,NaN,750,1,0
1,104,2,177,1,1,0,3,1,0.4,1,871,0,0,NaN,0,0,0.8,0.4,1.60351738638245,NaN,750,1,0
1,104,2,178,2,1,0,1,4,0.4,1,614,1,1,614,1,0,0.8,NaN,-0.248065899113554,-0.248065899113554,750,0,0
1,104,2,179,1,1,1,3,3,0.6,3,533,1,1,533,1,0,1,0.2,-0.831638841234862,-0.831638841234862,750,1,0
1,104,2,180,1,1,1,2,2,0.6,2,536,1,1,536,1,0,1,0.4,-0.810025028563702,-0.810025028563702,750,1,0
1,104,2,181,2,0,1,1,1,0.6,1,605,1,1,605,0,0,0.8,NaN,-0.312907337127032,-0.312907337127032,750,1,0
1,104,2,182,1,1,2,4,NaN,0.6,3,700,0,1,NaN,0,0,0.8,0.6,0.371530064126353,NaN,750,0,1
1,104,2,183,2,0,0,1,4,0.6,3,783,0,0,NaN,1,0,0.8,NaN,0.969512214695101,NaN,750,0,1
1,104,2,184,2,0,1,3,3,0.6,3,647,1,1,647,0,0,0.8,NaN,-0.0103139597307987,-0.0103139597307987,750,1,0
1,104,2,185,2,1,0,2,1,0.6,2,814,1,0,814,0,0,0.6,NaN,1.19285494563042,1.19285494563042,750,0,0
1,104,2,186,1,0,0,4,2,0.6,3,969,0,0,NaN,1,0,0.4,0.8,2.30956860030699,NaN,750,0,1
1,104,2,187,2,1,2,3,NaN,0.6,3,575,1,1,575,1,0,0.6,NaN,-0.529045463838628,-0.529045463838628,750,0,0
1,104,2,188,2,0,1,1,1,0.6,1,794,1,0,794,1,0,1,NaN,1.04876286115602,1.04876286115602,750,1,0
1,104,2,189,2,0,0,4,2,0.6,3,626,0,1,NaN,1,0,1,NaN,-0.161610648428916,NaN,750,0,1
1,104,2,190,2,0,2,3,NaN,0.6,3,790,1,0,790,1,0,1.4,NaN,1.01994444426114,1.01994444426114,750,0,0
1,104,2,191,2,0,1,4,4,0.6,3,557,0,1,NaN,1,0,1.8,NaN,-0.658728339865585,NaN,750,0,1
1,104,2,192,1,0,2,2,NaN,0.6,1,600,0,1,NaN,0,0,2,0.8,-0.348930358245632,NaN,750,0,1
1,104,2,193,1,1,1,3,3,0.6,4,758,0,0,NaN,0,0,1.6,0.4,0.789397109102104,NaN,750,0,1
1,104,2,194,2,1,2,2,NaN,0.4,NaN,NaN,0,0,NaN,0,1,1.2,NaN,NaN,NaN,750,0,1
1,104,2,195,1,1,1,1,1,0.2,1,582,1,1,582,1,0,0.8,0.4,-0.478613234272589,-0.478613234272589,750,1,0
1,104,2,196,2,0,2,3,NaN,0.4,4,763,0,0,NaN,1,0,0.6,NaN,0.825420130220704,NaN,750,0,1
1,104,2,197,2,0,1,1,1,0.4,2,739,0,1,NaN,1,0,0.6,NaN,0.652509628851427,NaN,750,0,1
1,104,2,198,1,0,1,4,4,0.4,4,801,1,0,801,0,0,1,0.6,1.09919509072206,1.09919509072206,750,1,0
1,104,2,199,1,1,2,2,NaN,0.4,2,559,1,1,559,1,0,1,0.6,-0.644319131418145,-0.644319131418145,750,0,0
1,104,2,200,2,1,1,1,1,0.6,1,671,1,1,671,1,0,1.2,NaN,0.162596541638478,0.162596541638478,750,1,0
1,104,2,201,2,1,2,4,NaN,0.6,3,577,0,1,NaN,0,0,1.4,NaN,-0.514636255391188,NaN,750,0,1
1,104,2,202,2,0,1,3,3,0.6,4,529,0,1,NaN,1,0,1,NaN,-0.860457258129741,NaN,750,0,1
1,104,2,203,1,1,2,2,NaN,0.6,2,636,1,1,636,1,0,1,0.6,-0.0895646061917171,-0.0895646061917171,750,0,0
1,104,2,204,2,0,1,3,3,0.8,3,483,1,1,483,1,0,1.2,NaN,-1.19186905242085,-1.19186905242085,750,1,0
1,104,2,205,1,0,2,2,NaN,0.8,2,632,1,1,632,1,0,1.4,0.6,-0.118383023086596,-0.118383023086596,750,0,0
1,104,2,206,2,1,0,1,2,0.8,2,727,0,1,NaN,0,0,1.2,NaN,0.566054378166789,NaN,750,1,0
1,104,2,207,1,0,2,4,NaN,0.6,4,421,1,1,421,1,0,1.2,0.6,-1.63855451429148,-1.63855451429148,750,0,0
1,104,2,208,2,1,1,1,1,0.6,1,779,1,0,779,0,0,1,NaN,0.940693797800221,0.940693797800221,750,1,0
1,104,2,209,1,1,0,4,2,0.4,3,519,0,1,NaN,0,0,0.8,0.6,-0.932503300366939,NaN,750,0,1
1,104,2,210,1,1,0,1,3,0.2,3,739,0,1,NaN,0,0,0.4,0.6,0.652509628851427,NaN,750,1,0
1,104,2,211,2,0,0,2,4,0.2,3,682,0,1,NaN,0,0,0.2,NaN,0.241847188099396,NaN,750,0,1
1,104,2,212,1,0,0,1,3,0.2,3,578,0,1,NaN,1,0,0.2,0.6,-0.507431651167468,NaN,750,1,0
1,104,2,213,2,0,0,3,4,0.2,4,863,0,0,NaN,1,0,0.2,NaN,1.54588055259269,NaN,750,1,0
1,104,2,214,1,1,2,1,NaN,0.2,1,516,1,1,516,1,0,0.6,0.6,-0.954117113038099,-0.954117113038099,750,0,0
1,104,2,215,1,0,1,3,3,0.2,3,554,1,1,554,0,0,0.8,0.6,-0.680342152536745,-0.680342152536745,750,1,0
1,104,2,216,1,0,1,4,4,0.2,4,635,1,1,635,0,0,0.8,0.6,-0.0967692104154369,-0.0967692104154369,750,1,0
1,104,2,217,2,1,1,3,3,0.2,3,527,1,1,527,1,0,0.8,NaN,-0.874866466577181,-0.874866466577181,750,1,0
1,104,2,218,2,1,1,4,4,0.4,4,563,1,1,563,1,0,1,NaN,-0.615500714523266,-0.615500714523266,750,1,0
1,104,2,219,2,1,0,3,1,0.6,1,917,0,0,NaN,0,0,1,NaN,1.93492918067356,NaN,750,1,0
1,104,2,220,1,1,2,4,NaN,0.6,4,531,1,1,531,1,0,0.8,0.6,-0.846048049682301,-0.846048049682301,750,0,0
1,104,2,221,1,1,1,3,3,0.8,3,608,1,1,608,1,0,1,0.6,-0.291293524455873,-0.291293524455873,750,1,0
1,104,2,222,1,0,1,2,2,0.8,2,481,1,1,481,1,0,1.2,0.6,-1.20627826086829,-1.20627826086829,750,1,0
1,104,2,223,1,1,2,1,NaN,0.8,1,608,1,1,608,1,0,1,0.6,-0.291293524455873,-0.291293524455873,750,0,0
1,104,2,224,1,0,1,3,3,0.8,3,509,1,1,509,1,0,0.8,0.6,-1.00454934260414,-1.00454934260414,750,1,0
1,104,2,225,2,1,2,1,NaN,0.8,1,563,1,1,563,1,0,1,NaN,-0.615500714523266,-0.615500714523266,750,0,0
1,104,2,226,2,1,1,4,4,0.8,NaN,NaN,0,0,NaN,0,1,1.2,NaN,NaN,NaN,750,0,1
1,104,2,227,2,0,0,3,1,0.8,2,782,0,0,NaN,1,0,1,NaN,0.962307610471381,NaN,750,0,1
1,104,2,228,2,0,2,4,NaN,0.8,4,421,1,1,421,1,0,1.2,NaN,-1.63855451429148,-1.63855451429148,750,0,0
1,104,2,229,2,0,1,1,1,0.8,1,463,1,1,463,1,0,1.4,NaN,-1.33596113689525,-1.33596113689525,750,1,0
1,104,2,230,2,0,0,3,2,0.8,2,633,0,1,NaN,1,0,1.6,NaN,-0.111178418862877,NaN,750,1,0
1,104,2,231,1,0,0,4,3,0.8,3,526,0,1,NaN,1,0,1.6,0.6,-0.882071070800901,NaN,750,1,0
1,104,2,232,1,1,2,3,NaN,0.8,3,704,1,1,704,1,0,1.8,0.8,0.400348481021233,0.400348481021233,750,0,0
1,104,2,233,1,0,0,2,4,0.8,4,650,0,1,NaN,1,0,1.6,0.6,0.0112998529403608,NaN,750,1,0
1,104,2,234,2,0,0,4,1,0.8,1,704,0,1,NaN,1,0,1.4,NaN,0.400348481021233,NaN,750,1,0
1,104,2,235,1,1,1,2,2,0.8,2,627,1,1,627,1,0,1.4,1,-0.154406044205196,-0.154406044205196,750,1,0
1,104,2,236,1,0,2,1,NaN,0.8,1,583,1,1,583,0,0,1.2,0.8,-0.471408630048869,-0.471408630048869,750,0,0
1,104,2,237,2,0,0,4,3,0.8,3,585,0,1,NaN,1,0,1,NaN,-0.456999421601429,NaN,750,1,0
1,104,2,238,2,0,1,1,1,0.8,1,627,1,1,627,0,0,1.2,NaN,-0.154406044205196,-0.154406044205196,750,1,0
1,104,2,239,1,0,0,2,3,0.8,3,545,0,1,NaN,1,0,1,0.8,-0.745183590550223,NaN,750,1,0
1,104,2,240,1,1,1,1,1,0.8,1,718,1,1,718,1,0,0.8,1,0.501212940153311,0.501212940153311,750,1,0
1,104,2,241,2,0,1,3,3,0.8,3,507,1,1,507,1,0,0.8,NaN,-1.01895855105158,-1.01895855105158,750,1,0
1,104,2,242,1,1,2,4,NaN,0.8,4,574,1,1,574,1,0,1.2,1,-0.536250068062348,-0.536250068062348,750,0,0
1,104,2,243,2,1,1,1,1,0.8,1,501,1,1,501,1,0,1,NaN,-1.0621861763939,-1.0621861763939,750,1,0
1,104,2,244,2,1,2,2,NaN,1,3,590,0,1,NaN,0,0,1.4,NaN,-0.42097640048283,NaN,750,0,1
1,104,2,245,1,1,1,3,3,0.8,4,725,0,1,NaN,0,0,1.2,1,0.55164516971935,NaN,750,0,1
1,104,2,246,1,1,2,2,NaN,0.6,NaN,NaN,0,0,NaN,0,1,1,0.8,NaN,NaN,750,0,1
1,104,2,247,2,0,1,4,4,0.4,4,613,1,1,613,0,0,0.6,NaN,-0.255270503337274,-0.255270503337274,750,1,0
1,104,2,248,1,1,1,1,1,0.4,1,605,1,1,605,1,0,0.4,0.6,-0.312907337127032,-0.312907337127032,750,1,0
1,104,2,249,2,0,0,3,4,0.4,4,829,0,0,NaN,0,0,0.2,NaN,1.30092400898621,NaN,750,1,0
1,104,2,250,2,0,0,4,2,0.4,2,608,0,1,NaN,0,0,0.2,NaN,-0.291293524455873,NaN,750,1,0
1,104,2,251,2,0,1,1,1,0.4,1,616,1,1,616,0,0,0.2,NaN,-0.233656690666114,-0.233656690666114,750,1,0
1,104,2,252,1,1,1,3,3,0.4,3,438,1,1,438,1,0,0.2,0.6,-1.51607624248825,-1.51607624248825,750,1,0
1,104,2,253,2,0,1,2,2,0.4,2,454,1,1,454,0,0,0.4,NaN,-1.40080257490873,-1.40080257490873,750,1,0
1,104,2,254,1,1,1,1,1,0.4,1,588,1,1,588,1,0,0.2,0.6,-0.43538560893027,-0.43538560893027,750,1,0
1,104,2,255,2,1,2,2,NaN,0.6,3,356,0,1,NaN,0,0,0.4,NaN,-2.10685378883327,NaN,750,0,1
1,104,2,256,1,0,0,1,4,0.6,4,751,0,0,NaN,0,0,0.4,0.8,0.738964879536066,NaN,750,1,0
1,104,2,257,1,0,1,3,3,0.6,3,386,1,1,386,0,0,0.4,0.6,-1.89071566212168,-1.89071566212168,750,1,0
1,104,2,258,2,0,1,2,2,0.6,2,479,1,1,479,0,0,0.2,NaN,-1.22068746931573,-1.22068746931573,750,1,0
1,104,2,259,1,1,1,4,4,0.6,3,505,0,1,NaN,0,0,0.2,0.6,-1.03336775949902,NaN,750,0,1
1,104,2,260,2,0,0,2,3,0.6,NaN,NaN,0,0,NaN,1,1,0,NaN,NaN,NaN,750,0,1
1,104,2,261,2,1,1,1,1,0.6,1,580,1,1,580,1,0,0.4,NaN,-0.493022442720029,-0.493022442720029,750,1,0
1,104,2,262,1,1,2,2,NaN,0.6,2,735,1,1,735,1,0,0.8,0.6,0.623691211956548,0.623691211956548,750,0,0
1,104,2,263,2,0,1,4,4,0.6,4,513,1,1,513,1,0,1,NaN,-0.975730925709259,-0.975730925709259,750,1,0
1,104,2,264,2,0,2,1,NaN,0.6,2,533,0,1,NaN,1,0,1.4,NaN,-0.831638841234862,NaN,750,0,1
1,104,2,265,1,1,0,3,2,0.6,2,835,0,0,NaN,0,0,1.8,0.8,1.34415163432853,NaN,750,1,0
1,104,2,266,1,1,0,4,1,0.4,1,806,0,0,NaN,0,0,1.4,0.6,1.13521811184066,NaN,750,1,0
1,104,2,267,1,0,1,2,2,0.4,2,751,1,0,751,1,0,1,0.4,0.738964879536066,0.738964879536066,750,1,0
1,104,2,268,2,0,0,4,3,0.4,NaN,NaN,0,0,NaN,1,1,1,NaN,NaN,NaN,750,0,1
1,104,2,269,2,0,1,2,2,0.4,2,656,1,1,656,0,0,1,NaN,0.0545274782826799,0.0545274782826799,750,1,0
1,104,2,270,1,1,1,1,1,0.4,1,557,1,1,557,1,0,0.6,0.4,-0.658728339865585,-0.658728339865585,750,1,0
1,104,2,271,2,0,1,2,2,0.6,2,615,1,1,615,0,0,0.8,NaN,-0.240861294889834,-0.240861294889834,750,1,0
1,104,2,272,2,1,1,4,4,0.6,4,689,1,1,689,1,0,0.8,NaN,0.292279417665435,0.292279417665435,750,1,0
1,104,2,273,1,0,0,2,1,0.6,2,748,1,1,748,1,0,1,0.4,0.717351066864906,0.717351066864906,750,0,0
1,104,2,274,1,1,2,3,NaN,0.6,3,588,1,1,588,1,0,0.8,0.4,-0.43538560893027,-0.43538560893027,750,0,0
1,104,2,275,2,1,1,1,1,0.6,1,493,1,1,493,1,0,1,NaN,-1.11982301018366,-1.11982301018366,750,1,0
1,104,2,276,1,0,2,2,NaN,0.8,2,590,1,1,590,0,0,1.2,0.6,-0.42097640048283,-0.42097640048283,750,0,0
1,104,2,277,1,0,1,1,1,0.8,2,572,0,1,NaN,1,0,1.2,0.4,-0.550659276509787,NaN,750,0,1
1,104,2,278,2,1,0,4,2,0.8,1,837,0,0,NaN,0,0,1,NaN,1.35856084277597,NaN,750,0,1
1,104,2,279,1,1,2,2,NaN,0.8,2,570,1,1,570,1,0,0.8,0.6,-0.565068484957227,-0.565068484957227,750,0,0
1,104,2,280,1,0,1,3,3,0.8,3,842,1,0,842,0,0,0.8,0.6,1.39458386389457,1.39458386389457,750,1,0
1,104,2,281,2,1,2,1,NaN,0.8,1,580,1,1,580,1,0,0.4,NaN,-0.493022442720029,-0.493022442720029,750,0,0
1,104,2,282,2,1,1,3,3,0.8,2,854,0,0,NaN,0,0,0.8,NaN,1.48103911457921,NaN,750,0,1
1,104,2,283,2,0,1,4,4,0.6,4,418,1,1,418,1,0,0.6,NaN,-1.66016832696264,-1.66016832696264,750,1,0
1,104,2,284,1,1,0,3,2,0.6,3,594,1,1,594,1,0,1,0.6,-0.392157983587951,-0.392157983587951,750,0,0
1,104,2,285,1,0,2,1,NaN,0.6,1,719,1,1,719,1,0,1,0.6,0.50841754437703,0.50841754437703,750,0,0
1,104,2,286,1,0,0,2,1,0.6,2,603,1,1,603,0,0,1.2,0.6,-0.327316545574472,-0.327316545574472,750,0,0
1,104,2,287,1,1,2,3,NaN,0.6,3,626,1,1,626,1,0,0.8,0.8,-0.161610648428916,-0.161610648428916,750,0,0
1,104,2,288,1,0,1,4,4,0.8,4,554,1,1,554,0,0,1,0.4,-0.680342152536745,-0.680342152536745,750,1,0
1,104,2,289,1,0,0,2,3,0.8,3,536,0,1,NaN,1,0,0.6,0.4,-0.810025028563702,NaN,750,1,0
1,104,2,290,2,0,1,4,4,0.8,3,487,0,1,NaN,1,0,0.6,NaN,-1.16305063552597,NaN,750,0,1
1,104,2,291,2,0,0,1,3,0.8,2,774,0,0,NaN,1,0,0.8,NaN,0.904670776681622,NaN,750,0,1
1,104,2,292,1,1,0,2,1,0.8,1,776,0,0,NaN,0,0,1.2,1,0.919079985129062,NaN,750,1,0
1,104,2,293,2,1,2,4,NaN,0.6,4,696,1,1,696,1,0,1,NaN,0.342711647231474,0.342711647231474,750,0,0
1,104,2,294,1,1,1,3,3,0.6,3,799,1,0,799,0,0,1.4,0.8,1.08478588227462,1.08478588227462,750,1,0
1,104,2,295,1,1,1,2,2,0.6,2,681,1,1,681,1,0,1.2,0.6,0.234642583875676,0.234642583875676,750,1,0
1,104,2,296,1,1,0,1,3,0.6,3,631,0,1,NaN,0,0,1,0.6,-0.125587627310316,NaN,750,1,0
1,104,2,297,1,0,0,4,2,0.4,2,712,0,1,NaN,0,0,0.6,0.4,0.457985314810991,NaN,750,1,0
1,104,2,298,1,1,1,3,3,0.4,2,563,0,1,NaN,0,0,0.6,0.4,-0.615500714523266,NaN,750,0,1
1,104,2,299,1,1,1,4,4,0.4,4,565,1,1,565,1,0,0.2,0.2,-0.601091506075826,-0.601091506075826,750,1,0
1,104,2,300,1,0,1,1,1,0.4,2,685,0,1,NaN,1,0,0.4,0.4,0.263461000770556,NaN,750,0,1
1,104,3,301,1,1,1,4,4,0.4,NaN,NaN,0,0,NaN,0,1,0.4,0.4,NaN,NaN,750,0,1
1,104,3,302,2,0,1,2,2,0.4,3,469,0,1,NaN,0,0,0.4,NaN,-1.29273351155293,NaN,750,0,1
1,104,3,303,2,1,0,4,3,0.4,4,830,1,0,830,0,0,0.4,NaN,1.30812861320993,1.30812861320993,750,0,0
1,104,3,304,1,1,1,2,2,0.2,2,393,1,1,393,1,0,0.4,0.4,-1.84028343255564,-1.84028343255564,750,1,0
1,104,3,305,1,0,1,3,3,0.4,3,487,1,1,487,0,0,0.4,0.4,-1.16305063552597,-1.16305063552597,750,1,0
1,104,3,306,2,0,0,2,4,0.4,4,459,0,1,NaN,1,0,0.2,NaN,-1.36477955379013,NaN,750,1,0
1,104,3,307,1,1,1,3,3,0.4,3,534,1,1,534,1,0,0.6,0.4,-0.824434237011142,-0.824434237011142,750,1,0
1,104,3,308,1,1,0,1,4,0.6,4,683,0,1,NaN,0,0,0.8,0.6,0.249051792323116,NaN,750,1,0
1,104,3,309,2,1,1,3,3,0.4,3,535,1,1,535,1,0,0.8,NaN,-0.817229632787422,-0.817229632787422,750,1,0
1,104,3,310,2,1,1,1,1,0.6,1,476,1,1,476,1,0,1,NaN,-1.24230128198689,-1.24230128198689,750,1,0
1,104,3,311,2,0,2,2,NaN,0.8,2,613,1,1,613,1,0,1.4,NaN,-0.255270503337274,-0.255270503337274,750,0,0
1,104,3,312,1,1,1,1,1,0.8,1,463,1,1,463,1,0,1.4,0.6,-1.33596113689525,-1.33596113689525,750,1,0
1,104,3,313,1,0,2,3,NaN,0.8,3,790,1,0,790,1,0,1.4,0.4,1.01994444426114,1.01994444426114,750,0,0
1,104,3,314,1,1,1,1,1,0.8,1,518,1,1,518,1,0,1.6,0.6,-0.939707904590659,-0.939707904590659,750,1,0
1,104,3,315,2,1,1,4,4,0.8,4,435,1,1,435,1,0,1.4,NaN,-1.53769005515941,-1.53769005515941,750,1,0
1,104,3,316,2,0,0,2,3,1,2,538,1,1,538,1,0,1.4,NaN,-0.795615820116262,-0.795615820116262,750,0,0
1,104,3,317,2,1,1,1,1,1,1,633,1,1,633,1,0,1.4,NaN,-0.111178418862877,-0.111178418862877,750,1,0
1,104,3,318,2,0,2,4,NaN,1,4,490,1,1,490,1,0,1.6,NaN,-1.14143682285482,-1.14143682285482,750,0,0
1,104,3,319,2,0,0,2,4,1,2,879,1,0,879,1,0,1.8,NaN,1.66115422017221,1.66115422017221,750,0,0
1,104,3,320,2,0,2,1,NaN,1,3,670,0,1,NaN,1,0,2,NaN,0.155391937414758,NaN,750,0,1
1,104,3,321,2,0,1,3,3,1,4,691,0,1,NaN,1,0,2,NaN,0.306688626112875,NaN,750,0,1
1,104,3,322,2,0,0,4,2,1,2,619,0,1,NaN,1,0,2,NaN,-0.212042877994955,NaN,750,1,0
1,104,3,323,1,0,0,3,1,1,1,739,0,1,NaN,1,0,2,0.6,0.652509628851427,NaN,750,1,0
1,104,3,324,2,1,0,2,4,1,3,597,0,1,NaN,0,0,1.8,NaN,-0.370544170916791,NaN,750,0,1
1,104,3,325,1,0,0,1,2,0.8,2,666,0,1,NaN,1,0,1.4,0.6,0.126573520519878,NaN,750,1,0
1,104,3,326,1,0,0,2,3,0.8,4,769,0,0,NaN,1,0,1.2,0.8,0.868647755563023,NaN,750,0,1
1,104,3,327,2,0,1,4,4,0.8,3,526,0,1,NaN,1,0,1,NaN,-0.882071070800901,NaN,750,0,1
1,104,3,328,2,1,1,2,2,0.8,2,613,1,1,613,1,0,1,NaN,-0.255270503337274,-0.255270503337274,750,1,0
1,104,3,329,2,1,2,1,NaN,0.8,1,699,1,1,699,1,0,1.2,NaN,0.364325459902633,0.364325459902633,750,0,0
1,104,3,330,2,0,0,4,1,0.8,1,828,0,0,NaN,1,0,1.6,NaN,1.29371940476249,NaN,750,1,0
1,104,3,331,1,1,1,3,3,0.8,3,525,1,1,525,1,0,1.8,0.8,-0.88927567502462,-0.88927567502462,750,1,0
1,104,3,332,1,1,2,4,NaN,0.8,4,509,1,1,509,1,0,1.8,0.8,-1.00454934260414,-1.00454934260414,750,0,0
1,104,3,333,2,0,0,3,2,0.8,2,680,0,1,NaN,1,0,1.6,NaN,0.227437979651956,NaN,750,1,0
1,104,3,334,2,0,2,4,NaN,0.8,3,767,0,0,NaN,0,0,1.6,NaN,0.854238547115583,NaN,750,0,1
1,104,3,335,1,0,1,3,3,0.8,3,515,1,1,515,0,0,1.2,0.8,-0.961321717261819,-0.961321717261819,750,1,0
1,104,3,336,2,0,1,1,1,0.8,1,500,1,1,500,0,0,0.8,NaN,-1.06939078061762,-1.06939078061762,750,1,0
1,104,3,337,2,1,1,3,3,0.8,2,644,0,1,NaN,0,0,0.6,NaN,-0.0319277724019583,NaN,750,0,1
1,104,3,338,2,0,1,2,2,0.8,2,616,1,1,616,1,0,0.4,NaN,-0.233656690666114,-0.233656690666114,750,1,0
1,104,3,339,2,1,2,3,NaN,0.8,3,546,1,1,546,1,0,0.4,NaN,-0.737978986326503,-0.737978986326503,750,0,0
1,104,3,340,1,1,0,1,2,0.8,2,711,0,1,NaN,0,0,0.8,0.8,0.450780710587272,NaN,750,1,0
1,104,3,341,1,1,2,4,NaN,0.6,4,580,1,1,580,1,0,0.8,0.8,-0.493022442720029,-0.493022442720029,750,0,0
1,104,3,342,2,0,1,3,3,0.6,3,527,1,1,527,0,0,1,NaN,-0.874866466577181,-0.874866466577181,750,1,0
1,104,3,343,2,1,2,1,NaN,0.6,2,638,0,1,NaN,0,0,1,NaN,-0.0751553977442774,NaN,750,0,1
1,104,3,344,1,1,1,3,3,0.4,3,710,1,1,710,1,0,0.6,0.8,0.443576106363552,0.443576106363552,750,1,0
1,104,3,345,1,1,1,1,1,0.6,1,459,1,1,459,1,0,0.4,0.8,-1.36477955379013,-1.36477955379013,750,1,0
1,104,3,346,1,0,2,4,NaN,0.6,4,672,1,1,672,0,0,0.6,0.8,0.169801145862197,0.169801145862197,750,0,0
1,104,3,347,1,0,1,2,2,0.6,3,667,0,1,NaN,1,0,0.4,0.6,0.133778124743598,NaN,750,0,1
1,104,3,348,2,1,0,3,4,0.6,4,569,0,1,NaN,0,0,0.6,NaN,-0.572273089180947,NaN,750,1,0
1,104,3,349,1,1,1,1,1,0.6,1,596,1,1,596,1,0,0.6,0.8,-0.377748775140511,-0.377748775140511,750,1,0
1,104,3,350,2,1,1,2,2,0.6,2,870,1,0,870,0,0,0.6,NaN,1.59631278215873,1.59631278215873,750,1,0
1,104,3,351,1,0,1,1,1,0.6,1,564,1,1,564,1,0,0.4,0.6,-0.608296110299546,-0.608296110299546,750,1,0
1,104,3,352,2,1,2,3,NaN,0.6,3,679,1,1,679,1,0,0.6,NaN,0.220233375428236,0.220233375428236,750,0,0
1,104,3,353,1,1,1,4,4,0.6,4,494,1,1,494,1,0,0.8,0.8,-1.11261840595994,-1.11261840595994,750,1,0
1,104,3,354,2,0,2,3,NaN,0.6,3,610,1,1,610,1,0,1,NaN,-0.276884316008433,-0.276884316008433,750,0,0
1,104,3,355,2,1,1,2,2,0.6,2,549,1,1,549,1,0,1.2,NaN,-0.716365173655344,-0.716365173655344,750,1,0
1,104,3,356,2,0,1,4,4,0.8,4,674,1,1,674,0,0,1.6,NaN,0.184210354309637,0.184210354309637,750,1,0
1,104,3,357,1,0,0,1,2,0.8,2,575,0,1,NaN,1,0,1.4,0.6,-0.529045463838628,NaN,750,1,0
1,104,3,358,1,1,1,4,4,0.8,3,571,0,1,NaN,0,0,1.2,1,-0.557863880733507,NaN,750,0,1
1,104,3,359,1,0,1,3,3,0.6,3,528,1,1,528,1,0,1,0.6,-0.867661862353461,-0.867661862353461,750,1,0
1,104,3,360,1,0,1,1,1,0.6,1,610,1,1,610,0,0,0.8,0.8,-0.276884316008433,-0.276884316008433,750,1,0
1,104,3,361,2,1,1,4,4,0.6,4,741,1,1,741,1,0,0.4,NaN,0.666918837298867,0.666918837298867,750,1,0
1,104,3,362,2,0,1,3,3,0.8,3,623,1,1,623,1,0,0.8,NaN,-0.183224461100075,-0.183224461100075,750,1,0
1,104,3,363,1,0,1,1,1,0.8,1,419,1,1,419,1,0,1,0.8,-1.65296372273892,-1.65296372273892,750,1,0
1,104,3,364,1,0,2,2,NaN,0.8,2,606,1,1,606,1,0,1.2,0.8,-0.305702732903313,-0.305702732903313,750,0,0
1,104,3,365,1,1,0,3,2,0.8,3,407,1,1,407,1,0,1.2,0.8,-1.73941897342356,-1.73941897342356,750,0,0
1,104,3,366,1,1,2,2,NaN,0.8,3,602,0,1,NaN,0,0,1.4,0.8,-0.334521149798192,NaN,750,0,1
1,104,3,367,2,1,1,3,3,0.6,3,561,1,1,561,1,0,1,NaN,-0.629909922970706,-0.629909922970706,750,1,0
1,104,3,368,1,0,1,4,4,0.6,2,515,0,1,NaN,1,0,1,0.8,-0.961321717261819,NaN,750,0,1
1,104,3,369,1,0,1,3,3,0.6,3,533,1,1,533,0,0,1,0.8,-0.831638841234862,-0.831638841234862,750,1,0
1,104,3,370,2,0,1,1,1,0.6,3,536,0,1,NaN,1,0,0.8,NaN,-0.810025028563702,NaN,750,0,1
1,104,3,371,1,0,0,3,2,0.6,3,468,1,1,468,1,0,1,0.6,-1.29993811577665,-1.29993811577665,750,0,0
1,104,3,372,2,1,0,2,1,0.6,2,713,1,1,713,1,0,1.2,NaN,0.465189919034711,0.465189919034711,750,0,0
1,104,3,373,1,0,1,4,4,0.8,4,706,1,1,706,1,0,1.2,0.8,0.414757689468672,0.414757689468672,750,1,0
1,104,3,374,2,0,0,2,1,0.8,2,421,1,1,421,1,0,1.2,NaN,-1.63855451429148,-1.63855451429148,750,0,0
1,104,3,375,1,1,1,3,3,0.8,3,642,1,1,642,1,0,1.6,0.6,-0.046336980849398,-0.046336980849398,750,1,0
1,104,3,376,2,1,0,4,1,0.8,4,858,1,0,858,0,0,1.4,NaN,1.50985753147409,1.50985753147409,750,0,0
1,104,3,377,1,0,2,2,NaN,0.6,3,715,0,1,NaN,1,0,1.2,0.8,0.479599127482151,NaN,750,0,1
1,104,3,378,1,0,1,3,3,0.6,3,622,1,1,622,1,0,1,0.8,-0.190429065323795,-0.190429065323795,750,1,0
1,104,3,379,2,1,1,2,2,0.6,2,448,1,1,448,1,0,1,NaN,-1.44403020025105,-1.44403020025105,750,1,0
1,104,3,380,2,1,2,1,NaN,0.8,3,741,0,1,NaN,0,0,1,NaN,0.666918837298867,NaN,750,0,1
1,104,3,381,2,1,0,4,3,0.6,3,534,0,1,NaN,0,0,0.8,NaN,-0.824434237011142,NaN,750,1,0
1,104,3,382,2,0,0,2,1,0.4,2,550,1,1,550,0,0,0.8,NaN,-0.709160569431624,-0.709160569431624,750,0,0
1,104,3,383,2,1,1,4,4,0.4,4,587,1,1,587,1,0,0.6,NaN,-0.44259021315399,-0.44259021315399,750,1,0
1,104,3,384,2,0,0,3,1,0.4,3,677,1,1,677,0,0,0.8,NaN,0.205824166980797,0.205824166980797,750,0,0
1,104,3,385,2,0,2,1,NaN,0.4,2,575,0,1,NaN,1,0,0.4,NaN,-0.529045463838628,NaN,750,0,1
1,104,3,386,1,1,0,3,1,0.4,2,559,0,1,NaN,0,0,0.8,0.6,-0.644319131418145,NaN,750,0,1
1,104,3,387,2,0,0,1,2,0.4,2,666,0,1,NaN,0,0,0.8,NaN,0.126573520519878,NaN,750,1,0
1,104,3,388,1,0,2,3,NaN,0.4,3,421,1,1,421,0,0,0.8,0.8,-1.63855451429148,-1.63855451429148,750,0,0
1,104,3,389,1,0,1,2,2,0.4,2,589,1,1,589,1,0,0.4,0.8,-0.42818100470655,-0.42818100470655,750,1,0
1,104,3,390,2,0,0,1,4,0.4,3,526,0,1,NaN,0,0,0.6,NaN,-0.882071070800901,NaN,750,0,1
1,104,3,391,2,0,1,2,2,0.4,2,691,1,1,691,1,0,0.2,NaN,0.306688626112875,0.306688626112875,750,1,0
1,104,3,392,1,1,0,4,1,0.4,1,571,0,1,NaN,0,0,0.6,0.4,-0.557863880733507,NaN,750,1,0
1,104,3,393,1,1,2,3,NaN,0.2,3,769,1,0,769,0,0,0.6,0.4,0.868647755563023,0.868647755563023,750,0,0
1,104,3,394,1,1,1,1,1,0.2,1,578,1,1,578,1,0,0.6,0.2,-0.507431651167468,-0.507431651167468,750,1,0
1,104,3,395,1,0,0,2,3,0.4,2,561,1,1,561,1,0,0.6,0.8,-0.629909922970706,-0.629909922970706,750,0,0
1,104,3,396,1,1,2,1,NaN,0.4,2,665,0,1,NaN,0,0,0.8,0.4,0.119368916296159,NaN,750,0,1
1,104,3,397,1,0,0,4,2,0.2,3,558,0,1,NaN,0,0,0.4,0.8,-0.651523735641865,NaN,750,0,1
1,104,3,398,2,1,1,1,1,0.2,3,498,0,1,NaN,0,0,0.4,NaN,-1.08379998906506,NaN,750,0,1
1,104,3,399,1,1,2,4,NaN,0.2,4,535,1,1,535,1,0,0.4,0.2,-0.817229632787422,-0.817229632787422,750,0,0
1,104,3,400,2,0,0,2,3,0.4,3,689,0,1,NaN,1,0,0.4,NaN,0.292279417665435,NaN,750,1,0
1,104,3,401,1,1,1,1,1,0.4,3,494,0,1,NaN,0,0,0.6,0.4,-1.11261840595994,NaN,750,0,1
1,104,3,402,2,0,0,2,3,0.4,2,645,1,1,645,0,0,0.6,NaN,-0.0247231681782384,-0.0247231681782384,750,0,0
1,104,3,403,1,0,2,4,NaN,0.4,4,509,1,1,509,0,0,0.6,0.6,-1.00454934260414,-1.00454934260414,750,0,0
1,104,3,404,2,0,1,3,3,0.4,3,516,1,1,516,1,0,0.6,NaN,-0.954117113038099,-0.954117113038099,750,1,0
1,104,3,405,2,1,2,2,NaN,0.4,2,658,1,1,658,1,0,0.8,NaN,0.0689366867301196,0.0689366867301196,750,0,0
1,104,3,406,1,1,1,4,4,0.4,4,406,1,1,406,1,0,0.8,0.4,-1.74662357764728,-1.74662357764728,750,1,0
1,104,3,407,1,1,1,3,3,0.6,3,552,1,1,552,1,0,1,0.6,-0.694751360984184,-0.694751360984184,750,1,0
1,104,3,408,1,1,2,4,NaN,0.8,4,510,1,1,510,1,0,1.2,0.6,-0.997344738380418,-0.997344738380418,750,0,0
1,104,3,409,1,1,0,1,3,0.8,3,612,0,1,NaN,0,0,1.4,0.8,-0.262475107560993,NaN,750,1,0
1,104,3,410,2,1,0,4,1,0.8,1,966,0,0,NaN,0,0,1,NaN,2.28795478763583,NaN,750,1,0
1,104,3,411,1,1,1,3,3,0.6,3,524,1,1,524,1,0,0.6,0.6,-0.89648027924834,-0.89648027924834,750,1,0
1,104,3,412,2,1,2,4,NaN,0.6,4,355,1,1,355,1,0,0.6,NaN,-2.11405839305699,-2.11405839305699,750,0,0
1,104,3,413,1,0,1,1,1,0.6,1,520,1,1,520,0,0,0.8,0.4,-0.92529869614322,-0.92529869614322,750,1,0
1,104,3,414,1,0,2,2,NaN,0.6,2,702,1,1,702,1,0,0.6,0.4,0.385939272573793,0.385939272573793,750,0,0
1,104,3,415,1,0,1,1,1,0.6,1,562,1,1,562,1,0,0.8,0.4,-0.622705318746986,-0.622705318746986,750,1,0
1,104,3,416,2,0,2,3,NaN,0.6,3,552,1,1,552,1,0,1,NaN,-0.694751360984184,-0.694751360984184,750,0,0
1,104,3,417,1,1,0,4,3,0.6,NaN,NaN,0,0,NaN,0,1,1.2,0.8,NaN,NaN,750,0,1
1,104,3,418,1,1,0,3,2,0.4,NaN,NaN,0,0,NaN,0,1,0.8,0.6,NaN,NaN,750,0,1
1,104,3,419,1,0,0,2,1,0.4,3,805,0,0,NaN,0,0,0.8,0.4,1.12801350761694,NaN,750,0,1
1,104,3,420,2,0,2,3,NaN,0.4,4,440,0,1,NaN,1,0,0.6,NaN,-1.50166703404081,NaN,750,0,1
1,104,3,421,2,0,1,1,1,0.4,2,605,0,1,NaN,1,0,0.8,NaN,-0.312907337127032,NaN,750,0,1
1,104,3,422,1,1,2,3,NaN,0.4,4,453,0,1,NaN,0,0,0.8,0.4,-1.40800717913245,NaN,750,0,1
1,104,3,423,2,0,1,4,4,0.4,3,524,0,1,NaN,1,0,0.8,NaN,-0.89648027924834,NaN,750,0,1
1,104,3,424,1,1,0,2,1,0.4,3,758,0,0,NaN,0,0,1.2,0.2,0.789397109102104,NaN,750,0,1
1,104,3,425,1,1,0,3,2,0.2,2,641,0,1,NaN,0,0,1.2,0.2,-0.0535415850731178,NaN,750,1,0
1,104,3,426,2,1,2,4,NaN,0,4,412,1,1,412,1,0,0.8,NaN,-1.70339595230496,-1.70339595230496,750,0,0
1,104,3,427,1,0,1,1,1,0.2,1,580,1,1,580,0,0,0.8,0.4,-0.493022442720029,-0.493022442720029,750,1,0
1,104,3,428,1,0,2,3,NaN,0.2,3,487,1,1,487,0,0,0.8,0.4,-1.16305063552597,-1.16305063552597,750,0,0
1,104,3,429,2,1,1,1,1,0.2,3,441,0,1,NaN,0,0,0.4,NaN,-1.49446242981709,NaN,750,0,1
1,104,3,430,1,0,1,3,3,0.2,3,759,1,0,759,0,0,0.4,0.4,0.796601713325824,0.796601713325824,750,1,0
1,104,3,431,1,0,2,4,NaN,0.2,4,564,1,1,564,0,0,0.4,0.2,-0.608296110299546,-0.608296110299546,750,0,0
1,104,3,432,2,1,0,1,2,0.2,2,674,0,1,NaN,0,0,0,NaN,0.184210354309637,NaN,750,1,0
1,104,3,433,1,0,0,4,1,0.2,1,590,0,1,NaN,1,0,0,0,-0.42097640048283,NaN,750,1,0
1,104,3,434,2,0,1,2,2,0.2,2,560,1,1,560,0,0,0.2,NaN,-0.637114527194426,-0.637114527194426,750,1,0
1,104,3,435,1,1,1,3,3,0.2,3,460,1,1,460,1,0,0.2,0,-1.35757494956641,-1.35757494956641,750,1,0
1,104,3,436,1,0,1,1,1,0.4,2,677,0,1,NaN,0,0,0.4,0.2,0.205824166980797,NaN,750,0,1
1,104,3,437,1,1,2,3,NaN,0.4,4,497,0,1,NaN,0,0,0.4,0.2,-1.09100459328878,NaN,750,0,1
1,104,3,438,1,0,1,2,2,0.4,3,664,0,1,NaN,0,0,0.4,0.2,0.112164312072439,NaN,750,0,1
1,104,3,439,1,0,1,4,4,0.4,4,482,1,1,482,1,0,0.2,0.2,-1.19907365664457,-1.19907365664457,750,1,0
1,104,3,440,1,1,0,3,1,0.4,2,968,0,0,NaN,0,0,0.4,0.2,2.30236399608327,NaN,750,0,1
1,104,3,441,1,0,0,1,3,0.2,3,857,0,0,NaN,0,0,0.2,0.4,1.50265292725037,NaN,750,1,0
1,104,3,442,2,1,1,2,2,0.2,2,713,1,1,713,1,0,0.2,NaN,0.465189919034711,0.465189919034711,750,1,0
1,104,3,443,2,1,2,3,NaN,0.4,3,545,1,1,545,1,0,0.6,NaN,-0.745183590550223,-0.745183590550223,750,0,0
1,104,3,444,2,1,1,2,2,0.6,2,763,1,0,763,0,0,1,NaN,0.825420130220704,0.825420130220704,750,1,0
1,104,3,445,2,1,2,1,NaN,0.4,1,774,1,0,774,0,0,0.8,NaN,0.904670776681622,0.904670776681622,750,0,0
1,104,3,446,1,1,1,3,3,0.4,3,595,1,1,595,1,0,0.8,0.2,-0.384953379364231,-0.384953379364231,750,1,0
1,104,3,447,1,1,2,4,NaN,0.6,2,759,0,0,NaN,0,0,1,0.4,0.796601713325824,NaN,750,0,1
1,104,3,448,1,1,1,2,2,0.4,2,843,1,0,843,0,0,0.6,0.4,1.40178846811829,1.40178846811829,750,1,0
1,104,3,449,2,0,0,3,1,0.2,3,569,1,1,569,0,0,0.2,NaN,-0.572273089180947,-0.572273089180947,750,0,0
1,104,3,450,1,0,2,2,NaN,0.2,4,542,0,1,NaN,0,0,0.2,0.4,-0.766797403221383,NaN,750,0,1
1,104,4,451,2,1,0,1,2,0.2,NaN,NaN,0,0,NaN,0,1,0.2,NaN,NaN,NaN,750,0,1
1,104,4,452,1,1,2,2,NaN,0.2,2,782,1,0,782,0,0,0,0.2,0.962307610471381,0.962307610471381,750,0,0
1,104,4,453,1,1,1,4,4,0.2,4,359,1,1,359,1,0,0,0.2,-2.08523997616212,-2.08523997616212,750,1,0
1,104,4,454,1,0,0,3,1,0.2,1,690,0,1,NaN,0,0,0.2,0.2,0.299484021889155,NaN,750,1,0
1,104,4,455,2,1,1,2,2,0.2,3,529,0,1,NaN,0,0,0.2,NaN,-0.860457258129741,NaN,750,0,1
1,104,4,456,2,1,1,3,3,0.2,3,534,1,1,534,1,0,0.2,NaN,-0.824434237011142,-0.824434237011142,750,1,0
1,104,4,457,2,0,1,1,1,0.4,1,652,1,1,652,1,0,0.6,NaN,0.0257090613878005,0.0257090613878005,750,1,0
1,104,4,458,2,1,0,2,4,0.4,2,859,1,0,859,0,0,1,NaN,1.51706213569781,1.51706213569781,750,0,0
1,104,4,459,1,0,0,4,3,0.4,3,547,0,1,NaN,0,0,0.8,0.2,-0.730774382102784,NaN,750,1,0
1,104,4,460,2,0,2,3,NaN,0.4,4,509,0,1,NaN,1,0,0.8,NaN,-1.00454934260414,NaN,750,0,1
1,104,4,461,2,0,1,4,4,0.4,4,438,1,1,438,1,0,1.2,NaN,-1.51607624248825,-1.51607624248825,750,1,0
1,104,4,462,2,1,2,1,NaN,0.4,3,675,0,1,NaN,0,0,1.2,NaN,0.191414958533357,NaN,750,0,1
1,104,4,463,1,1,0,2,4,0.4,3,847,0,0,NaN,0,0,0.8,0.4,1.43060688501317,NaN,750,0,1
1,104,4,464,2,1,0,3,2,0.2,3,981,1,0,981,0,0,0.8,NaN,2.39602385099163,2.39602385099163,750,0,0
1,104,4,465,1,1,2,1,NaN,0.2,1,684,1,1,684,1,0,0.8,0.2,0.256256396546836,0.256256396546836,750,0,0
1,104,4,466,1,1,0,3,4,0.2,NaN,NaN,0,0,NaN,0,1,0.6,0.4,NaN,NaN,750,0,1
1,104,4,467,2,1,2,4,NaN,0.2,4,483,1,1,483,1,0,0.2,NaN,-1.19186905242085,-1.19186905242085,750,0,0
1,104,4,468,2,0,1,3,3,0.4,3,575,1,1,575,0,0,0.6,NaN,-0.529045463838628,-0.529045463838628,750,1,0
1,104,4,469,1,1,2,4,NaN,0.4,3,625,0,1,NaN,0,0,0.6,0.4,-0.168815252652635,NaN,750,0,1
1,104,4,470,2,1,1,3,3,0.4,3,703,1,1,703,1,0,0.6,NaN,0.393143876797513,0.393143876797513,750,1,0
1,104,4,471,1,1,2,2,NaN,0.6,4,505,0,1,NaN,0,0,0.8,0.4,-1.03336775949902,NaN,750,0,1
1,104,4,472,2,1,0,3,4,0.4,3,626,1,1,626,1,0,0.8,NaN,-0.161610648428916,-0.161610648428916,750,0,0
1,104,4,473,1,0,0,4,3,0.6,3,656,0,1,NaN,1,0,0.8,0.2,0.0545274782826799,NaN,750,1,0
1,104,4,474,1,0,0,3,4,0.6,4,536,0,1,NaN,0,0,1,0.2,-0.810025028563702,NaN,750,1,0
1,104,4,475,1,0,0,4,1,0.6,3,556,0,1,NaN,1,0,1,0.2,-0.665932944089305,NaN,750,0,1
1,104,4,476,1,1,0,1,4,0.6,3,615,0,1,NaN,0,0,0.8,0.2,-0.240861294889834,NaN,750,0,1
1,104,4,477,2,1,1,3,3,0.4,3,915,1,0,915,0,0,0.8,NaN,1.92051997222612,1.92051997222612,750,1,0
1,104,4,478,1,0,0,4,2,0.4,4,509,1,1,509,0,0,0.4,0.4,-1.00454934260414,-1.00454934260414,750,0,0
1,104,4,479,2,1,1,3,3,0.4,3,628,1,1,628,1,0,0.2,NaN,-0.147201439981476,-0.147201439981476,750,1,0
1,104,4,480,1,0,1,1,1,0.4,1,727,1,1,727,0,0,0.6,0.4,0.566054378166789,0.566054378166789,750,1,0
1,104,4,481,1,1,1,4,4,0.4,3,410,0,1,NaN,0,0,0.4,0.2,-1.7178051607524,NaN,750,0,1
1,104,4,482,1,1,1,1,1,0.4,1,726,1,1,726,1,0,0.4,0,0.558849773943069,0.558849773943069,750,1,0
1,104,4,483,1,0,2,4,NaN,0.4,4,470,1,1,470,0,0,0.6,0.4,-1.28552890732921,-1.28552890732921,750,0,0
1,104,4,484,1,1,0,2,1,0.4,3,467,0,1,NaN,0,0,0.6,0.2,-1.30714272000037,NaN,750,0,1
1,104,4,485,2,1,1,4,4,0.4,4,415,1,1,415,1,0,0.2,NaN,-1.6817821396338,-1.6817821396338,750,1,0
1,104,4,486,2,1,0,3,2,0.6,3,964,1,0,964,0,0,0.6,NaN,2.27354557918839,2.27354557918839,750,0,0
1,104,4,487,1,0,0,4,1,0.4,1,836,0,0,NaN,0,0,0.6,0.2,1.35135623855225,NaN,750,1,0
1,104,4,488,1,0,0,3,4,0.4,3,525,1,1,525,0,0,0.4,0.2,-0.88927567502462,-0.88927567502462,750,0,0
1,104,4,489,2,1,2,2,NaN,0.4,1,901,0,0,NaN,0,0,0.4,NaN,1.81965551309404,NaN,750,0,1
1,104,4,490,2,0,0,4,1,0.4,2,649,0,1,NaN,1,0,0.4,NaN,0.00409524871664096,NaN,750,0,1
1,104,4,491,1,0,0,1,4,0.4,4,698,0,1,NaN,1,0,0.4,0,0.357120855678914,NaN,750,1,0
1,104,4,492,1,0,1,2,2,0.4,2,744,1,1,744,0,0,0.6,0.2,0.688532649970027,0.688532649970027,750,1,0
1,104,4,493,1,1,2,1,NaN,0.4,1,604,1,1,604,1,0,0.6,0.2,-0.320111941350752,-0.320111941350752,750,0,0
1,104,4,494,1,1,1,4,4,0.4,3,639,0,1,NaN,0,0,0.8,0.4,-0.0679507935205575,NaN,750,0,1
1,104,4,495,2,0,0,2,3,0.4,3,534,0,1,NaN,1,0,0.8,NaN,-0.824434237011142,NaN,750,1,0
1,104,4,496,1,1,2,4,NaN,0.4,4,782,1,0,782,0,0,0.8,0.4,0.962307610471381,0.962307610471381,750,0,0
1,104,4,497,1,1,1,3,3,0.2,NaN,NaN,0,0,NaN,0,1,0.6,0.4,NaN,NaN,750,0,1
1,104,4,498,2,0,2,1,NaN,0.2,1,814,1,0,814,0,0,0.6,NaN,1.19285494563042,1.19285494563042,750,0,0
1,104,4,499,1,1,0,2,3,0.2,2,747,1,1,747,1,0,0.4,0.2,0.710146462641186,0.710146462641186,750,0,0
1,104,4,500,2,1,1,4,4,0.4,4,419,1,1,419,1,0,0.6,NaN,-1.65296372273892,-1.65296372273892,750,1,0
1,104,4,501,2,0,0,2,1,0.4,1,790,0,0,NaN,0,0,0.6,NaN,1.01994444426114,NaN,750,1,0
1,104,4,502,2,1,1,3,3,0.4,3,467,1,1,467,1,0,0.6,NaN,-1.30714272000037,-1.30714272000037,750,1,0
1,104,4,503,2,0,0,2,1,0.6,3,676,0,1,NaN,1,0,1,NaN,0.198619562757077,NaN,750,0,1
1,104,4,504,2,0,2,1,NaN,0.6,1,549,1,1,549,1,0,1.4,NaN,-0.716365173655344,-0.716365173655344,750,0,0
1,104,4,505,2,1,0,3,2,0.6,2,716,0,1,NaN,0,0,1.6,NaN,0.486803731705871,NaN,750,1,0
1,104,4,506,1,1,2,2,NaN,0.6,NaN,NaN,0,0,NaN,0,1,1.2,0.4,NaN,NaN,750,0,1
1,104,4,507,1,0,1,3,3,0.6,3,637,1,1,637,1,0,1.2,0.2,-0.0823600019679972,-0.0823600019679972,750,1,0
1,104,4,508,2,0,0,4,2,0.6,3,572,0,1,NaN,0,0,1,NaN,-0.550659276509787,NaN,750,0,1
1,104,4,509,2,0,0,3,1,0.6,3,599,1,1,599,1,0,0.6,NaN,-0.356134962469352,-0.356134962469352,750,0,0
1,104,4,510,1,1,2,1,NaN,0.6,1,575,1,1,575,1,0,0.6,0.2,-0.529045463838628,-0.529045463838628,750,0,0
1,104,4,511,1,0,1,3,3,0.6,3,635,1,1,635,1,0,0.8,0.4,-0.0967692104154369,-0.0967692104154369,750,1,0
1,104,4,512,2,1,2,2,NaN,0.6,2,666,1,1,666,1,0,1,NaN,0.126573520519878,0.126573520519878,750,0,0
1,104,4,513,2,0,0,3,2,0.6,3,651,1,1,651,1,0,1.2,NaN,0.0185044571640807,0.0185044571640807,750,0,0
1,104,4,514,2,0,2,4,NaN,0.6,4,410,1,1,410,0,0,1.6,NaN,-1.7178051607524,-1.7178051607524,750,0,0
1,104,4,515,2,0,0,1,2,0.6,3,583,0,1,NaN,1,0,1.2,NaN,-0.471408630048869,NaN,750,0,1
1,104,4,516,2,1,1,3,3,0.6,2,596,0,1,NaN,0,0,1.4,NaN,-0.377748775140511,NaN,750,0,1
1,104,4,517,1,1,1,4,4,0.4,4,465,1,1,465,1,0,1.2,0.4,-1.32155192844781,-1.32155192844781,750,1,0
1,104,4,518,1,1,2,2,NaN,0.6,3,625,0,1,NaN,0,0,1,0.6,-0.168815252652635,NaN,750,0,1
1,104,4,519,2,1,1,1,1,0.6,1,515,1,1,515,1,0,0.6,NaN,-0.961321717261819,-0.961321717261819,750,1,0
1,104,4,520,1,1,2,3,NaN,0.6,4,532,0,1,NaN,0,0,1,0.6,-0.838843445458581,NaN,750,0,1
1,104,4,521,2,1,1,1,1,0.4,1,497,1,1,497,1,0,0.6,NaN,-1.09100459328878,-1.09100459328878,750,1,0
1,104,4,522,1,1,2,2,NaN,0.6,2,581,1,1,581,1,0,1,0.4,-0.485817838496309,-0.485817838496309,750,0,0
1,104,4,523,1,1,1,1,1,0.6,1,571,1,1,571,1,0,1,0.6,-0.557863880733507,-0.557863880733507,750,1,0
1,104,4,524,2,0,0,3,2,0.8,2,747,0,1,NaN,1,0,1.2,NaN,0.710146462641186,NaN,750,1,0
1,104,4,525,1,1,2,1,NaN,0.8,1,504,1,1,504,1,0,1.2,0.6,-1.04057236372274,-1.04057236372274,750,0,0
1,104,4,526,1,0,1,4,4,0.8,4,561,1,1,561,1,0,1.4,0.6,-0.629909922970706,-0.629909922970706,750,1,0
1,104,4,527,2,0,0,3,2,0.8,2,913,0,0,NaN,1,0,1.2,NaN,1.90611076377868,NaN,750,1,0
1,104,4,528,2,0,2,4,NaN,0.8,4,509,1,1,509,1,0,1.4,NaN,-1.00454934260414,-1.00454934260414,750,0,0
1,104,4,529,2,0,1,1,1,0.8,1,508,1,1,508,1,0,1.6,NaN,-1.01175394682786,-1.01175394682786,750,1,0
1,104,4,530,2,0,0,4,2,0.8,3,720,0,1,NaN,1,0,1.6,NaN,0.51562214860075,NaN,750,0,1
1,104,4,531,1,0,1,1,1,0.8,1,467,1,1,467,1,0,1.8,0.8,-1.30714272000037,-1.30714272000037,750,1,0
1,104,4,532,1,0,0,3,2,0.8,2,674,0,1,NaN,1,0,1.8,0.8,0.184210354309637,NaN,750,1,0
1,104,4,533,2,1,0,2,4,0.8,1,583,0,1,NaN,0,0,1.6,NaN,-0.471408630048869,NaN,750,0,1
1,104,4,534,2,0,0,3,1,0.8,1,530,0,1,NaN,1,0,1.2,NaN,-0.853252653906021,NaN,750,1,0
1,104,4,535,2,1,1,4,4,0.8,4,454,1,1,454,1,0,1.2,NaN,-1.40080257490873,-1.40080257490873,750,1,0
1,104,4,536,1,1,1,1,1,0.8,1,435,1,1,435,1,0,1.2,0.6,-1.53769005515941,-1.53769005515941,750,1,0
1,104,4,537,2,0,1,2,2,0.8,2,528,1,1,528,0,0,1.2,NaN,-0.867661862353461,-0.867661862353461,750,1,0
1,104,4,538,2,0,2,3,NaN,0.8,4,527,0,1,NaN,0,0,1,NaN,-0.874866466577181,NaN,750,0,1
1,104,4,539,1,0,1,2,2,0.8,2,635,1,1,635,0,0,1,1,-0.0967692104154369,-0.0967692104154369,750,1,0
1,104,4,540,2,0,0,4,3,0.8,4,601,1,1,601,1,0,0.6,NaN,-0.341725754021912,-0.341725754021912,750,0,0
1,104,4,541,2,1,0,2,4,0.8,3,603,0,1,NaN,0,0,0.6,NaN,-0.327316545574472,NaN,750,0,1
1,104,4,542,2,1,0,1,3,0.6,1,740,1,1,740,1,0,0.4,NaN,0.659714233075147,0.659714233075147,750,0,0
1,104,4,543,2,0,0,3,1,0.6,1,602,0,1,NaN,1,0,0.8,NaN,-0.334521149798192,NaN,750,1,0
1,104,4,544,2,1,0,1,3,0.6,2,612,0,1,NaN,0,0,1.2,NaN,-0.262475107560993,NaN,750,0,1
1,104,4,545,2,1,1,2,2,0.6,2,609,1,1,609,1,0,1.2,NaN,-0.284088920232153,-0.284088920232153,750,1,0
1,104,4,546,1,1,0,1,4,0.6,1,841,1,0,841,0,0,1.2,0.8,1.38737925967085,1.38737925967085,750,0,0
1,104,4,547,2,1,1,2,2,0.4,2,544,1,1,544,1,0,1.2,NaN,-0.752388194773943,-0.752388194773943,750,1,0
1,104,4,548,1,1,2,4,NaN,0.6,4,399,1,1,399,1,0,1.2,0.8,-1.79705580721332,-1.79705580721332,750,0,0
1,104,4,549,2,1,1,3,3,0.6,3,707,1,1,707,1,0,1,NaN,0.421962293692392,0.421962293692392,750,1,0
1,104,4,550,2,0,0,2,4,0.8,4,500,0,1,NaN,1,0,1.4,NaN,-1.06939078061762,NaN,750,1,0
1,104,4,551,2,1,0,4,3,0.8,4,819,1,0,819,0,0,1.4,NaN,1.22887796674902,1.22887796674902,750,0,0
1,104,4,552,1,0,0,1,2,0.6,2,565,0,1,NaN,1,0,1.4,0.8,-0.601091506075826,NaN,750,1,0
1,104,4,553,1,0,2,2,NaN,0.6,3,926,0,0,NaN,0,0,1.2,0.8,1.99977061868704,NaN,750,0,1
1,104,4,554,2,1,1,3,3,0.6,3,715,1,1,715,1,0,1,NaN,0.479599127482151,0.479599127482151,750,1,0
1,104,4,555,2,0,0,4,1,0.8,1,501,0,1,NaN,0,0,1,NaN,-1.0621861763939,NaN,750,1,0
1,104,4,556,1,0,1,3,3,0.8,3,726,1,1,726,1,0,0.6,0.6,0.558849773943069,0.558849773943069,750,1,0
1,104,4,557,2,1,0,2,4,0.8,3,542,0,1,NaN,0,0,0.8,NaN,-0.766797403221383,NaN,750,0,1
1,104,4,558,1,1,2,4,NaN,0.6,4,302,1,1,302,1,0,0.6,0.8,-2.49590241691415,-2.49590241691415,750,0,0
1,104,4,559,2,1,0,1,2,0.6,2,529,0,1,NaN,0,0,0.8,NaN,-0.860457258129741,NaN,750,1,0
1,104,4,560,1,0,0,3,4,0.4,4,606,0,1,NaN,0,0,0.4,0.6,-0.305702732903313,NaN,750,1,0
1,104,4,561,1,1,2,4,NaN,0.4,4,558,1,1,558,1,0,0.4,0.8,-0.651523735641865,-0.651523735641865,750,0,0
1,104,4,562,1,1,0,3,4,0.6,4,804,0,0,NaN,0,0,0.4,0.8,1.12080890339322,NaN,750,1,0
1,104,4,563,2,0,0,1,2,0.4,2,671,0,1,NaN,0,0,0.4,NaN,0.162596541638478,NaN,750,1,0
1,104,4,564,1,0,0,4,3,0.4,4,532,1,1,532,0,0,0.2,0.4,-0.838843445458581,-0.838843445458581,750,0,0
1,104,4,565,1,0,0,2,4,0.4,2,695,1,1,695,0,0,0.2,0.4,0.335507043007754,0.335507043007754,750,0,0
1,104,4,566,2,1,0,1,2,0.4,1,571,1,1,571,1,0,0.2,NaN,-0.557863880733507,-0.557863880733507,750,0,0
1,104,4,567,1,1,2,3,NaN,0.6,3,445,1,1,445,1,0,0.4,0.6,-1.46564401292221,-1.46564401292221,750,0,0
1,104,4,568,2,0,0,4,3,0.6,4,465,1,1,465,0,0,0.6,NaN,-1.32155192844781,-1.32155192844781,750,0,0
1,104,4,569,1,0,2,3,NaN,0.6,4,699,0,1,NaN,1,0,0.6,0.2,0.364325459902633,NaN,750,0,1
1,104,4,570,1,1,0,2,3,0.6,3,638,0,1,NaN,0,0,0.8,0.8,-0.0751553977442774,NaN,750,1,0
1,104,4,571,1,0,1,4,4,0.6,4,357,1,1,357,0,0,0.8,0.4,-2.09964918460956,-2.09964918460956,750,1,0
1,104,4,572,1,1,2,1,NaN,0.6,1,673,1,1,673,1,0,0.4,0.6,0.177005750085917,0.177005750085917,750,0,0
1,104,4,573,1,1,0,2,3,0.6,3,834,0,0,NaN,0,0,0.4,0.6,1.33694703010481,NaN,750,1,0
1,104,4,574,2,1,2,1,NaN,0.6,1,588,1,1,588,1,0,0.4,NaN,-0.43538560893027,-0.43538560893027,750,0,0
1,104,4,575,2,0,1,2,2,0.6,2,725,1,1,725,1,0,0.6,NaN,0.55164516971935,0.55164516971935,750,1,0
1,104,4,576,2,0,2,1,NaN,0.6,4,484,0,1,NaN,1,0,1,NaN,-1.18466444819713,NaN,750,0,1
1,104,4,577,1,1,1,2,2,0.6,2,673,1,1,673,1,0,1.4,0.4,0.177005750085917,0.177005750085917,750,1,0
1,104,4,578,1,0,2,3,NaN,0.6,3,614,1,1,614,0,0,1.4,0.2,-0.248065899113554,-0.248065899113554,750,0,0
1,104,4,579,1,1,1,2,2,0.6,2,495,1,1,495,1,0,1.4,0.6,-1.10541380173622,-1.10541380173622,750,1,0
1,104,4,580,1,0,1,3,3,0.8,3,499,1,1,499,0,0,1.2,0.2,-1.07659538484134,-1.07659538484134,750,1,0
1,104,4,581,1,1,2,1,NaN,0.8,4,471,0,1,NaN,0,0,0.8,0.6,-1.27832430310549,NaN,750,0,1
1,104,4,582,1,1,1,3,3,0.6,3,528,1,1,528,1,0,0.4,0.6,-0.867661862353461,-0.867661862353461,750,1,0
1,104,4,583,1,0,1,4,4,0.8,4,459,1,1,459,1,0,0.4,0.2,-1.36477955379013,-1.36477955379013,750,1,0
1,104,4,584,1,1,0,1,3,0.8,3,652,0,1,NaN,0,0,0.6,0.6,0.0257090613878005,NaN,750,1,0
1,104,4,585,1,0,2,4,NaN,0.6,4,427,1,1,427,1,0,0.4,0.4,-1.59532688894917,-1.59532688894917,750,0,0
1,104,4,586,1,1,1,2,2,0.6,2,532,1,1,532,1,0,0.6,0.6,-0.838843445458581,-0.838843445458581,750,1,0
1,104,4,587,2,0,0,3,4,0.6,4,989,0,0,NaN,1,0,0.8,NaN,2.45366068478139,NaN,750,1,0
1,104,4,588,1,0,1,1,1,0.6,1,919,1,0,919,0,0,1,0.4,1.949338389121,1.949338389121,750,1,0
1,104,4,589,1,1,1,3,3,0.6,3,855,1,0,855,0,0,0.8,0.6,1.48824371880293,1.48824371880293,750,1,0
1,104,4,590,2,0,1,4,4,0.4,4,334,1,1,334,0,0,0.8,NaN,-2.26535508175511,-2.26535508175511,750,1,0
1,104,4,591,1,0,0,2,3,0.4,3,704,0,1,NaN,0,0,0.6,0.4,0.400348481021233,NaN,750,1,0
1,104,4,592,2,0,2,3,NaN,0.4,4,456,0,1,NaN,1,0,0.4,NaN,-1.38639336646129,NaN,750,0,1
1,104,4,593,2,0,1,1,1,0.4,3,496,0,1,NaN,0,0,0.4,NaN,-1.0982091975125,NaN,750,0,1
1,104,4,594,2,1,0,2,3,0.4,3,660,0,1,NaN,0,0,0.4,NaN,0.0833458951775593,NaN,750,1,0
1,104,4,595,1,1,2,1,NaN,0.4,1,628,1,1,628,1,0,0.4,0.4,-0.147201439981476,-0.147201439981476,750,0,0
1,104,4,596,1,0,1,4,4,0.4,4,315,1,1,315,1,0,0.6,0.4,-2.40224256200579,-2.40224256200579,750,1,0
1,104,4,597,1,0,0,1,2,0.4,3,643,0,1,NaN,0,0,0.8,0.6,-0.0391323766256781,NaN,750,0,1
1,104,4,598,1,1,0,3,4,0.4,3,841,1,0,841,0,0,0.4,0.6,1.38737925967085,1.38737925967085,750,0,0
1,104,4,599,2,1,2,4,NaN,0.4,4,557,1,1,557,1,0,0.4,NaN,-0.658728339865585,-0.658728339865585,750,0,0
1,104,4,600,1,0,1,3,3,0.4,3,654,1,1,654,1,0,0.8,0.4,0.0401182698352402,0.0401182698352402,750,1,0
2,104,1,1,2,0,0,4,1,0.2,1,849,0,0,NaN,0,0,0,NaN,0.614001839165858,NaN,750,1,0
2,104,1,2,2,0,2,3,NaN,0.2,NaN,NaN,0,0,NaN,0,1,0,NaN,NaN,NaN,750,0,1
2,104,1,3,2,0,1,1,1,0.2,1,631,1,1,631,1,0,0,NaN,-1.06407397140921,-1.06407397140921,750,1,0
2,104,1,4,2,0,0,3,4,0.2,NaN,NaN,0,0,NaN,0,1,0.4,NaN,NaN,NaN,750,0,1
2,104,1,5,2,1,1,1,1,0.2,1,604,1,1,604,1,0,0.4,NaN,-1.27190904886576,-1.27190904886576,750,1,0
2,104,1,6,1,1,0,2,4,0.3,NaN,NaN,0,0,NaN,0,1,0.8,0,NaN,NaN,750,0,1
2,104,1,7,1,1,0,3,2,0.3,2,968,0,0,NaN,0,0,0.8,0,1.53001569906693,NaN,750,1,0
2,104,1,8,2,0,2,2,NaN,0.3,2,982,1,0,982,1,0,0.8,NaN,1.63778203552588,1.63778203552588,750,0,0
2,104,1,9,2,1,1,4,4,0.3,1,764,0,0,NaN,0,0,0.8,NaN,-0.0402937750491929,NaN,750,0,1
2,104,1,10,2,0,1,2,2,0.3,2,996,1,0,996,1,0,0.8,NaN,1.74554837198483,1.74554837198483,750,1,0
2,104,1,11,2,1,0,3,4,0.3,3,501,1,1,501,1,0,0.8,NaN,-2.06476138138517,-2.06476138138517,750,0,0
2,104,1,12,1,1,0,1,2,0.4,1,721,1,1,721,1,0,1.2,0,-0.371290379887395,-0.371290379887395,750,0,0
2,104,1,13,1,0,2,2,NaN,0.4,2,910,1,0,910,1,0,1.4,0,1.08355516230842,1.08355516230842,750,0,0
2,104,1,14,1,0,1,1,1,0.4,1,597,1,1,597,1,0,1.2,0.2,-1.32579221709523,-1.32579221709523,750,1,0
2,104,1,15,1,1,0,2,3,0.4,NaN,NaN,0,0,NaN,0,1,1.4,0.2,NaN,NaN,750,0,1
2,104,1,16,2,1,0,3,1,0.4,NaN,NaN,0,0,NaN,0,1,1,NaN,NaN,NaN,750,0,1
2,104,1,17,2,1,1,2,2,0.4,2,595,1,1,595,1,0,0.6,NaN,-1.34118740801794,-1.34118740801794,750,1,0
2,104,1,18,2,0,0,4,3,0.6,4,960,1,0,960,0,0,0.8,NaN,1.4684349353761,1.4684349353761,750,0,0
2,104,1,19,1,0,1,2,2,0.6,2,954,1,0,954,1,0,0.6,0.4,1.42224936260798,1.42224936260798,750,1,0
2,104,1,20,1,0,0,1,3,0.6,1,936,1,0,936,1,0,0.6,0.6,1.28369264430362,1.28369264430362,750,0,0
2,104,1,21,1,1,0,3,4,0.6,3,822,1,0,822,0,0,0.8,0.2,0.406166761709312,0.406166761709312,750,0,0
2,104,1,22,1,0,0,2,1,0.4,NaN,NaN,0,0,NaN,0,1,0.8,0.8,NaN,NaN,750,0,1
2,104,1,23,2,1,1,3,3,0.4,3,733,1,1,733,1,0,0.4,NaN,-0.278919234351153,-0.278919234351153,750,1,0
2,104,1,24,2,1,2,1,NaN,0.4,1,777,1,0,777,0,0,0.8,NaN,0.0597749659484031,0.0597749659484031,750,0,0
2,104,1,25,2,0,1,2,2,0.4,2,715,1,1,715,0,0,0.6,NaN,-0.417475952655516,-0.417475952655516,750,1,0
2,104,1,26,1,1,0,4,3,0.4,3,873,0,0,NaN,0,0,0.4,0.2,0.798744130238343,NaN,750,1,0
2,104,1,27,2,0,0,3,2,0.4,4,868,0,0,NaN,1,0,0.4,NaN,0.760256152931575,NaN,750,0,1
2,104,1,28,1,1,2,1,NaN,0.4,1,750,1,1,750,0,0,0.8,0.2,-0.148060111508142,-0.148060111508142,750,0,0
2,104,1,29,1,1,1,2,2,0.2,2,750,1,1,750,0,0,0.4,0.2,-0.148060111508142,-0.148060111508142,750,1,0
2,104,1,30,1,1,0,3,1,0.2,3,830,1,0,830,0,0,0.4,0,0.467747525400141,0.467747525400141,750,0,0
2,104,1,31,1,0,2,4,NaN,0,1,627,0,1,NaN,0,0,0.4,0.8,-1.09486435325463,NaN,750,0,1
2,104,1,32,2,1,1,2,2,0,3,937,0,0,NaN,0,0,0.4,NaN,1.29139023976497,NaN,750,0,1
2,104,1,33,1,0,1,1,1,0,1,694,1,1,694,0,0,0,0.6,-0.579125457343941,-0.579125457343941,750,1,0
2,104,1,34,2,1,2,2,NaN,0,2,962,1,0,962,0,0,0,NaN,1.48383012629881,1.48383012629881,750,0,0
2,104,1,35,1,0,1,3,3,0,3,812,1,0,812,0,0,0,0.4,0.329190807095777,0.329190807095777,750,1,0
2,104,1,36,2,0,2,2,NaN,0,2,809,1,0,809,0,0,0,NaN,0.306098020711716,0.306098020711716,750,0,0
2,104,1,37,1,0,1,1,1,0,1,688,1,1,688,0,0,0,0.2,-0.625311030112062,-0.625311030112062,750,1,0
2,104,1,38,1,0,2,3,NaN,0,2,821,0,0,NaN,0,0,0,0,0.398469166247959,NaN,750,0,1
2,104,1,39,2,1,1,1,1,0,1,803,1,0,803,0,0,0,NaN,0.259912447943595,0.259912447943595,750,1,0
2,104,1,40,2,1,0,2,3,0,3,791,0,0,NaN,0,0,0,NaN,0.167541302407353,NaN,750,1,0
2,104,1,41,1,1,2,4,NaN,0,1,784,0,0,NaN,0,0,0,0,0.113658134177878,NaN,750,0,1
2,104,1,42,1,1,1,1,1,0,1,477,1,1,477,1,0,0,0,-2.24950367245766,-2.24950367245766,750,1,0
2,104,1,43,1,1,1,4,4,0.2,3,976,0,0,NaN,0,0,0.2,0.2,1.59159646275776,NaN,750,0,1
2,104,1,44,2,0,2,1,NaN,0.2,1,668,1,1,668,0,0,0.2,NaN,-0.779262939339133,-0.779262939339133,750,0,0
2,104,1,45,1,1,0,4,2,0.2,4,947,1,0,947,0,0,0.2,0.2,1.3683661943785,1.3683661943785,750,0,0
2,104,1,46,1,1,0,1,4,0.2,NaN,NaN,0,0,NaN,0,1,0.2,0.2,NaN,NaN,750,0,1
2,104,1,47,2,1,2,3,NaN,0.2,3,786,1,0,786,0,0,0.2,NaN,0.129053325100585,0.129053325100585,750,0,0
2,104,1,48,2,0,1,2,2,0.2,2,810,1,0,810,0,0,0,NaN,0.31379561617307,0.31379561617307,750,1,0
2,104,1,49,1,0,2,4,NaN,0.2,NaN,NaN,0,0,NaN,0,1,0,0,NaN,NaN,750,0,1
2,104,1,50,2,1,1,3,3,0.2,NaN,NaN,0,0,NaN,0,1,0,NaN,NaN,NaN,750,0,1
2,104,1,51,1,1,2,4,NaN,0,2,757,0,0,NaN,0,0,0,0.2,-0.0941769432786677,NaN,750,0,1
2,104,1,52,1,0,0,3,2,0,NaN,NaN,0,0,NaN,0,1,0,0,NaN,NaN,750,0,1
2,104,1,53,1,0,0,4,1,0,4,927,1,0,927,0,0,0,0,1.21441428515143,1.21441428515143,750,0,0
2,104,1,54,2,1,0,3,4,0,3,959,1,0,959,0,0,0,NaN,1.46073733991475,1.46073733991475,750,0,0
2,104,1,55,1,1,0,4,1,0,1,908,0,0,NaN,0,0,0,0.2,1.06815997138572,NaN,750,1,0
2,104,1,56,2,0,2,2,NaN,0,2,999,1,0,999,0,0,0,NaN,1.76864115836889,1.76864115836889,750,0,0
2,104,1,57,2,0,0,1,4,0,3,993,0,0,NaN,0,0,0,NaN,1.72245558560077,NaN,750,0,1
2,104,1,58,2,1,2,4,NaN,0,3,830,0,0,NaN,0,0,0,NaN,0.467747525400141,NaN,750,0,1
2,104,1,59,1,1,1,3,3,0,3,612,1,1,612,1,0,0,0,-1.21032828517493,-1.21032828517493,750,1,0
2,104,1,60,2,1,2,2,NaN,0.2,2,816,1,0,816,0,0,0.2,NaN,0.359981188941191,0.359981188941191,750,0,0
2,104,1,61,2,1,1,4,4,0.2,2,992,0,0,NaN,0,0,0.2,NaN,1.71475799013941,NaN,750,0,1
2,104,1,62,1,1,1,2,2,0.2,3,863,0,0,NaN,0,0,0.2,0.2,0.721768175624807,NaN,750,0,1
2,104,1,63,1,1,2,3,NaN,0.2,3,840,1,0,840,0,0,0.2,0.2,0.544723480013676,0.544723480013676,750,0,0
2,104,1,64,2,0,1,4,4,0.2,3,746,0,1,NaN,0,0,0.2,NaN,-0.178850493353557,NaN,750,0,1
2,104,1,65,1,0,0,1,2,0.2,NaN,NaN,0,0,NaN,1,1,0,0,NaN,NaN,750,0,1
2,104,1,66,1,1,1,4,4,0.2,3,812,0,0,NaN,0,0,0.2,0.2,0.329190807095777,NaN,750,0,1
2,104,1,67,2,0,1,3,3,0,2,731,0,1,NaN,0,0,0.2,NaN,-0.29431442527386,NaN,750,0,1
2,104,1,68,1,1,0,2,4,0,3,750,0,1,NaN,0,0,0.2,0.2,-0.148060111508142,NaN,750,0,1
2,104,1,69,1,0,0,4,3,0,NaN,NaN,0,0,NaN,0,1,0.2,0.2,NaN,NaN,750,0,1
2,104,1,70,2,0,0,3,1,0,1,846,0,0,NaN,0,0,0.2,NaN,0.590909052781797,NaN,750,1,0
2,104,1,71,1,1,2,2,NaN,0,3,777,0,0,NaN,0,0,0,0.2,0.0597749659484031,NaN,750,0,1
2,104,1,72,1,0,1,1,1,0,1,746,1,1,746,0,0,0,0.2,-0.178850493353557,-0.178850493353557,750,1,0
2,104,1,73,2,0,2,4,NaN,0,3,844,0,0,NaN,0,0,0,NaN,0.57551386185909,NaN,750,0,1
2,104,1,74,1,1,1,3,3,0,4,818,0,0,NaN,0,0,0,0,0.375376379863898,NaN,750,0,1
2,104,1,75,1,0,0,4,2,0,3,973,0,0,NaN,0,0,0,0.2,1.5685036763737,NaN,750,0,1
2,104,1,76,2,0,0,3,1,0,1,949,0,0,NaN,0,0,0,NaN,1.38376138530121,NaN,750,1,0
2,104,1,77,2,1,0,1,4,0,NaN,NaN,0,0,NaN,0,1,0,NaN,NaN,NaN,750,0,1
2,104,1,78,2,1,2,3,NaN,0,3,970,1,0,970,0,0,0,NaN,1.54541088998964,1.54541088998964,750,0,0
2,104,1,79,1,0,1,2,2,0,2,840,1,0,840,0,0,0,0.2,0.544723480013676,0.544723480013676,750,1,0
2,104,1,80,2,0,2,1,NaN,0,1,419,1,1,419,0,0,0,NaN,-2.69596420921616,-2.69596420921616,750,0,0
2,104,1,81,1,1,1,2,2,0,2,737,1,1,737,1,0,0,0,-0.248128852505738,-0.248128852505738,750,1,0
2,104,1,82,2,0,0,3,4,0.2,3,692,1,1,692,0,0,0.2,NaN,-0.594520648266648,-0.594520648266648,750,0,0
2,104,1,83,1,1,0,2,3,0.2,2,805,1,0,805,0,0,0.2,0.2,0.275307638866302,0.275307638866302,750,0,0
2,104,1,84,1,0,2,1,NaN,0.2,1,712,1,1,712,1,0,0.2,0.2,-0.440568739039577,-0.440568739039577,750,0,0
2,104,1,85,1,0,1,4,4,0.2,NaN,NaN,0,0,NaN,0,1,0.4,0.2,NaN,NaN,750,0,1
2,104,1,86,2,0,0,3,1,0.2,1,580,0,1,NaN,0,0,0.4,NaN,-1.45665133993824,NaN,750,1,0
2,104,1,87,1,0,0,1,4,0.2,1,650,1,1,650,0,0,0.2,0.2,-0.917819657643496,-0.917819657643496,750,0,0
2,104,1,88,2,1,1,3,3,0.2,3,843,1,0,843,0,0,0.2,NaN,0.567816266397737,0.567816266397737,750,1,0
2,104,1,89,2,1,0,1,4,0.2,1,690,1,1,690,1,0,0.2,NaN,-0.609915839189355,-0.609915839189355,750,0,0
2,104,1,90,2,1,2,2,NaN,0.4,2,839,1,0,839,0,0,0.4,NaN,0.537025884552322,0.537025884552322,750,0,0
2,104,1,91,2,1,1,1,1,0.4,NaN,NaN,0,0,NaN,0,1,0.4,NaN,NaN,NaN,750,0,1
2,104,1,92,1,1,0,3,2,0.2,NaN,NaN,0,0,NaN,0,1,0.4,0.2,NaN,NaN,750,0,1
2,104,1,93,2,1,2,1,NaN,0.2,1,762,1,0,762,0,0,0.4,NaN,-0.0556889659719,-0.0556889659719,750,0,0
2,104,1,94,1,0,1,4,4,0.2,3,985,0,0,NaN,0,0,0.4,0.2,1.66087482190994,NaN,750,0,1
2,104,1,95,1,0,0,2,3,0.2,NaN,NaN,0,0,NaN,0,1,0,0.2,NaN,NaN,750,0,1
2,104,1,96,2,1,2,3,NaN,0.2,NaN,NaN,0,0,NaN,0,1,0,NaN,NaN,NaN,750,0,1
2,104,1,97,1,1,1,4,4,0,4,724,1,1,724,1,0,0,0.2,-0.348197593503334,-0.348197593503334,750,1,0
2,104,1,98,1,1,1,3,3,0.2,3,812,1,0,812,0,0,0.2,0.4,0.329190807095777,0.329190807095777,750,1,0
2,104,1,99,2,0,2,2,NaN,0.2,2,943,1,0,943,0,0,0.2,NaN,1.33757581253309,1.33757581253309,750,0,0
2,104,1,100,1,1,1,3,3,0.2,1,642,0,1,NaN,0,0,0.2,0.4,-0.979400421334325,NaN,750,0,1
2,104,1,101,2,1,0,1,4,0.2,1,667,1,1,667,1,0,0.2,NaN,-0.786960534800486,-0.786960534800486,750,0,0
2,104,1,102,2,1,0,3,1,0.4,3,934,1,0,934,0,0,0.6,NaN,1.26829745338091,1.26829745338091,750,0,0
2,104,1,103,1,0,1,4,4,0.4,NaN,NaN,0,0,NaN,0,1,0.4,0.2,NaN,NaN,750,0,1
2,104,1,104,1,1,1,3,3,0.4,NaN,NaN,0,0,NaN,0,1,0.4,0.2,NaN,NaN,750,0,1
2,104,1,105,1,1,2,1,NaN,0.2,1,619,1,1,619,1,0,0.4,0.2,-1.15644511694546,-1.15644511694546,750,0,0
2,104,1,106,1,1,1,4,4,0.4,NaN,NaN,0,0,NaN,0,1,0.6,0.4,NaN,NaN,750,0,1
2,104,1,107,1,1,2,2,NaN,0.4,3,807,0,0,NaN,0,0,0.2,0.2,0.290702829789009,NaN,750,0,1
2,104,1,108,1,0,0,1,3,0.2,NaN,NaN,0,0,NaN,0,1,0.2,0,NaN,NaN,750,0,1
2,104,1,109,1,0,1,2,2,0.2,NaN,NaN,0,0,NaN,0,1,0.2,0,NaN,NaN,750,0,1
2,104,1,110,1,1,2,4,NaN,0.2,3,882,0,0,NaN,0,0,0.2,0.2,0.868022489390525,NaN,750,0,1
2,104,1,111,1,0,0,2,4,0.2,NaN,NaN,0,0,NaN,0,1,0,0,NaN,NaN,750,0,1
2,104,1,112,2,0,1,1,1,0.2,1,599,1,1,599,0,0,0,NaN,-1.31039702617253,-1.31039702617253,750,1,0
2,104,1,113,2,0,0,4,3,0.2,NaN,NaN,0,0,NaN,0,1,0,NaN,NaN,NaN,750,0,1
2,104,1,114,2,1,0,3,4,0.2,NaN,NaN,0,0,NaN,0,1,0,NaN,NaN,NaN,750,0,1
2,104,1,115,1,0,1,2,2,0.2,3,733,0,1,NaN,0,0,0,0,-0.278919234351153,NaN,750,0,1
2,104,1,116,1,1,1,3,3,0.2,2,826,0,0,NaN,0,0,0,0.2,0.436957143554726,NaN,750,0,1
2,104,1,117,1,0,2,1,NaN,0,1,579,1,1,579,0,0,0,0,-1.4643489353996,-1.4643489353996,750,0,0
2,104,1,118,1,1,0,2,4,0,3,801,0,0,NaN,0,0,0,0.2,0.244517257020888,NaN,750,0,1
2,104,1,119,1,0,0,1,2,0,1,888,1,0,888,0,0,0,0,0.914208062158646,0.914208062158646,750,0,0
2,104,1,120,2,0,0,4,3,0,3,855,0,0,NaN,0,0,0,NaN,0.660187411933979,NaN,750,1,0
2,104,1,121,2,1,1,2,2,0,2,857,1,0,857,0,0,0,NaN,0.675582602856686,0.675582602856686,750,1,0
2,104,1,122,1,0,2,3,NaN,0,NaN,NaN,0,0,NaN,0,1,0,0,NaN,NaN,750,0,1
2,104,1,123,2,0,1,1,1,0,1,699,1,1,699,0,0,0,NaN,-0.540637480037173,-0.540637480037173,750,1,0
2,104,1,124,2,0,2,2,NaN,0,2,858,1,0,858,0,0,0,NaN,0.68328019831804,0.68328019831804,750,0,0
2,104,1,125,1,1,0,1,3,0,4,801,0,0,NaN,0,0,0,0,0.244517257020888,NaN,750,0,1
2,104,1,126,1,1,1,4,4,0,NaN,NaN,0,0,NaN,0,1,0,0,NaN,NaN,750,0,1
2,104,1,127,2,0,2,1,NaN,0,1,589,1,1,589,0,0,0,NaN,-1.38737298078606,-1.38737298078606,750,0,0
2,104,1,128,1,1,1,2,2,0,2,813,1,0,813,0,0,0,0,0.33688840255713,0.33688840255713,750,1,0
2,104,1,129,1,0,2,3,NaN,0,3,884,1,0,884,0,0,0,0,0.883417680313232,0.883417680313232,750,0,0
2,104,1,130,1,0,1,4,4,0,NaN,NaN,0,0,NaN,0,1,0,0,NaN,NaN,750,0,1
2,104,1,131,2,0,2,2,NaN,0,1,968,0,0,NaN,0,0,0,NaN,1.53001569906693,NaN,750,0,1
2,104,1,132,2,0,0,4,2,0,NaN,NaN,0,0,NaN,0,1,0,NaN,NaN,NaN,750,0,1
2,104,1,133,1,0,1,3,3,0,3,743,1,1,743,0,0,0,0,-0.201943279737617,-0.201943279737617,750,1,0
2,104,1,134,2,0,2,4,NaN,0,2,903,0,0,NaN,0,0,0,NaN,1.02967199407895,NaN,750,0,1
2,104,1,135,1,0,1,1,1,0,1,735,1,1,735,0,0,0,0,-0.263524043428446,-0.263524043428446,750,1,0
2,104,1,136,1,1,2,3,NaN,0,NaN,NaN,0,0,NaN,0,1,0,0,NaN,NaN,750,0,1
2,104,1,137,2,1,1,4,4,0,3,996,0,0,NaN,0,0,0,NaN,1.74554837198483,NaN,750,0,1
2,104,1,138,1,0,1,2,2,0,2,818,1,0,818,0,0,0,0,0.375376379863898,0.375376379863898,750,1,0
2,104,1,139,1,1,0,1,4,0,1,956,1,0,956,0,0,0,0,1.43764455353069,1.43764455353069,750,0,0
2,104,1,140,2,0,2,3,NaN,0,NaN,NaN,0,0,NaN,0,1,0,NaN,NaN,NaN,750,0,1
2,104,1,141,1,0,1,1,1,0,1,672,1,1,672,0,0,0,0,-0.748472557493718,-0.748472557493718,750,1,0
2,104,1,142,1,1,0,2,4,0,2,515,1,1,515,1,0,0,0,-1.95699504492622,-1.95699504492622,750,0,0
2,104,1,143,2,0,0,4,3,0.2,4,433,1,1,433,0,0,0.2,NaN,-2.58819787275721,-2.58819787275721,750,0,0
2,104,1,144,2,0,2,2,NaN,0.2,NaN,NaN,0,0,NaN,0,1,0.2,NaN,NaN,NaN,750,0,1
2,104,1,145,1,0,1,1,1,0.2,1,666,1,1,666,0,0,0.2,0,-0.79465813026184,-0.79465813026184,750,1,0
2,104,1,146,2,0,1,4,4,0.2,1,886,0,0,NaN,0,0,0.2,NaN,0.898812871235939,NaN,750,0,1
2,104,1,147,2,1,1,3,3,0.2,NaN,NaN,0,0,NaN,0,1,0.2,NaN,NaN,NaN,750,0,1
2,104,1,148,1,0,2,4,NaN,0.2,2,849,0,0,NaN,0,0,0,0,0.614001839165858,NaN,750,0,1
2,104,1,149,2,0,1,1,1,0.2,1,681,1,1,681,0,0,0,NaN,-0.679194198341537,-0.679194198341537,750,1,0
2,104,1,150,1,1,2,3,NaN,0.2,3,902,1,0,902,0,0,0,0.2,1.0219743986176,1.0219743986176,750,0,0
2,104,2,151,1,1,0,1,2,0.2,NaN,NaN,0,0,NaN,0,1,0,0.2,NaN,NaN,750,0,1
2,104,2,152,2,0,2,2,NaN,0.2,2,801,1,0,801,0,0,0,NaN,0.244517257020888,0.244517257020888,750,0,0
2,104,2,153,1,1,1,3,3,0.2,3,411,1,1,411,1,0,0,0.2,-2.75754497290699,-2.75754497290699,750,1,0
2,104,2,154,1,0,1,4,4,0.4,4,336,1,1,336,0,0,0.2,0,-3.33486463250851,-3.33486463250851,750,1,0
2,104,2,155,2,0,1,2,2,0.4,2,570,1,1,570,0,0,0.2,NaN,-1.53362729455178,-1.53362729455178,750,1,0
2,104,2,156,2,0,0,4,3,0.4,4,652,1,1,652,1,0,0.2,NaN,-0.902424466720789,-0.902424466720789,750,0,0
2,104,2,157,2,0,2,2,NaN,0.4,2,593,1,1,593,0,0,0.6,NaN,-1.35658259894065,-1.35658259894065,750,0,0
2,104,2,158,1,1,1,1,1,0.4,1,588,1,1,588,1,0,0.6,0.4,-1.39507057624742,-1.39507057624742,750,1,0
2,104,2,159,2,0,0,3,4,0.4,3,835,1,0,835,0,0,0.6,NaN,0.506235502706908,0.506235502706908,750,0,0
2,104,2,160,2,0,1,2,2,0.4,2,754,1,0,754,1,0,0.6,NaN,-0.117269729662728,-0.117269729662728,750,1,0
2,104,2,161,1,1,2,3,NaN,0.4,2,920,0,0,NaN,0,0,1,0.6,1.16053111692196,NaN,750,0,1
2,104,2,162,1,0,1,4,4,0.4,3,863,0,0,NaN,0,0,0.6,0,0.721768175624807,NaN,750,0,1
2,104,2,163,1,0,1,1,1,0.4,1,686,1,1,686,0,0,0.6,0,-0.640706221034769,-0.640706221034769,750,1,0
2,104,2,164,2,1,0,2,3,0.4,NaN,NaN,0,0,NaN,0,1,0.4,NaN,NaN,NaN,750,0,1
2,104,2,165,1,0,2,3,NaN,0.4,3,838,1,0,838,0,0,0.4,0,0.529328289090969,0.529328289090969,750,0,0
2,104,2,166,1,0,1,4,4,0.4,2,858,0,0,NaN,0,0,0,0,0.68328019831804,NaN,750,0,1
2,104,2,167,2,1,0,1,2,0.4,NaN,NaN,0,0,NaN,0,1,0,NaN,NaN,NaN,750,0,1
2,104,2,168,1,1,1,3,3,0.4,3,698,1,1,698,1,0,0,0.4,-0.548335075498526,-0.548335075498526,750,1,0
2,104,2,169,1,0,1,2,2,0.4,2,667,1,1,667,0,0,0.2,0,-0.786960534800486,-0.786960534800486,750,1,0
2,104,2,170,1,0,1,1,1,0.4,1,619,1,1,619,1,0,0.2,0,-1.15644511694546,-1.15644511694546,750,1,0
2,104,2,171,2,0,0,2,3,0.4,NaN,NaN,0,0,NaN,0,1,0.4,NaN,NaN,NaN,750,0,1
2,104,2,172,1,1,0,3,2,0.4,NaN,NaN,0,0,NaN,0,1,0.4,0.6,NaN,NaN,750,0,1
2,104,2,173,2,1,2,1,NaN,0.2,1,680,1,1,680,1,0,0.4,NaN,-0.68689179380289,-0.68689179380289,750,0,0
2,104,2,174,2,0,0,4,3,0.4,3,843,0,0,NaN,0,0,0.6,NaN,0.567816266397737,NaN,750,1,0
2,104,2,175,2,1,2,1,NaN,0.4,1,619,1,1,619,1,0,0.6,NaN,-1.15644511694546,-1.15644511694546,750,0,0
2,104,2,176,2,0,1,3,3,0.6,3,765,1,0,765,1,0,0.8,NaN,-0.0325961795878394,-0.0325961795878394,750,1,0
2,104,2,177,1,0,1,1,1,0.6,1,589,1,1,589,1,0,1.2,0.2,-1.38737298078606,-1.38737298078606,750,1,0
2,104,2,178,1,0,1,2,2,0.6,2,729,1,1,729,1,0,1.4,0.4,-0.309709616196567,-0.309709616196567,750,1,0
2,104,2,179,1,1,0,3,4,0.6,3,921,1,0,921,0,0,1.2,0.6,1.16822871238331,1.16822871238331,750,0,0
2,104,2,180,2,0,2,2,NaN,0.6,1,607,0,1,NaN,1,0,1.2,NaN,-1.2488162624817,NaN,750,0,1
2,104,2,181,2,1,1,4,4,0.6,3,910,0,0,NaN,0,0,1.2,NaN,1.08355516230842,NaN,750,0,1
2,104,2,182,2,0,2,3,NaN,0.4,3,652,1,1,652,1,0,0.8,NaN,-0.902424466720789,-0.902424466720789,750,0,0
2,104,2,183,1,0,1,2,2,0.4,2,743,1,1,743,0,0,1,0.6,-0.201943279737617,-0.201943279737617,750,1,0
2,104,2,184,2,0,0,3,1,0.4,1,755,0,0,NaN,0,0,0.8,NaN,-0.109572134201375,NaN,750,1,0
2,104,2,185,2,0,0,4,2,0.4,2,894,0,0,NaN,1,0,0.8,NaN,0.960393634926767,NaN,750,1,0
2,104,2,186,2,1,2,3,NaN,0.4,NaN,NaN,0,0,NaN,0,1,0.8,NaN,NaN,NaN,750,0,1
2,104,2,187,2,0,1,1,1,0.4,1,744,1,1,744,0,0,0.8,NaN,-0.194245684276264,-0.194245684276264,750,1,0
2,104,2,188,2,1,1,4,4,0.4,4,827,1,0,827,0,0,0.4,NaN,0.44465473901608,0.44465473901608,750,1,0
2,104,2,189,2,1,2,3,NaN,0.2,2,897,0,0,NaN,0,0,0.4,NaN,0.983486421310828,NaN,750,0,1
2,104,2,190,2,1,1,1,1,0,1,781,1,0,781,0,0,0.4,NaN,0.0905653477938172,0.0905653477938172,750,1,0
2,104,2,191,2,1,0,4,2,0,NaN,NaN,0,0,NaN,0,1,0,NaN,NaN,NaN,750,0,1
2,104,2,192,2,1,0,3,1,0,1,982,0,0,NaN,0,0,0,NaN,1.63778203552588,NaN,750,1,0
2,104,2,193,2,1,1,2,2,0,2,690,1,1,690,1,0,0,NaN,-0.609915839189355,-0.609915839189355,750,1,0
2,104,2,194,2,0,0,3,1,0.2,3,709,1,1,709,0,0,0.4,NaN,-0.463661525423637,-0.463661525423637,750,0,0
2,104,2,195,2,1,0,1,2,0.2,NaN,NaN,0,0,NaN,0,1,0.4,NaN,NaN,NaN,750,0,1
2,104,2,196,2,0,0,4,1,0.2,3,979,0,0,NaN,0,0,0.4,NaN,1.61468924914182,NaN,750,0,1
2,104,2,197,1,1,2,1,NaN,0.2,1,433,1,1,433,1,0,0.4,0.4,-2.58819787275721,-2.58819787275721,750,0,0
2,104,2,198,1,0,1,2,2,0.4,2,725,1,1,725,0,0,0.6,0.6,-0.340499998041981,-0.340499998041981,750,1,0
2,104,2,199,1,1,0,1,3,0.4,NaN,NaN,0,0,NaN,0,1,0.2,0.4,NaN,NaN,750,0,1
2,104,2,200,1,1,2,4,NaN,0.4,NaN,NaN,0,0,NaN,0,1,0.2,0.4,NaN,NaN,750,0,1
2,104,2,201,2,1,0,3,1,0.4,1,616,0,1,NaN,0,0,0.2,NaN,-1.17953790332952,NaN,750,1,0
2,104,2,202,1,0,1,4,4,0.2,4,413,1,1,413,1,0,0.2,0.6,-2.74214978198428,-2.74214978198428,750,1,0
2,104,2,203,1,0,1,3,3,0.2,3,753,1,0,753,0,0,0.2,0.6,-0.124967325124082,-0.124967325124082,750,1,0
2,104,2,204,1,0,1,2,2,0.2,2,803,1,0,803,0,0,0.2,0.4,0.259912447943595,0.259912447943595,750,1,0
2,104,2,205,1,0,1,3,3,0.2,2,959,0,0,NaN,1,0,0.2,0.2,1.46073733991475,NaN,750,0,1
2,104,2,206,2,0,2,2,NaN,0.2,1,685,0,1,NaN,0,0,0.4,NaN,-0.648403816496122,NaN,750,0,1
2,104,2,207,2,0,1,4,4,0.2,2,716,0,1,NaN,0,0,0.4,NaN,-0.409778357194163,NaN,750,0,1
2,104,2,208,1,1,2,1,NaN,0.2,1,872,1,0,872,0,0,0.2,0.2,0.791046534776989,0.791046534776989,750,0,0
2,104,2,209,1,0,1,2,2,0.2,NaN,NaN,0,0,NaN,0,1,0.2,0.4,NaN,NaN,750,0,1
2,104,2,210,1,0,1,1,1,0.2,1,621,1,1,621,1,0,0.2,0.4,-1.14104992602275,-1.14104992602275,750,1,0
2,104,2,211,2,0,1,2,2,0.2,2,865,1,0,865,0,0,0.2,NaN,0.737163366547514,0.737163366547514,750,1,0
2,104,2,212,2,1,2,3,NaN,0.2,3,836,1,0,836,0,0,0.2,NaN,0.513933098168262,0.513933098168262,750,0,0
2,104,2,213,2,0,1,4,4,0,2,929,0,0,NaN,0,0,0.2,NaN,1.22980947607414,NaN,750,0,1
2,104,2,214,2,0,0,1,3,0,1,674,1,1,674,0,0,0.2,NaN,-0.733077366571011,-0.733077366571011,750,0,0
2,104,2,215,1,0,1,2,2,0,2,967,1,0,967,0,0,0.2,0.4,1.52231810360558,1.52231810360558,750,1,0
2,104,2,216,1,0,1,4,4,0,4,874,1,0,874,0,0,0,0.4,0.806441725699696,0.806441725699696,750,1,0
2,104,2,217,2,1,1,3,3,0,NaN,NaN,0,0,NaN,0,1,0,NaN,NaN,NaN,750,0,1
2,104,2,218,2,0,1,1,1,0,1,406,1,1,406,0,0,0,NaN,-2.79603295021376,-2.79603295021376,750,1,0
2,104,2,219,2,0,1,2,2,0,NaN,NaN,0,0,NaN,0,1,0,NaN,NaN,NaN,750,0,1
2,104,2,220,2,0,0,3,1,0,NaN,NaN,0,0,NaN,0,1,0,NaN,NaN,NaN,750,0,1
2,104,2,221,2,1,2,2,NaN,0,3,961,0,0,NaN,0,0,0,NaN,1.47613253083745,NaN,750,0,1
2,104,2,222,1,0,0,4,2,0,NaN,NaN,0,0,NaN,0,1,0,0.4,NaN,NaN,750,0,1
2,104,2,223,2,1,2,2,NaN,0,NaN,NaN,0,0,NaN,0,1,0,NaN,NaN,NaN,750,0,1
2,104,2,224,2,1,0,3,4,0,2,958,0,0,NaN,0,0,0,NaN,1.45303974445339,NaN,750,0,1
2,104,2,225,1,0,0,2,1,0,NaN,NaN,0,0,NaN,0,1,0,0.2,NaN,NaN,750,0,1
2,104,2,226,1,1,0,1,3,0,NaN,NaN,0,0,NaN,0,1,0,0.2,NaN,NaN,750,0,1
2,104,2,227,2,1,0,3,1,0,1,665,0,1,NaN,0,0,0,NaN,-0.802355725723193,NaN,750,1,0
2,104,2,228,2,1,2,4,NaN,0,3,897,0,0,NaN,0,0,0,NaN,0.983486421310828,NaN,750,0,1
2,104,2,229,2,1,1,3,3,0,3,593,1,1,593,1,0,0,NaN,-1.35658259894065,-1.35658259894065,750,1,0
2,104,2,230,1,1,1,4,4,0.2,1,895,0,0,NaN,0,0,0.4,0.2,0.968091230388121,NaN,750,0,1
2,104,2,231,2,1,0,2,3,0.2,4,799,0,0,NaN,0,0,0.4,NaN,0.229122066098181,NaN,750,0,1
2,104,2,232,1,0,2,1,NaN,0.2,1,473,1,1,473,0,0,0.4,0.2,-2.28029405430307,-2.28029405430307,750,0,0
2,104,2,233,1,0,1,2,2,0.2,2,891,1,0,891,0,0,0.4,0,0.937300848542706,0.937300848542706,750,1,0
2,104,2,234,1,1,0,1,4,0.2,1,923,1,0,923,0,0,0.4,0,1.18362390330602,1.18362390330602,750,0,0
2,104,2,235,1,1,2,2,NaN,0.2,1,632,0,1,NaN,0,0,0,0,-1.05637637594786,NaN,750,0,1
2,104,2,236,1,0,1,4,4,0.2,NaN,NaN,0,0,NaN,0,1,0,0,NaN,NaN,750,0,1
2,104,2,237,2,0,2,2,NaN,0.2,2,666,1,1,666,0,0,0,NaN,-0.79465813026184,-0.79465813026184,750,0,0
2,104,2,238,2,0,1,3,3,0.2,3,757,1,0,757,1,0,0,NaN,-0.0941769432786677,-0.0941769432786677,750,1,0
2,104,2,239,2,0,1,1,1,0.2,1,558,1,1,558,0,0,0.4,NaN,-1.62599844008802,-1.62599844008802,750,1,0
2,104,2,240,2,0,1,2,2,0.2,2,752,1,0,752,1,0,0.4,NaN,-0.132664920585435,-0.132664920585435,750,1,0
2,104,2,241,1,1,2,1,NaN,0.2,1,627,1,1,627,1,0,0.8,0,-1.09486435325463,-1.09486435325463,750,0,0
2,104,2,242,1,0,0,3,1,0.2,3,859,1,0,859,0,0,1,0,0.690977793779393,0.690977793779393,750,0,0
2,104,2,243,1,1,1,4,4,0.2,2,745,0,1,NaN,0,0,1,0.2,-0.18654808881491,NaN,750,0,1
2,104,2,244,2,1,0,2,1,0.2,2,734,1,1,734,1,0,0.6,NaN,-0.271221638889799,-0.271221638889799,750,0,0
2,104,2,245,1,0,2,4,NaN,0.4,4,860,1,0,860,0,0,1,0,0.698675389240747,0.698675389240747,750,0,0
2,104,2,246,1,1,0,2,4,0.4,NaN,NaN,0,0,NaN,0,1,0.6,0.2,NaN,NaN,750,0,1
2,104,2,247,2,1,0,4,3,0.4,4,729,1,1,729,1,0,0.4,NaN,-0.309709616196567,-0.309709616196567,750,0,0
2,104,2,248,1,0,0,1,2,0.6,2,748,0,1,NaN,1,0,0.8,0,-0.16345530243085,NaN,750,1,0
2,104,2,249,2,1,2,2,NaN,0.6,2,886,1,0,886,0,0,1,NaN,0.898812871235939,0.898812871235939,750,0,0
2,104,2,250,1,0,1,3,3,0.4,3,940,1,0,940,0,0,0.6,0.2,1.31448302614903,1.31448302614903,750,1,0
2,104,2,251,1,1,2,1,NaN,0.4,1,822,1,0,822,0,0,0.6,0.2,0.406166761709312,0.406166761709312,750,0,0
2,104,2,252,1,1,1,2,2,0.4,2,722,1,1,722,1,0,0.6,0.2,-0.363592784426041,-0.363592784426041,750,1,0
2,104,2,253,1,1,0,1,4,0.4,1,744,1,1,744,1,0,0.4,0.4,-0.194245684276264,-0.194245684276264,750,0,0
2,104,2,254,1,1,0,4,2,0.6,NaN,NaN,0,0,NaN,0,1,0.4,0.4,NaN,NaN,750,0,1
2,104,2,255,2,0,1,3,3,0.4,NaN,NaN,0,0,NaN,1,1,0.4,NaN,NaN,NaN,750,0,1
2,104,2,256,2,1,0,2,1,0.4,NaN,NaN,0,0,NaN,0,1,0.8,NaN,NaN,NaN,750,0,1
2,104,2,257,1,0,0,1,3,0.4,1,717,1,1,717,0,0,0.8,0.2,-0.402080761732809,-0.402080761732809,750,0,0
2,104,2,258,2,0,2,2,NaN,0.4,2,556,1,1,556,1,0,0.6,NaN,-1.64139363101073,-1.64139363101073,750,0,0
2,104,2,259,1,0,0,3,4,0.4,3,750,1,1,750,0,0,0.8,0.2,-0.148060111508142,-0.148060111508142,750,0,0
2,104,2,260,1,0,2,1,NaN,0.4,1,627,1,1,627,0,0,0.8,0.2,-1.09486435325463,-1.09486435325463,750,0,0
2,104,2,261,1,1,1,3,3,0.4,3,690,1,1,690,1,0,0.4,0.4,-0.609915839189355,-0.609915839189355,750,1,0
2,104,2,262,1,1,0,4,2,0.6,2,772,0,0,NaN,0,0,0.6,0.6,0.0212869886416354,NaN,750,1,0
2,104,2,263,1,1,2,3,NaN,0.4,3,648,1,1,648,1,0,0.6,0.6,-0.933214848566203,-0.933214848566203,750,0,0
2,104,2,264,2,0,1,1,1,0.4,2,745,0,1,NaN,0,0,0.4,NaN,-0.18654808881491,NaN,750,0,1
2,104,2,265,2,1,1,2,2,0.4,3,648,0,1,NaN,0,0,0.4,NaN,-0.933214848566203,NaN,750,0,1
2,104,2,266,1,0,0,3,4,0.4,3,688,1,1,688,1,0,0.4,0.2,-0.625311030112062,-0.625311030112062,750,0,0
2,104,2,267,1,1,2,4,NaN,0.4,NaN,NaN,0,0,NaN,0,1,0.4,0.6,NaN,NaN,750,0,1
2,104,2,268,1,0,0,1,3,0.4,3,946,0,0,NaN,1,0,0.4,0.2,1.36066859891715,NaN,750,1,0
2,104,2,269,2,0,0,4,2,0.4,4,953,1,0,953,1,0,0.4,NaN,1.41455176714663,1.41455176714663,750,0,0
2,104,2,270,2,0,2,1,NaN,0.4,3,856,0,0,NaN,0,0,0.8,NaN,0.667885007395333,NaN,750,0,1
2,104,2,271,1,1,0,4,3,0.4,NaN,NaN,0,0,NaN,0,1,0.8,0.4,NaN,NaN,750,0,1
2,104,2,272,2,0,2,3,NaN,0.2,3,686,1,1,686,0,0,0.6,NaN,-0.640706221034769,-0.640706221034769,750,0,0
2,104,2,273,1,0,0,4,3,0.2,NaN,NaN,0,0,NaN,0,1,0.6,0.4,NaN,NaN,750,0,1
2,104,2,274,2,0,2,1,NaN,0.2,1,605,1,1,605,0,0,0.4,NaN,-1.26421145340441,-1.26421145340441,750,0,0
2,104,2,275,1,1,1,2,2,0.2,2,789,1,0,789,0,0,0,0.4,0.152146111484646,0.152146111484646,750,1,0
2,104,2,276,2,0,1,3,3,0.2,3,984,1,0,984,1,0,0,NaN,1.65317722644859,1.65317722644859,750,1,0
2,104,2,277,1,1,0,2,1,0.2,2,970,1,0,970,0,0,0.4,0.2,1.54541088998964,1.54541088998964,750,0,0
2,104,2,278,2,0,0,1,2,0,NaN,NaN,0,0,NaN,0,1,0.4,NaN,NaN,NaN,750,0,1
2,104,2,279,2,0,1,4,4,0,3,782,0,0,NaN,0,0,0.4,NaN,0.0982629432551708,NaN,750,0,1
2,104,2,280,1,1,2,3,NaN,0,2,729,0,1,NaN,0,0,0.4,0.2,-0.309709616196567,NaN,750,0,1
2,104,2,281,2,1,1,4,4,0,2,782,0,0,NaN,0,0,0.4,NaN,0.0982629432551708,NaN,750,0,1
2,104,2,282,1,0,1,1,1,0,1,541,1,1,541,0,0,0,0.4,-1.75685756293103,-1.75685756293103,750,1,0
2,104,2,283,1,1,2,3,NaN,0,1,928,0,0,NaN,0,0,0,0,1.22211188061279,NaN,750,0,1
2,104,2,284,1,0,1,4,4,0,4,955,1,0,955,0,0,0,0.4,1.42994695806933,1.42994695806933,750,1,0
2,104,2,285,1,0,0,1,2,0,1,773,1,0,773,0,0,0,0.4,0.0289845841029889,0.0289845841029889,750,0,0
2,104,2,286,1,0,0,2,1,0,2,837,1,0,837,0,0,0,0.2,0.521630693629615,0.521630693629615,750,0,0
2,104,2,287,2,0,0,1,3,0,3,916,0,0,NaN,0,0,0,NaN,1.12974073507654,NaN,750,1,0
2,104,2,288,2,1,0,3,2,0,NaN,NaN,0,0,NaN,0,1,0,NaN,NaN,NaN,750,0,1
2,104,2,289,2,1,0,2,4,0,2,920,1,0,920,0,0,0,NaN,1.16053111692196,1.16053111692196,750,0,0
2,104,2,290,1,1,2,4,NaN,0,3,903,0,0,NaN,0,0,0,0,1.02967199407895,NaN,750,0,1
2,104,2,291,1,1,1,1,1,0,1,833,1,0,833,0,0,0,0,0.490840311784201,0.490840311784201,750,1,0
2,104,2,292,2,0,0,4,3,0,3,881,0,0,NaN,0,0,0,NaN,0.860324893929171,NaN,750,1,0
2,104,2,293,1,0,0,2,1,0,2,685,1,1,685,0,0,0,0,-0.648403816496122,-0.648403816496122,750,0,0
2,104,2,294,2,1,1,3,3,0,NaN,NaN,0,0,NaN,0,1,0,NaN,NaN,NaN,750,0,1
2,104,2,295,1,1,2,4,NaN,0,NaN,NaN,0,0,NaN,0,1,0,0,NaN,NaN,750,0,1
2,104,2,296,2,1,0,1,3,0,NaN,NaN,0,0,NaN,0,1,0,NaN,NaN,NaN,750,0,1
2,104,2,297,1,0,0,3,1,0,3,847,1,0,847,0,0,0,0,0.598606648243151,0.598606648243151,750,0,0
2,104,2,298,1,1,2,2,NaN,0,2,645,1,1,645,1,0,0,0,-0.956307634950264,-0.956307634950264,750,0,0
2,104,2,299,2,0,0,1,2,0.2,NaN,NaN,0,0,NaN,0,1,0.2,NaN,NaN,NaN,750,0,1
2,104,2,300,2,0,2,3,NaN,0.2,3,702,1,1,702,0,0,0.2,NaN,-0.517544693653112,-0.517544693653112,750,0,0
2,104,3,301,2,0,1,4,4,0.2,NaN,NaN,0,0,NaN,0,1,0.2,NaN,NaN,NaN,750,0,1
2,104,3,302,1,0,1,3,3,0.2,3,660,1,1,660,1,0,0.2,0,-0.840843703029961,-0.840843703029961,750,1,0
2,104,3,303,1,0,1,2,2,0.2,2,680,1,1,680,0,0,0.4,0.2,-0.68689179380289,-0.68689179380289,750,1,0
2,104,3,304,2,1,1,4,4,0.2,3,817,0,0,NaN,0,0,0.2,NaN,0.367678784402545,NaN,750,0,1
2,104,3,305,2,1,0,1,2,0.2,2,782,0,0,NaN,0,0,0.2,NaN,0.0982629432551708,NaN,750,1,0
2,104,3,306,2,1,1,3,3,0.2,3,721,1,1,721,1,0,0.2,NaN,-0.371290379887395,-0.371290379887395,750,1,0
2,104,3,307,2,0,2,2,NaN,0.4,2,645,1,1,645,0,0,0.6,NaN,-0.956307634950264,-0.956307634950264,750,0,0
2,104,3,308,2,1,1,3,3,0.4,3,736,1,1,736,1,0,0.4,NaN,-0.255826447967092,-0.255826447967092,750,1,0
2,104,3,309,2,1,0,4,1,0.6,1,834,0,0,NaN,0,0,0.8,NaN,0.498537907245555,NaN,750,1,0
2,104,3,310,1,1,0,2,3,0.4,2,830,1,0,830,0,0,0.8,0.2,0.467747525400141,0.467747525400141,750,0,0
2,104,3,311,1,1,0,3,4,0.4,3,748,1,1,748,1,0,0.8,0.2,-0.16345530243085,-0.16345530243085,750,0,0
2,104,3,312,1,0,2,4,NaN,0.6,2,755,0,0,NaN,0,0,0.6,0.2,-0.109572134201375,NaN,750,0,1
2,104,3,313,2,0,0,1,2,0.6,1,972,1,0,972,1,0,0.6,NaN,1.56080608091234,1.56080608091234,750,0,0
2,104,3,314,2,0,2,2,NaN,0.6,2,835,1,0,835,1,0,0.6,NaN,0.506235502706908,0.506235502706908,750,0,0
2,104,3,315,2,1,1,4,4,0.6,2,756,0,0,NaN,0,0,1,NaN,-0.101874538740021,NaN,750,0,1
2,104,3,316,2,1,1,2,2,0.4,2,763,1,0,763,0,0,1,NaN,-0.0479913705105465,-0.0479913705105465,750,1,0
2,104,3,317,1,0,2,1,NaN,0.2,2,800,0,0,NaN,0,0,0.8,0.2,0.236819661559534,NaN,750,0,1
2,104,3,318,1,1,1,4,4,0.2,NaN,NaN,0,0,NaN,0,1,0.8,0.4,NaN,NaN,750,0,1
2,104,3,319,1,1,1,1,1,0.2,1,766,1,0,766,0,0,0.4,0.4,-0.0248985841264858,-0.0248985841264858,750,1,0
2,104,3,320,1,1,1,3,3,0.2,2,816,0,0,NaN,0,0,0,0.4,0.359981188941191,NaN,750,0,1
2,104,3,321,1,1,0,4,2,0,3,768,0,0,NaN,0,0,0,0.2,-0.00950339320377876,NaN,750,0,1
2,104,3,322,1,0,0,1,3,0,1,711,1,1,711,0,0,0,0.2,-0.44826633450093,-0.44826633450093,750,0,0
2,104,3,323,2,0,0,2,4,0,2,900,1,0,900,0,0,0,NaN,1.00657920769489,1.00657920769489,750,0,0
2,104,3,324,1,1,2,3,NaN,0,3,750,1,1,750,0,0,0,0.2,-0.148060111508142,-0.148060111508142,750,0,0
2,104,3,325,2,1,1,2,2,0,2,709,1,1,709,1,0,0,NaN,-0.463661525423637,-0.463661525423637,750,1,0
2,104,3,326,1,0,1,1,1,0.2,1,592,1,1,592,1,0,0.4,0.2,-1.364280194402,-1.364280194402,750,1,0
2,104,3,327,1,0,1,4,4,0.2,2,769,0,0,NaN,0,0,0.6,0.2,-0.00180579774242522,NaN,750,0,1
2,104,3,328,2,1,1,3,3,0.2,1,790,0,0,NaN,0,0,0.6,NaN,0.159843706945999,NaN,750,0,1
2,104,3,329,1,1,2,4,NaN,0.2,3,848,0,0,NaN,0,0,0.6,0,0.606304243704504,NaN,750,0,1
2,104,3,330,1,1,0,3,4,0.2,NaN,NaN,0,0,NaN,0,1,0.6,0,NaN,NaN,750,0,1
2,104,3,331,1,1,0,4,2,0.2,NaN,NaN,0,0,NaN,0,1,0.2,0,NaN,NaN,750,0,1
2,104,3,332,1,0,2,1,NaN,0.2,1,850,1,0,850,0,0,0,0.2,0.621699434627211,0.621699434627211,750,0,0
2,104,3,333,1,1,1,3,3,0.2,3,777,1,0,777,0,0,0,0,0.0597749659484031,0.0597749659484031,750,1,0
2,104,3,334,2,1,1,2,2,0,2,558,1,1,558,1,0,0,NaN,-1.62599844008802,-1.62599844008802,750,1,0
2,104,3,335,1,1,1,3,3,0.2,3,935,1,0,935,0,0,0.4,0,1.27599504884226,1.27599504884226,750,1,0
2,104,3,336,1,0,0,2,1,0.2,2,743,1,1,743,1,0,0.4,0.2,-0.201943279737617,-0.201943279737617,750,0,0
2,104,3,337,2,0,1,3,3,0.2,3,813,1,0,813,0,0,0.6,NaN,0.33688840255713,0.33688840255713,750,1,0
2,104,3,338,1,1,2,4,NaN,0.2,3,836,0,0,NaN,0,0,0.6,0,0.513933098168262,NaN,750,0,1
2,104,3,339,2,1,1,3,3,0.2,3,916,1,0,916,0,0,0.6,NaN,1.12974073507654,1.12974073507654,750,1,0
2,104,3,340,2,0,0,1,2,0.2,2,672,0,1,NaN,0,0,0.2,NaN,-0.748472557493718,NaN,750,1,0
2,104,3,341,1,1,1,3,3,0.2,2,850,0,0,NaN,0,0,0.2,0,0.621699434627211,NaN,750,0,1
2,104,3,342,2,0,1,2,2,0.2,2,798,1,0,798,1,0,0,NaN,0.221424470636827,0.221424470636827,750,1,0
2,104,3,343,1,0,0,1,4,0.2,3,753,0,0,NaN,0,0,0.4,0.4,-0.124967325124082,NaN,750,0,1
2,104,3,344,2,0,2,2,NaN,0.2,2,777,1,0,777,1,0,0.4,NaN,0.0597749659484031,0.0597749659484031,750,0,0
2,104,3,345,2,1,0,4,2,0.2,NaN,NaN,0,0,NaN,0,1,0.8,NaN,NaN,NaN,750,0,1
2,104,3,346,2,1,0,2,1,0,2,799,1,0,799,0,0,0.8,NaN,0.229122066098181,0.229122066098181,750,0,0
2,104,3,347,1,1,2,1,NaN,0,2,925,0,0,NaN,0,0,0.8,0,1.19901909422873,NaN,750,0,1
2,104,3,348,1,0,1,3,3,0,3,831,1,0,831,0,0,0.4,0.4,0.475445120861494,0.475445120861494,750,1,0
2,104,3,349,1,1,2,2,NaN,0,2,894,1,0,894,0,0,0.4,0,0.960393634926767,0.960393634926767,750,0,0
2,104,3,350,2,1,1,1,1,0,2,887,0,0,NaN,0,0,0,NaN,0.906510466697292,NaN,750,0,1
2,104,3,351,1,0,2,4,NaN,0,4,912,1,0,912,0,0,0,0.2,1.09895035323113,1.09895035323113,750,0,0
2,104,3,352,2,1,0,3,4,0,3,790,1,0,790,0,0,0,NaN,0.159843706945999,0.159843706945999,750,0,0
2,104,3,353,2,0,2,2,NaN,0,2,683,1,1,683,0,0,0,NaN,-0.663799007418829,-0.663799007418829,750,0,0
2,104,3,354,1,1,1,4,4,0,4,581,1,1,581,1,0,0,0,-1.44895374447689,-1.44895374447689,750,1,0
2,104,3,355,1,1,2,2,NaN,0.2,2,662,1,1,662,1,0,0.2,0.2,-0.825448512107254,-0.825448512107254,750,0,0
2,104,3,356,1,1,0,1,2,0.4,1,463,1,1,463,1,0,0.4,0.4,-2.35727000891661,-2.35727000891661,750,0,0
2,104,3,357,2,1,0,3,1,0.6,3,937,1,0,937,0,0,0.6,NaN,1.29139023976497,1.29139023976497,750,0,0
2,104,3,358,1,0,1,4,4,0.6,4,933,1,0,933,0,0,0.6,0.2,1.26059985791955,1.26059985791955,750,1,0
2,104,3,359,2,0,2,3,NaN,0.6,3,893,1,0,893,1,0,0.6,NaN,0.952696039465413,0.952696039465413,750,0,0
2,104,3,360,2,0,0,2,1,0.6,2,938,1,0,938,0,0,0.8,NaN,1.29908783522632,1.29908783522632,750,0,0
2,104,3,361,1,0,2,4,NaN,0.6,4,818,1,0,818,0,0,0.6,0.2,0.375376379863898,0.375376379863898,750,0,0
2,104,3,362,1,1,0,3,1,0.6,3,729,1,1,729,1,0,0.4,0.6,-0.309709616196567,-0.309709616196567,750,0,0
2,104,3,363,2,1,1,2,2,0.8,1,820,0,0,NaN,0,0,0.6,NaN,0.390771570786605,NaN,750,0,1
2,104,3,364,1,1,1,3,3,0.6,3,712,1,1,712,1,0,0.6,0.8,-0.440568739039577,-0.440568739039577,750,1,0
2,104,3,365,1,1,2,1,NaN,0.6,2,713,0,1,NaN,0,0,0.4,1,-0.432871143578223,NaN,750,0,1
2,104,3,366,1,0,0,4,3,0.4,1,740,0,1,NaN,0,0,0.4,0,-0.225036066121678,NaN,750,0,1
2,104,3,367,1,0,0,3,4,0.4,2,830,0,0,NaN,0,0,0.4,0,0.467747525400141,NaN,750,0,1
2,104,3,368,2,0,2,4,NaN,0.4,2,871,0,0,NaN,1,0,0.2,NaN,0.783348939315636,NaN,750,0,1
2,104,3,369,1,0,0,3,4,0.4,3,696,1,1,696,0,0,0.6,0,-0.563730266421233,-0.563730266421233,750,0,0
2,104,3,370,1,0,2,1,NaN,0.4,1,744,1,1,744,1,0,0.4,0,-0.194245684276264,-0.194245684276264,750,0,0
2,104,3,371,2,1,1,3,3,0.4,NaN,NaN,0,0,NaN,0,1,0.6,NaN,NaN,NaN,750,0,1
2,104,3,372,1,1,0,1,2,0.4,NaN,NaN,0,0,NaN,0,1,0.6,0.8,NaN,NaN,750,0,1
2,104,3,373,1,1,1,3,3,0.2,3,761,1,0,761,0,0,0.6,0.6,-0.0633865614332535,-0.0633865614332535,750,1,0
2,104,3,374,2,0,2,1,NaN,0.2,1,635,1,1,635,1,0,0.2,NaN,-1.0332835895638,-1.0332835895638,750,0,0
2,104,3,375,2,0,1,4,4,0.2,3,945,0,0,NaN,0,0,0.6,NaN,1.3529710034558,NaN,750,0,1
2,104,3,376,1,1,1,3,3,0.2,4,954,0,0,NaN,0,0,0.4,0.4,1.42224936260798,NaN,750,0,1
2,104,3,377,1,1,1,2,2,0,2,654,1,1,654,1,0,0.4,0.2,-0.887029275798082,-0.887029275798082,750,1,0
2,104,3,378,1,1,0,1,4,0.2,1,979,1,0,979,0,0,0.6,0.2,1.61468924914182,1.61468924914182,750,0,0
2,104,3,379,1,1,2,2,NaN,0.2,2,929,1,0,929,0,0,0.6,0.2,1.22980947607414,1.22980947607414,750,0,0
2,104,3,380,1,1,1,1,1,0.2,1,644,1,1,644,1,0,0.2,0.2,-0.964005230411617,-0.964005230411617,750,1,0
2,104,3,381,1,0,2,3,NaN,0.4,3,776,1,0,776,0,0,0.4,0.2,0.0520773704870495,0.0520773704870495,750,0,0
2,104,3,382,2,1,1,4,4,0.4,2,794,0,0,NaN,0,0,0.4,NaN,0.190634088791413,NaN,750,0,1
2,104,3,383,1,0,0,2,3,0.4,3,818,0,0,NaN,0,0,0.2,0.2,0.375376379863898,NaN,750,1,0
2,104,3,384,1,1,2,4,NaN,0.4,3,808,0,0,NaN,0,0,0.2,0.4,0.298400425250363,NaN,750,0,1
2,104,3,385,1,1,1,1,1,0.2,1,631,1,1,631,1,0,0.2,0.4,-1.06407397140921,-1.06407397140921,750,1,0
2,104,3,386,2,1,0,3,4,0.4,2,802,0,0,NaN,0,0,0.2,NaN,0.252214852482242,NaN,750,0,1
2,104,3,387,2,1,1,2,2,0.4,2,823,1,0,823,0,0,0.2,NaN,0.413864357170666,0.413864357170666,750,1,0
2,104,3,388,1,0,2,4,NaN,0.2,3,758,0,0,NaN,0,0,0.2,0.2,-0.0864793478173141,NaN,750,0,1
2,104,3,389,1,0,1,3,3,0.2,3,632,1,1,632,0,0,0.2,0.2,-1.05637637594786,-1.05637637594786,750,1,0
2,104,3,390,1,0,1,2,2,0.2,2,674,1,1,674,0,0,0.2,0.2,-0.733077366571011,-0.733077366571011,750,1,0
2,104,3,391,1,1,0,4,3,0.2,4,689,1,1,689,1,0,0,0.4,-0.617613434650708,-0.617613434650708,750,0,0
2,104,3,392,1,0,1,1,1,0.4,1,657,1,1,657,0,0,0.2,0,-0.863936489414021,-0.863936489414021,750,1,0
2,104,3,393,2,0,0,3,2,0.4,2,982,0,0,NaN,0,0,0.2,NaN,1.63778203552588,NaN,750,1,0
2,104,3,394,1,0,2,4,NaN,0.4,4,402,1,1,402,0,0,0.2,0,-2.82682333205917,-2.82682333205917,750,0,0
2,104,3,395,1,1,1,2,2,0.4,2,842,1,0,842,0,0,0.2,0.6,0.560118670936383,0.560118670936383,750,1,0
2,104,3,396,1,1,2,3,NaN,0.4,NaN,NaN,0,0,NaN,0,1,0.2,0.6,NaN,NaN,750,0,1
2,104,3,397,2,1,1,1,1,0.2,1,412,1,1,412,1,0,0,NaN,-2.74984737744564,-2.74984737744564,750,1,0
2,104,3,398,1,1,1,4,4,0.4,4,421,1,1,421,1,0,0.4,0.4,-2.68056901829346,-2.68056901829346,750,1,0
2,104,3,399,2,0,2,3,NaN,0.6,2,644,0,1,NaN,0,0,0.6,NaN,-0.964005230411617,NaN,750,0,1
2,104,3,400,1,1,1,2,2,0.6,2,531,1,1,531,1,0,0.6,0.6,-1.83383351754457,-1.83383351754457,750,1,0
2,104,3,401,2,0,1,3,3,0.6,NaN,NaN,0,0,NaN,1,1,0.8,NaN,NaN,NaN,750,0,1
2,104,3,402,1,0,2,2,NaN,0.6,2,790,1,0,790,0,0,1.2,0,0.159843706945999,0.159843706945999,750,0,0
2,104,3,403,1,1,1,4,4,0.6,3,916,0,0,NaN,0,0,0.8,0.6,1.12974073507654,NaN,750,0,1
2,104,3,404,1,0,1,3,3,0.6,NaN,NaN,0,0,NaN,1,1,0.6,0,NaN,NaN,750,0,1
2,104,3,405,2,1,0,1,2,0.6,1,747,1,1,747,1,0,0.8,NaN,-0.171152897892203,-0.171152897892203,750,0,0
2,104,3,406,2,1,1,3,3,0.8,3,781,1,0,781,0,0,1,NaN,0.0905653477938172,0.0905653477938172,750,1,0
2,104,3,407,1,1,0,4,1,0.6,4,769,1,0,769,0,0,0.6,0.4,-0.00180579774242522,-0.00180579774242522,750,0,0
2,104,3,408,2,1,2,2,NaN,0.4,2,810,1,0,810,0,0,0.6,NaN,0.31379561617307,0.31379561617307,750,0,0
2,104,3,409,2,0,0,1,2,0.2,1,855,1,0,855,0,0,0.6,NaN,0.660187411933979,0.660187411933979,750,0,0
2,104,3,410,2,0,1,3,3,0.2,3,742,1,1,742,0,0,0.4,NaN,-0.209640875198971,-0.209640875198971,750,1,0
2,104,3,411,1,1,1,2,2,0.2,2,735,1,1,735,1,0,0,0.4,-0.263524043428446,-0.263524043428446,750,1,0
2,104,3,412,2,0,1,4,4,0.4,1,713,0,1,NaN,1,0,0.2,NaN,-0.432871143578223,NaN,750,0,1
2,104,3,413,1,0,1,3,3,0.4,3,673,1,1,673,1,0,0.6,0.2,-0.740774962032365,-0.740774962032365,750,1,0
2,104,3,414,1,1,0,4,1,0.4,2,897,0,0,NaN,0,0,0.8,0.6,0.983486421310828,NaN,750,0,1
2,104,3,415,1,1,0,1,3,0.2,1,637,1,1,637,1,0,0.8,0.4,-1.01788839864109,-1.01788839864109,750,0,0
2,104,3,416,1,1,1,2,2,0.4,2,828,1,0,828,0,0,1,0.4,0.452352334477434,0.452352334477434,750,1,0
2,104,3,417,2,1,2,1,NaN,0.4,1,614,1,1,614,1,0,0.8,NaN,-1.19493309425222,-1.19493309425222,750,0,0
2,104,3,418,1,0,1,3,3,0.6,3,838,1,0,838,1,0,0.8,0.4,0.529328289090969,0.529328289090969,750,1,0
2,104,3,419,2,0,0,1,2,0.6,1,903,1,0,903,1,0,0.8,NaN,1.02967199407895,1.02967199407895,750,0,0
2,104,3,420,2,0,2,2,NaN,0.6,3,720,0,1,NaN,1,0,1.2,NaN,-0.378987975348749,NaN,750,0,1
2,104,3,421,1,0,1,4,4,0.6,3,770,0,0,NaN,1,0,1.4,0.6,0.00589179771892831,NaN,750,0,1
2,104,3,422,1,0,0,2,1,0.6,NaN,NaN,0,0,NaN,0,1,1.6,0.8,NaN,NaN,750,0,1
2,104,3,423,1,1,2,1,NaN,0.6,1,633,1,1,633,1,0,1.2,0.4,-1.04867878048651,-1.04867878048651,750,0,0
2,104,3,424,1,1,1,4,4,0.6,3,805,0,0,NaN,0,0,1.2,0.6,0.275307638866302,NaN,750,0,1
2,104,3,425,1,1,1,2,2,0.6,2,867,1,0,867,0,0,0.8,0.4,0.752558557470221,0.752558557470221,750,1,0
2,104,3,426,1,1,0,1,3,0.4,1,957,1,0,957,0,0,0.4,0.4,1.44534214899204,1.44534214899204,750,0,0
2,104,3,427,2,0,2,3,NaN,0.4,4,758,0,0,NaN,1,0,0.2,NaN,-0.0864793478173141,NaN,750,0,1
2,104,3,428,2,1,0,1,2,0.4,1,828,1,0,828,0,0,0.6,NaN,0.452352334477434,0.452352334477434,750,0,0
2,104,3,429,1,0,2,3,NaN,0.2,3,889,1,0,889,0,0,0.4,0.8,0.921905657619999,0.921905657619999,750,0,0
2,104,3,430,1,0,1,2,2,0.2,2,820,1,0,820,1,0,0.4,0.6,0.390771570786605,0.390771570786605,750,1,0
2,104,3,431,1,1,1,3,3,0.2,4,741,0,1,NaN,0,0,0.6,0.2,-0.217338470660324,NaN,750,0,1
2,104,3,432,1,1,1,1,1,0,1,762,1,0,762,0,0,0.6,0.2,-0.0556889659719,-0.0556889659719,750,1,0
2,104,3,433,1,1,0,2,4,0,2,880,1,0,880,0,0,0.2,0,0.852627298467817,0.852627298467817,750,0,0
2,104,3,434,2,1,2,3,NaN,0,3,822,1,0,822,0,0,0.2,NaN,0.406166761709312,0.406166761709312,750,0,0
2,104,3,435,2,0,0,4,2,0,1,582,0,1,NaN,0,0,0.2,NaN,-1.44125614901554,NaN,750,0,1
2,104,3,436,2,1,1,3,3,0,3,814,1,0,814,0,0,0,NaN,0.344585998018484,0.344585998018484,750,1,0
2,104,3,437,2,0,0,1,2,0,1,797,1,0,797,0,0,0,NaN,0.213726875175474,0.213726875175474,750,0,0
2,104,3,438,2,0,2,3,NaN,0,2,823,0,0,NaN,0,0,0,NaN,0.413864357170666,NaN,750,0,1
2,104,3,439,2,1,0,1,4,0,1,713,1,1,713,1,0,0,NaN,-0.432871143578223,-0.432871143578223,750,0,0
2,104,3,440,2,1,0,2,3,0.2,1,834,0,0,NaN,0,0,0.4,NaN,0.498537907245555,NaN,750,0,1
2,104,3,441,1,1,0,3,2,0.2,3,844,1,0,844,0,0,0.4,0,0.57551386185909,0.57551386185909,750,0,0
2,104,3,442,1,0,2,4,NaN,0.2,3,806,0,0,NaN,1,0,0.4,0.6,0.283005234327656,NaN,750,0,1
2,104,3,443,2,0,1,3,3,0.2,2,767,0,0,NaN,0,0,0.6,NaN,-0.0172009886651323,NaN,750,0,1
2,104,3,444,2,1,0,1,2,0.2,1,711,1,1,711,1,0,0.6,NaN,-0.44826633450093,-0.44826633450093,750,0,0
2,104,3,445,2,0,2,4,NaN,0.4,4,822,1,0,822,1,0,0.6,NaN,0.406166761709312,0.406166761709312,750,0,0
2,104,3,446,2,0,1,2,2,0.4,2,922,1,0,922,1,0,1,NaN,1.17592630784467,1.17592630784467,750,1,0
2,104,3,447,1,0,0,1,3,0.4,1,896,1,0,896,0,0,1.4,0.6,0.975788825849474,0.975788825849474,750,0,0
2,104,3,448,1,1,2,2,NaN,0.4,NaN,NaN,0,0,NaN,0,1,1.2,0,NaN,NaN,750,0,1
2,104,3,449,1,0,0,3,2,0.4,3,953,1,0,953,1,0,1.2,0.4,1.41455176714663,1.41455176714663,750,0,0
2,104,3,450,2,0,0,2,1,0.4,NaN,NaN,0,0,NaN,1,1,1,NaN,NaN,NaN,750,0,1
2,104,4,451,2,0,1,3,3,0.4,3,964,1,0,964,0,0,1,NaN,1.49922531722151,1.49922531722151,750,1,0
2,104,4,452,2,0,2,4,NaN,0.4,2,834,0,0,NaN,0,0,0.6,NaN,0.498537907245555,NaN,750,0,1
2,104,4,453,2,0,1,3,3,0.4,3,700,1,1,700,1,0,0.6,NaN,-0.532939884575819,-0.532939884575819,750,1,0
2,104,4,454,2,1,0,1,4,0.4,1,790,1,0,790,0,0,1,NaN,0.159843706945999,0.159843706945999,750,0,0
2,104,4,455,1,0,1,2,2,0.2,2,904,1,0,904,0,0,0.8,0.6,1.0373695895403,1.0373695895403,750,1,0
2,104,4,456,1,0,2,4,NaN,0.2,3,762,0,0,NaN,0,0,0.4,0.6,-0.0556889659719,NaN,750,0,1
2,104,4,457,2,1,0,1,2,0.2,1,479,1,1,479,1,0,0.4,NaN,-2.23410848153495,-2.23410848153495,750,0,0
2,104,4,458,2,1,1,3,3,0.4,2,532,0,1,NaN,0,0,0.8,NaN,-1.82613592208321,NaN,750,0,1
2,104,4,459,2,0,2,2,NaN,0.4,3,669,0,1,NaN,0,0,0.4,NaN,-0.771565343877779,NaN,750,0,1
2,104,4,460,2,0,1,3,3,0.4,3,726,1,1,726,1,0,0.4,NaN,-0.332802402580627,-0.332802402580627,750,1,0
2,104,4,461,1,1,1,4,4,0.4,4,764,1,0,764,0,0,0.8,0,-0.0402937750491929,-0.0402937750491929,750,1,0
2,104,4,462,2,0,1,1,1,0.2,1,576,1,1,576,1,0,0.8,NaN,-1.48744172178366,-1.48744172178366,750,1,0
2,104,4,463,2,0,1,4,4,0.2,4,538,1,1,538,0,0,0.8,NaN,-1.77995034931509,-1.77995034931509,750,1,0
2,104,4,464,1,0,0,1,3,0.2,NaN,NaN,0,0,NaN,1,1,0.8,0.4,NaN,NaN,750,0,1
2,104,4,465,1,1,1,2,2,0.2,3,792,0,0,NaN,0,0,1,0,0.175238897868706,NaN,750,0,1
2,104,4,466,2,1,2,1,NaN,0.2,1,598,1,1,598,1,0,0.6,NaN,-1.31809462163388,-1.31809462163388,750,0,0
2,104,4,467,2,1,1,2,2,0.4,2,777,1,0,777,0,0,1,NaN,0.0597749659484031,0.0597749659484031,750,1,0
2,104,4,468,1,1,2,3,NaN,0.2,3,656,1,1,656,1,0,0.6,0,-0.871634084875375,-0.871634084875375,750,0,0
2,104,4,469,2,1,0,4,1,0.4,1,670,0,1,NaN,0,0,0.8,NaN,-0.763867748416425,NaN,750,1,0
2,104,4,470,1,0,1,3,3,0.4,3,689,1,1,689,0,0,0.6,0.4,-0.617613434650708,-0.617613434650708,750,1,0
2,104,4,471,2,1,0,2,4,0.4,2,826,1,0,826,0,0,0.6,NaN,0.436957143554726,0.436957143554726,750,0,0
2,104,4,472,2,1,1,3,3,0.4,3,734,1,1,734,1,0,0.2,NaN,-0.271221638889799,-0.271221638889799,750,1,0
2,104,4,473,1,0,1,4,4,0.4,1,795,0,0,NaN,1,0,0.6,0.4,0.198331684252767,NaN,750,0,1
2,104,4,474,1,1,2,3,NaN,0.4,3,932,1,0,932,0,0,0.6,0.2,1.2529022624582,1.2529022624582,750,0,0
2,104,4,475,2,1,0,4,3,0.4,2,883,0,0,NaN,0,0,0.6,NaN,0.875720084851878,NaN,750,0,1
2,104,4,476,2,0,1,1,1,0.2,1,608,1,1,608,0,0,0.6,NaN,-1.24111866702034,-1.24111866702034,750,1,0
2,104,4,477,1,1,2,3,NaN,0.2,3,765,1,0,765,0,0,0.6,0.2,-0.0325961795878394,-0.0325961795878394,750,0,0
2,104,4,478,1,1,1,2,2,0.2,2,863,1,0,863,0,0,0.2,0.2,0.721768175624807,0.721768175624807,750,1,0
2,104,4,479,1,0,2,3,NaN,0.2,3,818,1,0,818,0,0,0,0.4,0.375376379863898,0.375376379863898,750,0,0
2,104,4,480,2,1,0,4,1,0.2,NaN,NaN,0,0,NaN,0,1,0,NaN,NaN,NaN,750,0,1
2,104,4,481,1,0,1,3,3,0,NaN,NaN,0,0,NaN,0,1,0,0.4,NaN,NaN,750,0,1
2,104,4,482,1,1,1,2,2,0,3,697,0,1,NaN,0,0,0,0.2,-0.55603267095988,NaN,750,0,1
2,104,4,483,2,0,2,4,NaN,0,4,678,1,1,678,0,0,0,NaN,-0.702286984725597,-0.702286984725597,750,0,0
2,104,4,484,1,1,1,3,3,0,3,903,1,0,903,0,0,0,0.2,1.02967199407895,1.02967199407895,750,1,0
2,104,4,485,2,1,0,1,4,0,1,725,1,1,725,1,0,0,NaN,-0.340499998041981,-0.340499998041981,750,0,0
2,104,4,486,1,0,1,2,2,0.2,2,729,1,1,729,1,0,0.4,0.4,-0.309709616196567,-0.309709616196567,750,1,0
2,104,4,487,2,0,0,4,1,0.2,1,906,0,0,NaN,0,0,0.6,NaN,1.05276478046301,NaN,750,1,0
2,104,4,488,2,0,1,2,2,0.2,NaN,NaN,0,0,NaN,1,1,0.6,NaN,NaN,NaN,750,0,1
2,104,4,489,2,0,2,4,NaN,0.2,4,888,1,0,888,0,0,1,NaN,0.914208062158646,0.914208062158646,750,0,0
2,104,4,490,2,0,1,1,1,0.2,1,681,1,1,681,0,0,1,NaN,-0.679194198341537,-0.679194198341537,750,1,0
2,104,4,491,1,0,1,4,4,0.2,NaN,NaN,0,0,NaN,0,1,0.6,0.4,NaN,NaN,750,0,1
2,104,4,492,2,0,1,1,1,0.2,1,709,1,1,709,1,0,0.4,NaN,-0.463661525423637,-0.463661525423637,750,1,0
2,104,4,493,2,1,2,2,NaN,0.2,3,814,0,0,NaN,0,0,0.8,NaN,0.344585998018484,NaN,750,0,1
2,104,4,494,2,1,0,1,4,0.2,1,681,1,1,681,1,0,0.4,NaN,-0.679194198341537,-0.679194198341537,750,0,0
2,104,4,495,1,0,1,2,2,0.4,2,960,1,0,960,1,0,0.8,0.4,1.4684349353761,1.4684349353761,750,1,0
2,104,4,496,1,0,0,4,3,0.4,NaN,NaN,0,0,NaN,1,1,1,0.4,NaN,NaN,750,0,1
2,104,4,497,2,0,2,1,NaN,0.4,NaN,NaN,0,0,NaN,0,1,1.2,NaN,NaN,NaN,750,0,1
2,104,4,498,2,0,1,2,2,0.4,3,960,0,0,NaN,0,0,0.8,NaN,1.4684349353761,NaN,750,0,1
2,104,4,499,1,1,0,4,1,0.4,NaN,NaN,0,0,NaN,0,1,0.8,0,NaN,NaN,750,0,1
2,104,4,500,2,1,0,1,2,0.4,1,645,1,1,645,1,0,0.4,NaN,-0.956307634950264,-0.956307634950264,750,0,0
2,104,4,501,1,0,2,3,NaN,0.6,3,753,1,0,753,1,0,0.6,0.6,-0.124967325124082,-0.124967325124082,750,0,0
2,104,4,502,1,0,1,4,4,0.6,1,708,0,1,NaN,0,0,0.6,0.8,-0.471359120884991,NaN,750,0,1
2,104,4,503,2,1,0,2,3,0.6,2,752,1,0,752,0,0,0.6,NaN,-0.132664920585435,-0.132664920585435,750,0,0
2,104,4,504,2,0,0,4,2,0.4,3,765,0,0,NaN,0,0,0.6,NaN,-0.0325961795878394,NaN,750,0,1
2,104,4,505,2,1,1,3,3,0.4,3,779,1,0,779,0,0,0.6,NaN,0.0751701568711102,0.0751701568711102,750,1,0
2,104,4,506,1,0,0,2,1,0.4,1,821,0,0,NaN,0,0,0.2,0.6,0.398469166247959,NaN,750,1,0
2,104,4,507,2,0,0,4,2,0.4,2,862,0,0,NaN,1,0,0,NaN,0.714070580163454,NaN,750,1,0
2,104,4,508,1,1,0,2,4,0.4,1,945,0,0,NaN,0,0,0.4,0,1.3529710034558,NaN,750,0,1
2,104,4,509,1,1,0,3,1,0.2,4,964,0,0,NaN,0,0,0.4,0,1.49922531722151,NaN,750,0,1
2,104,4,510,1,1,0,2,3,0.2,3,810,0,0,NaN,0,0,0.4,0,0.31379561617307,NaN,750,1,0
2,104,4,511,2,1,1,4,4,0,2,650,0,1,NaN,0,0,0.4,NaN,-0.917819657643496,NaN,750,0,1
2,104,4,512,2,1,0,3,2,0,NaN,NaN,0,0,NaN,0,1,0.4,NaN,NaN,NaN,750,0,1
2,104,4,513,1,0,1,4,4,0,4,520,1,1,520,0,0,0,0.6,-1.91850706761946,-1.91850706761946,750,1,0
2,104,4,514,1,0,1,2,2,0,3,282,0,1,NaN,0,0,0,0.4,-3.7505347874216,NaN,750,0,1
2,104,4,515,1,0,2,3,NaN,0,3,963,1,0,963,0,0,0,0.2,1.49152772176016,1.49152772176016,750,0,0
2,104,4,516,1,0,1,4,4,0,2,675,0,1,NaN,0,0,0,0,-0.725379771109658,NaN,750,0,1
2,104,4,517,2,1,2,3,NaN,0,3,671,1,1,671,1,0,0,NaN,-0.756170152955072,-0.756170152955072,750,0,0
2,104,4,518,2,0,1,1,1,0.2,NaN,NaN,0,0,NaN,0,1,0.4,NaN,NaN,NaN,750,0,1
2,104,4,519,1,0,0,4,2,0.2,2,407,0,1,NaN,0,0,0.4,0,-2.78833535475241,NaN,750,1,0
2,104,4,520,1,1,0,3,4,0.2,3,462,1,1,462,1,0,0.4,0,-2.36496760437796,-2.36496760437796,750,0,0
2,104,4,521,2,0,0,4,2,0.4,3,632,0,1,NaN,0,0,0.6,NaN,-1.05637637594786,NaN,750,0,1
2,104,4,522,2,1,2,3,NaN,0.4,3,966,1,0,966,0,0,0.6,NaN,1.51462050814422,1.51462050814422,750,0,0
2,104,4,523,1,0,1,2,2,0.4,2,987,1,0,987,0,0,0.2,0,1.67627001283265,1.67627001283265,750,1,0
2,104,4,524,1,0,1,4,4,0.4,2,781,0,0,NaN,1,0,0.2,0,0.0905653477938172,NaN,750,0,1
2,104,4,525,1,1,0,2,3,0.4,NaN,NaN,0,0,NaN,0,1,0.4,0.2,NaN,NaN,750,0,1
2,104,4,526,1,0,0,4,1,0.4,NaN,NaN,0,0,NaN,0,1,0.2,0.2,NaN,NaN,750,0,1
2,104,4,527,2,0,1,3,3,0.4,3,803,1,0,803,0,0,0.2,NaN,0.259912447943595,0.259912447943595,750,1,0
2,104,4,528,2,0,0,1,2,0.4,NaN,NaN,0,0,NaN,1,1,0.2,NaN,NaN,NaN,750,0,1
2,104,4,529,2,0,2,4,NaN,0.4,4,858,1,0,858,0,0,0.6,NaN,0.68328019831804,0.68328019831804,750,0,0
2,104,4,530,1,1,0,2,3,0.4,2,723,1,1,723,1,0,0.4,0.2,-0.355895188964688,-0.355895188964688,750,0,0
2,104,4,531,1,0,1,4,4,0.6,NaN,NaN,0,0,NaN,1,1,0.6,0.2,NaN,NaN,750,0,1
2,104,4,532,2,0,1,3,3,0.6,NaN,NaN,0,0,NaN,1,1,0.8,NaN,NaN,NaN,750,0,1
2,104,4,533,2,1,1,4,4,0.6,4,669,1,1,669,1,0,1.2,NaN,-0.771565343877779,-0.771565343877779,750,1,0
2,104,4,534,2,0,1,2,2,0.6,2,714,1,1,714,0,0,1.2,NaN,-0.42517354811687,-0.42517354811687,750,1,0
