SubID,Vers,Block,Trial,RewLvl,EffLvl,Congruency,TargetResp,RollingEffLvl,Resp,RT,Acc,Fast,AccRT,IsRewarded,IsMiss,runavgRRgen,runavgRRcond,ZRT,AccZRT,RRS_Score,DASS_Score,GSE_Score,EffLvlNum,RewLvlNum,IsRewardedNum,numericBlock,SubIDnum,zDASS_Score,zGSE_Score,zRRS_Score,IvsCcong
1052,103,1,1,NaN,NaN,1,3,0.6,3,524,1,1,524,1,0,0,NaN,-0.27497149,-0.27497149,NaN,NaN,NaN,-1.5,-0.5,1,1,1052,NaN,NaN,NaN,1
1052,103,1,2,NaN,NaN,0,4,0.6,4,620,1,1,620,1,0,0.4,NaN,0.579503086,0.579503086,NaN,NaN,NaN,0.5,-0.5,1,1,1052,NaN,NaN,NaN,0
1052,103,1,3,NaN,NaN,0,1,0.6,1,465,1,1,465,1,0,0.8,0,-0.800117323,-0.800117323,NaN,NaN,NaN,1.5,1.5,1,1,1052,NaN,NaN,NaN,0
1052,103,1,4,NaN,NaN,2,4,0.6,4,576,1,1,576,1,0,1.6,NaN,0.187868905,0.187868905,NaN,NaN,NaN,1.5,-0.5,1,1,1052,NaN,NaN,NaN,NaN
1052,103,1,5,NaN,NaN,1,1,0.7,1,521,1,1,521,1,0,2,NaN,-0.301673821,-0.301673821,NaN,NaN,NaN,-0.5,0.5,1,1,1052,NaN,NaN,NaN,1
1052,103,1,6,NaN,NaN,0,4,0.7,4,685,1,1,685,1,0,2.6,NaN,1.15805358,1.15805358,NaN,NaN,NaN,0.5,1.5,1,1,1052,NaN,NaN,NaN,0
1052,103,1,7,NaN,NaN,1,2,0.7,2,537,1,1,537,1,0,3,NaN,-0.159261391,-0.159261391,NaN,NaN,NaN,0.5,0.5,1,1,1052,NaN,NaN,NaN,1
1052,103,1,8,NaN,NaN,1,1,0.7,1,463,1,1,463,1,0,3.2,NaN,-0.817918877,-0.817918877,NaN,NaN,NaN,-1.5,1.5,1,1,1052,NaN,NaN,NaN,1
1052,103,1,9,NaN,NaN,0,3,0.7,3,680,1,1,680,1,0,3.2,NaN,1.113549695,1.113549695,NaN,NaN,NaN,-0.5,-1.5,1,1,1052,NaN,NaN,NaN,0
1052,103,1,10,NaN,NaN,0,1,0.7,1,598,1,1,598,0,0,3,NaN,0.383685995,0.383685995,NaN,NaN,NaN,-1.5,-0.5,0,1,1052,NaN,NaN,NaN,0
1052,103,1,11,NaN,NaN,1,2,0.7,2,470,1,1,470,1,0,2.4,NaN,-0.755613439,-0.755613439,NaN,NaN,NaN,0.5,-0.5,1,1,1052,NaN,NaN,NaN,1
1052,103,1,12,NaN,NaN,2,4,0.7,4,556,1,1,556,0,0,2,NaN,0.009853368,0.009853368,NaN,NaN,NaN,-1.5,-1.5,0,1,1052,NaN,NaN,NaN,NaN
1052,103,1,13,NaN,NaN,1,1,0.7,1,492,1,1,492,0,0,1.4,NaN,-0.559796349,-0.559796349,NaN,NaN,NaN,-0.5,0.5,0,1,1052,NaN,NaN,NaN,1
1052,103,1,14,NaN,NaN,0,4,0.7,4,573,1,1,573,1,0,0.6,NaN,0.161166574,0.161166574,NaN,NaN,NaN,-1.5,1.5,1,1,1052,NaN,NaN,NaN,0
1052,103,1,15,NaN,NaN,2,1,0.7,1,676,1,1,676,1,0,1.2,NaN,1.077946588,1.077946588,NaN,NaN,NaN,1.5,0.5,1,1,1052,NaN,NaN,NaN,NaN
1052,103,1,16,NaN,NaN,1,3,0.7,3,733,1,1,733,1,0,1.8,NaN,1.585290867,1.585290867,NaN,NaN,NaN,-1.5,1.5,1,1,1052,NaN,NaN,NaN,1
1052,103,1,17,NaN,NaN,0,1,0.7,1,599,1,1,599,0,0,2.2,NaN,0.392586772,0.392586772,NaN,NaN,NaN,0.5,-1.5,0,1,1052,NaN,NaN,NaN,0
1052,103,1,18,NaN,NaN,1,2,0.7,2,406,1,1,406,1,0,2.2,NaN,-1.325263156,-1.325263156,NaN,NaN,NaN,0.5,1.5,1,1,1052,NaN,NaN,NaN,1
1052,103,1,19,NaN,NaN,1,3,0.7,3,639,1,1,639,1,0,3,0,0.748617845,0.748617845,NaN,NaN,NaN,1.5,-1.5,1,1,1052,NaN,NaN,NaN,1
1052,103,1,20,NaN,NaN,2,2,0.9,2,803,1,0,803,1,0,2.4,NaN,2.208345246,2.208345246,NaN,NaN,NaN,-0.5,0.5,1,1,1052,NaN,NaN,NaN,NaN
1052,103,1,21,NaN,NaN,1,1,0.9,1,371,1,1,371,1,0,2.4,NaN,-1.636790345,-1.636790345,NaN,NaN,NaN,-1.5,0.5,1,1,1052,NaN,NaN,NaN,1
1052,103,1,22,NaN,NaN,2,3,0.9,3,587,1,1,587,1,0,2.2,0.2,0.28577745,0.28577745,NaN,NaN,NaN,1.5,1.5,1,1,1052,NaN,NaN,NaN,NaN
1052,103,1,23,NaN,NaN,0,2,1,2,632,1,1,632,1,0,3,NaN,0.686312408,0.686312408,NaN,NaN,NaN,-0.5,1.5,1,1,1052,NaN,NaN,NaN,0
1052,103,1,24,NaN,NaN,1,3,1,3,657,1,1,657,1,0,3,0.2,0.908831828,0.908831828,NaN,NaN,NaN,1.5,-1.5,1,1,1052,NaN,NaN,NaN,1
1052,103,1,25,NaN,NaN,2,4,1,4,632,1,1,632,1,0,3,0.4,0.686312408,0.686312408,NaN,NaN,NaN,1.5,-1.5,1,1,1052,NaN,NaN,NaN,NaN
1052,103,1,26,NaN,NaN,1,1,1,1,505,1,1,505,1,0,2.6,NaN,-0.44408625,-0.44408625,NaN,NaN,NaN,-0.5,-0.5,1,1,1052,NaN,NaN,NaN,1
1052,103,1,27,NaN,NaN,0,2,1,2,393,1,1,393,1,0,2.4,NaN,-1.440973255,-1.440973255,NaN,NaN,NaN,1.5,-0.5,1,1,1052,NaN,NaN,NaN,0
1052,103,1,28,NaN,NaN,2,4,1,4,489,1,1,489,1,0,2,NaN,-0.586498679,-0.586498679,NaN,NaN,NaN,-0.5,-0.5,1,1,1052,NaN,NaN,NaN,NaN
1052,103,1,29,NaN,NaN,1,3,1,3,673,1,1,673,1,0,1.6,NaN,1.051244258,1.051244258,NaN,NaN,NaN,-0.5,1.5,1,1,1052,NaN,NaN,NaN,1
1052,103,1,30,NaN,NaN,0,2,1,2,530,1,1,530,1,0,2.2,NaN,-0.221566829,-0.221566829,NaN,NaN,NaN,1.5,0.5,1,1,1052,NaN,NaN,NaN,0
1052,103,1,31,NaN,NaN,2,3,1,3,638,1,1,638,1,0,2.6,NaN,0.739717068,0.739717068,NaN,NaN,NaN,1.5,0.5,1,1,1052,NaN,NaN,NaN,NaN
1052,103,1,32,NaN,NaN,0,2,1,2,615,1,1,615,1,0,2.8,NaN,0.534999201,0.534999201,NaN,NaN,NaN,-0.5,-0.5,1,1,1052,NaN,NaN,NaN,0
1052,103,1,33,NaN,NaN,2,3,1,3,550,1,1,550,1,0,2.8,NaN,-0.043551293,-0.043551293,NaN,NaN,NaN,0.5,-1.5,1,1,1052,NaN,NaN,NaN,NaN
1052,103,1,34,NaN,NaN,0,2,1,2,581,1,1,581,1,0,2.6,NaN,0.232372789,0.232372789,NaN,NaN,NaN,1.5,-0.5,1,1,1052,NaN,NaN,NaN,0
1052,103,1,35,NaN,NaN,1,4,1,4,572,1,1,572,1,0,2.2,0.4,0.152265798,0.152265798,NaN,NaN,NaN,1.5,1.5,1,1,1052,NaN,NaN,NaN,1
1052,103,1,36,NaN,NaN,0,2,1,3,626,0,1,NaN,0,0,2.4,NaN,0.632907747,NaN,NaN,NaN,NaN,1.5,-0.5,0,1,1052,NaN,NaN,NaN,0
1052,103,1,37,NaN,NaN,0,3,0.8,3,594,1,1,594,1,0,1.8,0.6,0.348082888,0.348082888,NaN,NaN,NaN,1.5,1.5,1,1,1052,NaN,NaN,NaN,0
1052,103,1,38,NaN,NaN,0,4,0.8,4,653,1,1,653,1,0,2.2,NaN,0.873228721,0.873228721,NaN,NaN,NaN,-1.5,1.5,1,1,1052,NaN,NaN,NaN,0
1052,103,1,39,NaN,NaN,0,2,0.8,2,422,1,1,422,1,0,2.8,NaN,-1.182850727,-1.182850727,NaN,NaN,NaN,-0.5,0.5,1,1,1052,NaN,NaN,NaN,0
1052,103,1,40,NaN,NaN,2,4,0.8,4,515,1,1,515,1,0,3,NaN,-0.355078482,-0.355078482,NaN,NaN,NaN,-1.5,1.5,1,1,1052,NaN,NaN,NaN,NaN
1052,103,1,41,NaN,NaN,1,1,0.8,1,529,1,1,529,1,0,3,NaN,-0.230467606,-0.230467606,NaN,NaN,NaN,-1.5,1.5,1,1,1052,NaN,NaN,NaN,1
1052,103,1,42,NaN,NaN,0,2,0.8,2,518,1,1,518,1,0,3.8,NaN,-0.328376151,-0.328376151,NaN,NaN,NaN,-1.5,0.5,1,1,1052,NaN,NaN,NaN,0
1052,103,1,43,NaN,NaN,2,3,0.8,3,579,1,1,579,1,0,3.6,0.8,0.214571235,0.214571235,NaN,NaN,NaN,1.5,1.5,1,1,1052,NaN,NaN,NaN,NaN
1052,103,1,44,NaN,NaN,1,4,0.8,4,567,1,1,567,1,0,3.6,NaN,0.107761913,0.107761913,NaN,NaN,NaN,-0.5,-1.5,1,1,1052,NaN,NaN,NaN,1
1052,103,1,45,NaN,NaN,1,1,0.8,1,542,1,1,542,1,0,3.2,NaN,-0.114757507,-0.114757507,NaN,NaN,NaN,1.5,0.5,1,1,1052,NaN,NaN,NaN,1
1052,103,1,46,NaN,NaN,0,3,0.8,3,568,1,1,568,1,0,3,NaN,0.11666269,0.11666269,NaN,NaN,NaN,0.5,1.5,1,1,1052,NaN,NaN,NaN,0
1052,103,1,47,NaN,NaN,1,1,0.8,1,548,1,1,548,1,0,3,NaN,-0.061352846,-0.061352846,NaN,NaN,NaN,-0.5,-0.5,1,1,1052,NaN,NaN,NaN,1
1052,103,1,48,NaN,NaN,2,4,0.8,4,510,1,1,510,1,0,2.8,NaN,-0.399582366,-0.399582366,NaN,NaN,NaN,-1.5,-1.5,1,1,1052,NaN,NaN,NaN,NaN
1052,103,1,49,NaN,NaN,0,2,0.8,3,564,0,1,NaN,0,0,2.2,NaN,0.081059583,NaN,NaN,NaN,NaN,0.5,1.5,0,1,1052,NaN,NaN,NaN,0
1052,103,1,50,NaN,NaN,0,4,0.8,4,669,1,1,669,1,0,2,NaN,1.01564115,1.01564115,NaN,NaN,NaN,-0.5,0.5,1,1,1052,NaN,NaN,NaN,0
1052,103,1,51,NaN,NaN,1,1,0.8,1,508,1,1,508,1,0,2,NaN,-0.41738392,-0.41738392,NaN,NaN,NaN,0.5,1.5,1,1,1052,NaN,NaN,NaN,1
1052,103,1,52,NaN,NaN,0,3,0.8,3,731,1,1,731,1,0,2,NaN,1.567489314,1.567489314,NaN,NaN,NaN,-1.5,-0.5,1,1,1052,NaN,NaN,NaN,0
1052,103,1,53,NaN,NaN,1,2,0.8,2,577,1,1,577,1,0,2,NaN,0.196769682,0.196769682,NaN,NaN,NaN,0.5,-1.5,1,1,1052,NaN,NaN,NaN,1
1052,103,1,54,NaN,NaN,1,3,0.8,3,409,1,1,409,1,0,2,NaN,-1.298560826,-1.298560826,NaN,NaN,NaN,-0.5,-0.5,1,1,1052,NaN,NaN,NaN,1
1052,103,1,55,NaN,NaN,1,1,0.8,1,561,1,1,561,1,0,2.4,NaN,0.054357252,0.054357252,NaN,NaN,NaN,-0.5,-1.5,1,1,1052,NaN,NaN,NaN,1
1052,103,1,56,NaN,NaN,0,4,0.8,4,552,1,1,552,1,0,2,NaN,-0.025749739,-0.025749739,NaN,NaN,NaN,1.5,0.5,1,1,1052,NaN,NaN,NaN,0
1052,103,1,57,NaN,NaN,0,2,0.8,2,843,1,0,843,0,0,1.8,NaN,2.564376319,2.564376319,NaN,NaN,NaN,-0.5,1.5,0,1,1052,NaN,NaN,NaN,0
1052,103,1,58,NaN,NaN,0,4,0.8,4,668,1,1,668,1,0,1.4,NaN,1.006740373,1.006740373,NaN,NaN,NaN,-1.5,-0.5,1,1,1052,NaN,NaN,NaN,0
1052,103,1,59,NaN,NaN,2,2,0.8,4,562,0,1,NaN,0,0,1.6,NaN,0.063258029,NaN,NaN,NaN,NaN,0.5,-1.5,0,1,1052,NaN,NaN,NaN,NaN
1052,103,1,60,NaN,NaN,1,3,0.8,3,841,1,0,841,0,0,1.2,NaN,2.546574765,2.546574765,NaN,NaN,NaN,0.5,0.5,0,1,1052,NaN,NaN,NaN,1
1052,103,1,61,NaN,NaN,1,4,0.8,4,542,1,1,542,1,0,1,1,-0.114757507,-0.114757507,NaN,NaN,NaN,1.5,1.5,1,1,1052,NaN,NaN,NaN,1
1052,103,1,62,NaN,NaN,0,1,1,1,580,1,1,580,1,0,1.2,NaN,0.223472012,0.223472012,NaN,NaN,NaN,-0.5,-0.5,1,1,1052,NaN,NaN,NaN,0
1052,103,1,63,NaN,NaN,2,4,1,4,575,1,1,575,1,0,1.6,NaN,0.178968128,0.178968128,NaN,NaN,NaN,0.5,0.5,1,1,1052,NaN,NaN,NaN,NaN
1052,103,1,64,NaN,NaN,1,1,1,1,547,1,1,547,1,0,1.8,NaN,-0.070253623,-0.070253623,NaN,NaN,NaN,0.5,1.5,1,1,1052,NaN,NaN,NaN,1
1052,103,1,65,NaN,NaN,1,4,1,4,818,1,0,818,0,0,2.6,NaN,2.341856898,2.341856898,NaN,NaN,NaN,1.5,0.5,0,1,1052,NaN,NaN,NaN,1
1052,103,1,66,NaN,NaN,1,3,0.8,3,794,1,0,794,1,0,2.6,NaN,2.128238254,2.128238254,NaN,NaN,NaN,-1.5,0.5,1,1,1052,NaN,NaN,NaN,1
1052,103,1,67,NaN,NaN,0,2,0.8,2,511,1,1,511,1,0,2.4,NaN,-0.390681589,-0.390681589,NaN,NaN,NaN,-0.5,1.5,1,1,1052,NaN,NaN,NaN,0
1052,103,1,68,NaN,NaN,2,1,0.8,1,495,1,1,495,1,0,2.8,NaN,-0.533094018,-0.533094018,NaN,NaN,NaN,-0.5,-1.5,1,1,1052,NaN,NaN,NaN,NaN
1052,103,1,69,NaN,NaN,0,3,0.8,3,702,1,1,702,1,0,2.4,1,1.309366786,1.309366786,NaN,NaN,NaN,1.5,1.5,1,1,1052,NaN,NaN,NaN,0
1052,103,1,70,NaN,NaN,0,4,0.8,4,607,1,1,607,1,0,2.4,NaN,0.463792987,0.463792987,NaN,NaN,NaN,0.5,-1.5,1,1,1052,NaN,NaN,NaN,0
1052,103,1,71,NaN,NaN,2,2,0.8,2,671,1,1,671,1,0,2.6,NaN,1.033442704,1.033442704,NaN,NaN,NaN,-1.5,1.5,1,1,1052,NaN,NaN,NaN,NaN
1052,103,1,72,NaN,NaN,1,4,0.8,4,647,1,1,647,1,0,2.8,NaN,0.81982406,0.81982406,NaN,NaN,NaN,0.5,-0.5,1,1,1052,NaN,NaN,NaN,1
1052,103,1,73,NaN,NaN,2,3,0.8,3,614,1,1,614,1,0,2.4,NaN,0.526098425,0.526098425,NaN,NaN,NaN,1.5,-0.5,1,1,1052,NaN,NaN,NaN,NaN
1052,103,1,74,NaN,NaN,0,1,0.8,1,479,1,1,479,1,0,2.6,0.6,-0.675506448,-0.675506448,NaN,NaN,NaN,1.5,-1.5,1,1,1052,NaN,NaN,NaN,0
1052,103,1,75,NaN,NaN,0,4,0.8,4,789,1,0,789,1,0,2,NaN,2.08373437,2.08373437,NaN,NaN,NaN,0.5,0.5,1,1,1052,NaN,NaN,NaN,0
1052,103,2,76,NaN,NaN,2,2,0.8,2,786,1,0,786,1,0,2.4,NaN,2.05703204,2.05703204,NaN,NaN,NaN,-0.5,-1.5,1,2,1052,NaN,NaN,NaN,NaN
1052,103,2,77,NaN,NaN,0,4,0.8,4,730,1,1,730,1,0,1.8,NaN,1.558588537,1.558588537,NaN,NaN,NaN,-0.5,-0.5,1,2,1052,NaN,NaN,NaN,0
1052,103,2,78,NaN,NaN,2,2,0.8,2,548,1,1,548,1,0,1.8,NaN,-0.061352846,-0.061352846,NaN,NaN,NaN,-0.5,-1.5,1,2,1052,NaN,NaN,NaN,NaN
1052,103,2,79,NaN,NaN,1,1,0.8,1,366,1,1,366,1,0,1.6,NaN,-1.68129423,-1.68129423,NaN,NaN,NaN,-0.5,0.5,1,2,1052,NaN,NaN,NaN,1
1052,103,2,80,NaN,NaN,1,3,0.8,3,521,1,1,521,1,0,2,NaN,-0.301673821,-0.301673821,NaN,NaN,NaN,-1.5,1.5,1,2,1052,NaN,NaN,NaN,1
1052,103,2,81,NaN,NaN,1,1,0.8,1,367,1,1,367,1,0,2.2,NaN,-1.672393453,-1.672393453,NaN,NaN,NaN,0.5,1.5,1,2,1052,NaN,NaN,NaN,1
1052,103,2,82,NaN,NaN,2,2,0.8,2,449,1,1,449,1,0,2.8,NaN,-0.942529753,-0.942529753,NaN,NaN,NaN,-1.5,-0.5,1,2,1052,NaN,NaN,NaN,NaN
1052,103,2,83,NaN,NaN,1,1,0.8,1,426,1,1,426,1,0,2.8,NaN,-1.14724762,-1.14724762,NaN,NaN,NaN,0.5,-1.5,1,2,1052,NaN,NaN,NaN,1
1052,103,2,84,NaN,NaN,1,3,0.8,3,525,1,1,525,1,0,2.8,NaN,-0.266070713,-0.266070713,NaN,NaN,NaN,-0.5,-1.5,1,2,1052,NaN,NaN,NaN,1
1052,103,2,85,NaN,NaN,1,2,0.8,2,593,1,1,593,1,0,2.4,1,0.339182111,0.339182111,NaN,NaN,NaN,1.5,1.5,1,2,1052,NaN,NaN,NaN,1
1052,103,2,86,NaN,NaN,1,3,0.8,3,675,1,1,675,1,0,2.4,NaN,1.069045811,1.069045811,NaN,NaN,NaN,-0.5,0.5,1,2,1052,NaN,NaN,NaN,1
1052,103,2,87,NaN,NaN,0,1,0.8,1,361,1,1,361,1,0,2.2,NaN,-1.725798114,-1.725798114,NaN,NaN,NaN,-1.5,-1.5,1,2,1052,NaN,NaN,NaN,0
1052,103,2,88,NaN,NaN,2,2,0.8,2,417,1,1,417,1,0,2,NaN,-1.227354611,-1.227354611,NaN,NaN,NaN,0.5,0.5,1,2,1052,NaN,NaN,NaN,NaN
1052,103,2,89,NaN,NaN,1,1,0.8,1,451,1,1,451,1,0,2.4,NaN,-0.924728199,-0.924728199,NaN,NaN,NaN,-1.5,-0.5,1,2,1052,NaN,NaN,NaN,1
1052,103,2,90,NaN,NaN,0,2,0.8,2,643,1,1,643,0,0,2.6,NaN,0.784220953,0.784220953,NaN,NaN,NaN,-1.5,-1.5,0,2,1052,NaN,NaN,NaN,0
1052,103,2,91,NaN,NaN,1,4,0.8,4,602,1,1,602,1,0,1.8,0.8,0.419289103,0.419289103,NaN,NaN,NaN,1.5,-1.5,1,2,1052,NaN,NaN,NaN,1
1052,103,2,92,NaN,NaN,0,2,1,2,338,1,1,338,1,0,1.4,NaN,-1.930515981,-1.930515981,NaN,NaN,NaN,1.5,-0.5,1,2,1052,NaN,NaN,NaN,0
1052,103,2,93,NaN,NaN,1,3,1,3,424,1,1,424,1,0,1.6,NaN,-1.165049173,-1.165049173,NaN,NaN,NaN,1.5,-0.5,1,2,1052,NaN,NaN,NaN,1
1052,103,2,94,NaN,NaN,2,4,1,4,502,1,1,502,1,0,1.4,NaN,-0.470788581,-0.470788581,NaN,NaN,NaN,0.5,-0.5,1,2,1052,NaN,NaN,NaN,NaN
1052,103,2,95,NaN,NaN,1,1,1,1,473,1,1,473,1,0,1.4,NaN,-0.728911109,-0.728911109,NaN,NaN,NaN,1.5,0.5,1,2,1052,NaN,NaN,NaN,1
1052,103,2,96,NaN,NaN,2,4,1,4,551,1,1,551,1,0,2,NaN,-0.034650516,-0.034650516,NaN,NaN,NaN,0.5,-1.5,1,2,1052,NaN,NaN,NaN,NaN
1052,103,2,97,NaN,NaN,1,2,1,2,751,1,0,751,0,0,2,NaN,1.74550485,1.74550485,NaN,NaN,NaN,-0.5,-0.5,0,2,1052,NaN,NaN,NaN,1
1052,103,2,98,NaN,NaN,1,1,1,1,382,1,1,382,1,0,1.6,NaN,-1.5388818,-1.5388818,NaN,NaN,NaN,-1.5,-1.5,1,2,1052,NaN,NaN,NaN,1
1052,103,2,99,NaN,NaN,2,3,1,2,754,0,0,NaN,0,0,1.4,1,1.772207181,NaN,NaN,NaN,NaN,1.5,-1.5,0,2,1052,NaN,NaN,NaN,NaN
1052,103,2,100,NaN,NaN,1,4,0.8,3,662,0,1,NaN,0,0,1,1,0.953335712,NaN,NaN,NaN,NaN,1.5,1.5,0,2,1052,NaN,NaN,NaN,1
1052,103,2,101,NaN,NaN,1,3,0.6,3,768,1,0,768,1,0,0.4,NaN,1.896818057,1.896818057,NaN,NaN,NaN,-1.5,0.5,1,2,1052,NaN,NaN,NaN,1
1052,103,2,102,NaN,NaN,2,1,0.6,1,405,1,1,405,1,0,0.8,0.8,-1.334163933,-1.334163933,NaN,NaN,NaN,1.5,-1.5,1,2,1052,NaN,NaN,NaN,NaN
1052,103,2,103,NaN,NaN,1,3,0.6,3,504,1,1,504,1,0,1,NaN,-0.452987027,-0.452987027,NaN,NaN,NaN,0.5,-0.5,1,2,1052,NaN,NaN,NaN,1
1052,103,2,104,NaN,NaN,2,1,0.6,1,539,1,1,539,1,0,1.2,NaN,-0.141459838,-0.141459838,NaN,NaN,NaN,1.5,-0.5,1,2,1052,NaN,NaN,NaN,NaN
1052,103,2,105,NaN,NaN,0,3,0.6,3,801,1,0,801,0,0,1.6,NaN,2.190543692,2.190543692,NaN,NaN,NaN,-1.5,-1.5,0,2,1052,NaN,NaN,NaN,0
1052,103,2,106,NaN,NaN,1,4,0.6,4,588,1,1,588,1,0,1.6,NaN,0.294678227,0.294678227,NaN,NaN,NaN,-0.5,-0.5,1,2,1052,NaN,NaN,NaN,1
1052,103,2,107,NaN,NaN,2,3,0.6,3,744,1,1,744,1,0,1.4,NaN,1.683199413,1.683199413,NaN,NaN,NaN,0.5,-1.5,1,2,1052,NaN,NaN,NaN,NaN
1052,103,2,108,NaN,NaN,0,1,0.6,1,377,1,1,377,0,0,1.4,NaN,-1.583385684,-1.583385684,NaN,NaN,NaN,-0.5,1.5,0,2,1052,NaN,NaN,NaN,0
1052,103,2,109,NaN,NaN,1,4,0.6,4,610,1,1,610,1,0,1,NaN,0.490495317,0.490495317,NaN,NaN,NaN,-1.5,-0.5,1,2,1052,NaN,NaN,NaN,1
1052,103,2,110,NaN,NaN,0,1,0.6,1,585,1,1,585,0,0,1,NaN,0.267975896,0.267975896,NaN,NaN,NaN,-0.5,-0.5,0,2,1052,NaN,NaN,NaN,0
1052,103,2,111,NaN,NaN,1,4,0.6,4,478,1,1,478,1,0,1,NaN,-0.684407225,-0.684407225,NaN,NaN,NaN,-0.5,-1.5,1,2,1052,NaN,NaN,NaN,1
1052,103,2,112,NaN,NaN,2,2,0.6,2,540,1,1,540,1,0,0.8,NaN,-0.132559061,-0.132559061,NaN,NaN,NaN,-0.5,0.5,1,2,1052,NaN,NaN,NaN,NaN
1052,103,2,113,NaN,NaN,1,3,0.6,3,762,1,0,762,0,0,1.2,NaN,1.843413396,1.843413396,NaN,NaN,NaN,-0.5,0.5,0,2,1052,NaN,NaN,NaN,1
1052,103,2,114,NaN,NaN,0,1,0.6,1,557,1,1,557,1,0,1.2,NaN,0.018754145,0.018754145,NaN,NaN,NaN,-0.5,1.5,1,2,1052,NaN,NaN,NaN,0
1052,103,2,115,NaN,NaN,1,3,0.6,3,563,1,1,563,1,0,1.6,NaN,0.072158806,0.072158806,NaN,NaN,NaN,0.5,-1.5,1,2,1052,NaN,NaN,NaN,1
1052,103,2,116,NaN,NaN,1,2,0.6,2,690,1,1,690,1,0,1.8,NaN,1.202557464,1.202557464,NaN,NaN,NaN,-0.5,-0.5,1,2,1052,NaN,NaN,NaN,1
1052,103,2,117,NaN,NaN,2,1,0.6,1,537,1,1,537,1,0,2,NaN,-0.159261391,-0.159261391,NaN,NaN,NaN,0.5,1.5,1,2,1052,NaN,NaN,NaN,NaN
1052,103,2,118,NaN,NaN,1,3,0.6,3,405,1,1,405,1,0,2.2,NaN,-1.334163933,-1.334163933,NaN,NaN,NaN,-0.5,1.5,1,2,1052,NaN,NaN,NaN,1
1052,103,2,119,NaN,NaN,0,2,0.6,2,712,1,1,712,1,0,3,0.8,1.398374554,1.398374554,NaN,NaN,NaN,1.5,-1.5,1,2,1052,NaN,NaN,NaN,0
1052,103,2,120,NaN,NaN,1,3,0.6,3,592,1,1,592,1,0,2.4,NaN,0.330281334,0.330281334,NaN,NaN,NaN,-0.5,1.5,1,2,1052,NaN,NaN,NaN,1
1052,103,2,121,NaN,NaN,1,1,0.6,1,447,1,1,447,1,0,3,NaN,-0.960331306,-0.960331306,NaN,NaN,NaN,-1.5,0.5,1,2,1052,NaN,NaN,NaN,1
1052,103,2,122,NaN,NaN,1,2,0.6,2,385,1,1,385,0,0,3.2,NaN,-1.51217947,-1.51217947,NaN,NaN,NaN,-0.5,-1.5,0,2,1052,NaN,NaN,NaN,1
1052,103,2,123,NaN,NaN,2,3,0.6,3,441,1,1,441,1,0,2.4,NaN,-1.013735967,-1.013735967,NaN,NaN,NaN,0.5,-1.5,1,2,1052,NaN,NaN,NaN,NaN
1052,103,2,124,NaN,NaN,1,2,0.6,2,468,1,1,468,1,0,1.8,NaN,-0.773414993,-0.773414993,NaN,NaN,NaN,0.5,0.5,1,2,1052,NaN,NaN,NaN,1
1052,103,2,125,NaN,NaN,2,1,0.6,1,569,1,1,569,1,0,2.2,0.8,0.125563467,0.125563467,NaN,NaN,NaN,1.5,1.5,1,2,1052,NaN,NaN,NaN,NaN
1052,103,2,126,NaN,NaN,1,3,0.8,3,565,1,1,565,1,0,2.2,0.8,0.08996036,0.08996036,NaN,NaN,NaN,1.5,-1.5,1,2,1052,NaN,NaN,NaN,1
1052,103,2,127,NaN,NaN,2,4,1,4,507,1,1,507,1,0,1.8,NaN,-0.426284696,-0.426284696,NaN,NaN,NaN,-0.5,-0.5,1,2,1052,NaN,NaN,NaN,NaN
1052,103,2,128,NaN,NaN,1,1,1,3,284,0,1,NaN,1,0,2.2,NaN,-2.41115793,NaN,NaN,NaN,NaN,-1.5,-1.5,1,2,1052,NaN,NaN,NaN,1
1052,103,2,129,NaN,NaN,0,2,1,3,588,0,1,NaN,1,0,2.2,NaN,0.294678227,NaN,NaN,NaN,NaN,0.5,-1.5,1,2,1052,NaN,NaN,NaN,0
1052,103,2,130,NaN,NaN,1,3,1,3,530,1,1,530,1,0,1.8,NaN,-0.221566829,-0.221566829,NaN,NaN,NaN,0.5,-0.5,1,2,1052,NaN,NaN,NaN,1
1052,103,2,131,NaN,NaN,0,4,1,4,593,1,1,593,1,0,1.4,NaN,0.339182111,0.339182111,NaN,NaN,NaN,0.5,-0.5,1,2,1052,NaN,NaN,NaN,0
1052,103,2,132,NaN,NaN,2,3,1,3,680,1,1,680,1,0,1.6,NaN,1.113549695,1.113549695,NaN,NaN,NaN,-0.5,0.5,1,2,1052,NaN,NaN,NaN,NaN
1052,103,2,133,NaN,NaN,0,1,1,1,389,1,1,389,1,0,1.8,NaN,-1.476576362,-1.476576362,NaN,NaN,NaN,1.5,-0.5,1,2,1052,NaN,NaN,NaN,0
1052,103,2,134,NaN,NaN,2,4,1,4,535,1,1,535,1,0,2,NaN,-0.177062945,-0.177062945,NaN,NaN,NaN,1.5,0.5,1,2,1052,NaN,NaN,NaN,NaN
1052,103,2,135,NaN,NaN,0,3,1,3,719,1,1,719,1,0,2.4,NaN,1.460679992,1.460679992,NaN,NaN,NaN,-1.5,-0.5,1,2,1052,NaN,NaN,NaN,0
1052,103,2,136,NaN,NaN,2,2,1,2,624,1,1,624,1,0,2.4,NaN,0.615106193,0.615106193,NaN,NaN,NaN,-0.5,1.5,1,2,1052,NaN,NaN,NaN,NaN
1052,103,2,137,NaN,NaN,0,3,1,3,623,1,1,623,1,0,2.8,0.8,0.606205416,0.606205416,NaN,NaN,NaN,1.5,-1.5,1,2,1052,NaN,NaN,NaN,0
1052,103,2,138,NaN,NaN,2,1,1,1,489,1,1,489,1,0,2.4,NaN,-0.586498679,-0.586498679,NaN,NaN,NaN,0.5,-1.5,1,2,1052,NaN,NaN,NaN,NaN
1052,103,2,139,NaN,NaN,0,2,1,2,554,1,1,554,1,0,2.2,NaN,-0.007948185,-0.007948185,NaN,NaN,NaN,1.5,0.5,1,2,1052,NaN,NaN,NaN,0
1052,103,2,140,NaN,NaN,2,1,1,1,548,1,1,548,1,0,2.2,NaN,-0.061352846,-0.061352846,NaN,NaN,NaN,-0.5,-1.5,1,2,1052,NaN,NaN,NaN,NaN
1052,103,2,141,NaN,NaN,0,4,1,3,494,0,1,NaN,1,0,2,NaN,-0.541994795,NaN,NaN,NaN,NaN,-1.5,1.5,1,2,1052,NaN,NaN,NaN,0
1052,103,2,142,NaN,NaN,2,1,1,1,459,1,1,459,1,0,2,NaN,-0.853521984,-0.853521984,NaN,NaN,NaN,1.5,0.5,1,2,1052,NaN,NaN,NaN,NaN
1052,103,2,143,NaN,NaN,0,2,1,2,412,1,1,412,1,0,2.4,0.8,-1.271858495,-1.271858495,NaN,NaN,NaN,1.5,1.5,1,2,1052,NaN,NaN,NaN,0
1052,103,2,144,NaN,NaN,0,3,1,3,734,1,1,734,1,0,3,NaN,1.594191644,1.594191644,NaN,NaN,NaN,-0.5,-1.5,1,2,1052,NaN,NaN,NaN,0
1052,103,2,145,NaN,NaN,0,4,1,4,562,1,1,562,1,0,2.6,NaN,0.063258029,0.063258029,NaN,NaN,NaN,-1.5,1.5,1,2,1052,NaN,NaN,NaN,0
1052,103,2,146,NaN,NaN,1,1,1,1,465,1,1,465,1,0,3.2,NaN,-0.800117323,-0.800117323,NaN,NaN,NaN,0.5,1.5,1,2,1052,NaN,NaN,NaN,1
1052,103,2,147,NaN,NaN,1,4,1,4,479,1,1,479,1,0,3.2,NaN,-0.675506448,-0.675506448,NaN,NaN,NaN,-1.5,0.5,1,2,1052,NaN,NaN,NaN,1
1052,103,2,148,NaN,NaN,0,1,1,1,516,1,1,516,1,0,3.2,NaN,-0.346177705,-0.346177705,NaN,NaN,NaN,-1.5,1.5,1,2,1052,NaN,NaN,NaN,0
1052,103,2,149,NaN,NaN,0,2,1,2,338,1,1,338,1,0,3.2,NaN,-1.930515981,-1.930515981,NaN,NaN,NaN,0.5,-0.5,1,2,1052,NaN,NaN,NaN,0
1052,103,2,150,NaN,NaN,0,4,1,4,534,1,1,534,1,0,3.4,NaN,-0.185963722,-0.185963722,NaN,NaN,NaN,-1.5,-1.5,1,2,1052,NaN,NaN,NaN,0
1052,103,3,151,NaN,NaN,0,1,1,1,490,1,1,490,1,0,2.8,NaN,-0.577597903,-0.577597903,NaN,NaN,NaN,0.5,-0.5,1,3,1052,NaN,NaN,NaN,0
1052,103,3,152,NaN,NaN,0,2,1,2,353,1,1,353,1,0,2.4,NaN,-1.797004328,-1.797004328,NaN,NaN,NaN,0.5,-0.5,1,3,1052,NaN,NaN,NaN,0
1052,103,3,153,NaN,NaN,0,4,1,4,401,1,1,401,1,0,2.2,NaN,-1.369767041,-1.369767041,NaN,NaN,NaN,-1.5,0.5,1,3,1052,NaN,NaN,NaN,0
1052,103,3,154,NaN,NaN,0,3,1,3,521,1,1,521,1,0,2,NaN,-0.301673821,-0.301673821,NaN,NaN,NaN,-0.5,1.5,1,3,1052,NaN,NaN,NaN,0
1052,103,3,155,NaN,NaN,0,4,1,4,508,1,1,508,1,0,2.4,NaN,-0.41738392,-0.41738392,NaN,NaN,NaN,-1.5,0.5,1,3,1052,NaN,NaN,NaN,0
1052,103,3,156,NaN,NaN,2,3,1,3,644,1,1,644,1,0,2.8,NaN,0.793121729,0.793121729,NaN,NaN,NaN,-1.5,0.5,1,3,1052,NaN,NaN,NaN,NaN
1052,103,3,157,NaN,NaN,1,2,1,2,536,1,1,536,1,0,3,NaN,-0.168162168,-0.168162168,NaN,NaN,NaN,0.5,0.5,1,3,1052,NaN,NaN,NaN,1
1052,103,3,158,NaN,NaN,2,1,1,1,404,1,1,404,1,0,3.2,NaN,-1.34306471,-1.34306471,NaN,NaN,NaN,0.5,1.5,1,3,1052,NaN,NaN,NaN,NaN
1052,103,3,159,NaN,NaN,1,3,1,4,560,0,1,NaN,1,0,3.4,NaN,0.045456476,NaN,NaN,NaN,NaN,-1.5,0.5,1,3,1052,NaN,NaN,NaN,1
1052,103,3,160,NaN,NaN,1,4,1,4,789,1,0,789,1,0,3.2,NaN,2.08373437,2.08373437,NaN,NaN,NaN,0.5,0.5,1,3,1052,NaN,NaN,NaN,1
1052,103,3,161,NaN,NaN,2,2,1,2,585,1,1,585,1,0,3.2,NaN,0.267975896,0.267975896,NaN,NaN,NaN,0.5,-0.5,1,3,1052,NaN,NaN,NaN,NaN
1052,103,3,162,NaN,NaN,1,3,1,3,474,1,1,474,1,0,3,NaN,-0.720010332,-0.720010332,NaN,NaN,NaN,-0.5,-0.5,1,3,1052,NaN,NaN,NaN,1
1052,103,3,163,NaN,NaN,2,1,1,1,424,1,1,424,1,0,2.8,NaN,-1.165049173,-1.165049173,NaN,NaN,NaN,-1.5,1.5,1,3,1052,NaN,NaN,NaN,NaN
1052,103,3,164,NaN,NaN,1,4,1,3,558,0,1,NaN,0,0,2.8,NaN,0.027654922,NaN,NaN,NaN,NaN,-1.5,0.5,0,3,1052,NaN,NaN,NaN,1
1052,103,3,165,NaN,NaN,0,2,1,2,377,1,1,377,1,0,2.2,NaN,-1.583385684,-1.583385684,NaN,NaN,NaN,0.5,-1.5,1,3,1052,NaN,NaN,NaN,0
1052,103,3,166,NaN,NaN,0,3,1,NaN,NaN,0,0,NaN,0,1,1.8,NaN,NaN,NaN,NaN,NaN,NaN,0.5,0.5,0,3,1052,NaN,NaN,NaN,0
1052,103,3,167,NaN,NaN,2,4,1,4,541,1,1,541,1,0,1.4,NaN,-0.123658284,-0.123658284,NaN,NaN,NaN,-0.5,1.5,1,3,1052,NaN,NaN,NaN,NaN
1052,103,3,168,NaN,NaN,1,1,1,1,469,1,1,469,1,0,1.8,NaN,-0.764514216,-0.764514216,NaN,NaN,NaN,1.5,-0.5,1,3,1052,NaN,NaN,NaN,1
1052,103,3,169,NaN,NaN,1,3,1,3,699,1,1,699,1,0,1.4,NaN,1.282664455,1.282664455,NaN,NaN,NaN,0.5,0.5,1,3,1052,NaN,NaN,NaN,1
1052,103,3,170,NaN,NaN,1,2,1,2,560,1,1,560,1,0,2,NaN,0.045456476,0.045456476,NaN,NaN,NaN,-0.5,-0.5,1,3,1052,NaN,NaN,NaN,1
1052,103,3,171,NaN,NaN,2,1,1,1,365,1,1,365,1,0,2.2,NaN,-1.690195006,-1.690195006,NaN,NaN,NaN,-1.5,1.5,1,3,1052,NaN,NaN,NaN,NaN
1052,103,3,172,NaN,NaN,1,4,1,4,511,1,1,511,1,0,3,NaN,-0.390681589,-0.390681589,NaN,NaN,NaN,-1.5,1.5,1,3,1052,NaN,NaN,NaN,1
1052,103,3,173,NaN,NaN,0,3,1,3,551,1,1,551,1,0,3,NaN,-0.034650516,-0.034650516,NaN,NaN,NaN,0.5,0.5,1,3,1052,NaN,NaN,NaN,0
1052,103,3,174,NaN,NaN,0,1,1,1,374,1,1,374,1,0,3.2,NaN,-1.610088015,-1.610088015,NaN,NaN,NaN,-1.5,-1.5,1,3,1052,NaN,NaN,NaN,0
1052,103,3,175,NaN,NaN,1,2,1,2,487,1,1,487,1,0,2.8,NaN,-0.604300233,-0.604300233,NaN,NaN,NaN,-0.5,-1.5,1,3,1052,NaN,NaN,NaN,1
1052,103,3,176,NaN,NaN,1,4,1,3,545,0,1,NaN,0,0,2.6,0.8,-0.088055177,NaN,NaN,NaN,NaN,1.5,-1.5,0,3,1052,NaN,NaN,NaN,1
1052,103,3,177,NaN,NaN,2,1,0.8,1,366,1,1,366,1,0,1.8,NaN,-1.68129423,-1.68129423,NaN,NaN,NaN,-1.5,1.5,1,3,1052,NaN,NaN,NaN,NaN
1052,103,3,178,NaN,NaN,1,4,0.8,3,640,0,1,NaN,0,0,1.8,NaN,0.757518622,NaN,NaN,NaN,NaN,1.5,-0.5,0,3,1052,NaN,NaN,NaN,1
1052,103,3,179,NaN,NaN,2,3,0.6,4,430,0,1,NaN,1,0,1.2,NaN,-1.111644512,NaN,NaN,NaN,NaN,-0.5,0.5,1,3,1052,NaN,NaN,NaN,NaN
1052,103,3,180,NaN,NaN,1,1,0.6,1,325,1,1,325,1,0,1.6,0.8,-2.04622608,-2.04622608,NaN,NaN,NaN,1.5,-1.5,1,3,1052,NaN,NaN,NaN,1
1052,103,3,181,NaN,NaN,1,3,0.6,3,597,1,1,597,1,0,1.6,NaN,0.374785218,0.374785218,NaN,NaN,NaN,-0.5,-1.5,1,3,1052,NaN,NaN,NaN,1
1052,103,3,182,NaN,NaN,0,1,0.6,1,452,1,1,452,1,0,1.8,NaN,-0.915827422,-0.915827422,NaN,NaN,NaN,-0.5,1.5,1,3,1052,NaN,NaN,NaN,0
1052,103,3,183,NaN,NaN,0,4,0.6,4,575,1,1,575,1,0,1.8,0.8,0.178968128,0.178968128,NaN,NaN,NaN,1.5,1.5,1,3,1052,NaN,NaN,NaN,0
1052,103,3,184,NaN,NaN,1,3,0.6,3,490,1,1,490,1,0,2.6,NaN,-0.577597903,-0.577597903,NaN,NaN,NaN,0.5,-1.5,1,3,1052,NaN,NaN,NaN,1
1052,103,3,185,NaN,NaN,0,1,0.6,1,557,1,1,557,1,0,2.2,0.8,0.018754145,0.018754145,NaN,NaN,NaN,1.5,1.5,1,3,1052,NaN,NaN,NaN,0
1052,103,3,186,NaN,NaN,2,4,0.6,4,602,1,1,602,1,0,2.8,NaN,0.419289103,0.419289103,NaN,NaN,NaN,-0.5,-0.5,1,3,1052,NaN,NaN,NaN,NaN
1052,103,3,187,NaN,NaN,1,2,0.6,2,616,1,1,616,1,0,3,NaN,0.543899978,0.543899978,NaN,NaN,NaN,1.5,0.5,1,3,1052,NaN,NaN,NaN,1
1052,103,3,188,NaN,NaN,0,3,0.8,3,943,1,0,943,1,0,2.8,NaN,3.454454002,3.454454002,NaN,NaN,NaN,-0.5,-0.5,1,3,1052,NaN,NaN,NaN,0
1052,103,3,189,NaN,NaN,1,4,0.8,4,662,1,1,662,1,0,2.4,NaN,0.953335712,0.953335712,NaN,NaN,NaN,-0.5,-0.5,1,3,1052,NaN,NaN,NaN,1
1052,103,3,190,NaN,NaN,0,3,0.8,3,617,1,1,617,1,0,2.6,0.8,0.552800755,0.552800755,NaN,NaN,NaN,1.5,-1.5,1,3,1052,NaN,NaN,NaN,0
1052,103,3,191,NaN,NaN,1,4,1,4,723,1,1,723,1,0,2,0.8,1.496283099,1.496283099,NaN,NaN,NaN,1.5,-1.5,1,3,1052,NaN,NaN,NaN,1
1052,103,3,192,NaN,NaN,1,1,1,1,532,1,1,532,1,0,1.8,NaN,-0.203765276,-0.203765276,NaN,NaN,NaN,0.5,0.5,1,3,1052,NaN,NaN,NaN,1
1052,103,3,193,NaN,NaN,2,2,1,2,590,1,1,590,1,0,1.8,0.8,0.312479781,0.312479781,NaN,NaN,NaN,1.5,1.5,1,3,1052,NaN,NaN,NaN,NaN
1052,103,3,194,NaN,NaN,1,3,1,3,538,1,1,538,1,0,2.2,NaN,-0.150360615,-0.150360615,NaN,NaN,NaN,-1.5,-0.5,1,3,1052,NaN,NaN,NaN,1
1052,103,3,195,NaN,NaN,0,1,1,1,580,1,1,580,1,0,2.2,NaN,0.223472012,0.223472012,NaN,NaN,NaN,0.5,1.5,1,3,1052,NaN,NaN,NaN,0
1052,103,3,196,NaN,NaN,1,3,1,3,554,1,1,554,1,0,2.8,NaN,-0.007948185,-0.007948185,NaN,NaN,NaN,-0.5,1.5,1,3,1052,NaN,NaN,NaN,1
1052,103,3,197,NaN,NaN,2,2,1,2,702,1,1,702,1,0,3.4,NaN,1.309366786,1.309366786,NaN,NaN,NaN,-1.5,-1.5,1,3,1052,NaN,NaN,NaN,NaN
1052,103,3,198,NaN,NaN,1,4,1,4,713,1,1,713,1,0,3,NaN,1.407275331,1.407275331,NaN,NaN,NaN,-1.5,-1.5,1,3,1052,NaN,NaN,NaN,1
1052,103,3,199,NaN,NaN,1,1,1,1,468,1,1,468,1,0,2.4,0.8,-0.773414993,-0.773414993,NaN,NaN,NaN,1.5,-1.5,1,3,1052,NaN,NaN,NaN,1
1052,103,3,200,NaN,NaN,2,2,1,2,427,1,1,427,1,0,2.2,NaN,-1.138346843,-1.138346843,NaN,NaN,NaN,-0.5,-0.5,1,3,1052,NaN,NaN,NaN,NaN
1052,103,3,201,NaN,NaN,1,4,1,4,531,1,1,531,1,0,1.8,NaN,-0.212666052,-0.212666052,NaN,NaN,NaN,0.5,-0.5,1,3,1052,NaN,NaN,NaN,1
1052,103,3,202,NaN,NaN,0,2,1,2,569,1,1,569,1,0,1.4,0.8,0.125563467,0.125563467,NaN,NaN,NaN,1.5,-1.5,1,3,1052,NaN,NaN,NaN,0
1052,103,3,203,NaN,NaN,1,3,1,3,697,1,1,697,1,0,1.4,NaN,1.264862902,1.264862902,NaN,NaN,NaN,1.5,0.5,1,3,1052,NaN,NaN,NaN,1
1052,103,3,204,NaN,NaN,0,4,1,4,679,1,1,679,1,0,1.8,1,1.104648919,1.104648919,NaN,NaN,NaN,1.5,-1.5,1,3,1052,NaN,NaN,NaN,0
1052,103,3,205,NaN,NaN,1,3,1,3,629,1,1,629,1,0,1.8,NaN,0.659610077,0.659610077,NaN,NaN,NaN,-0.5,-1.5,1,3,1052,NaN,NaN,NaN,1
1052,103,3,206,NaN,NaN,1,1,1,1,497,1,1,497,1,0,1.6,NaN,-0.515292465,-0.515292465,NaN,NaN,NaN,0.5,-0.5,1,3,1052,NaN,NaN,NaN,1
1052,103,3,207,NaN,NaN,2,2,1,2,377,1,1,377,1,0,1.6,NaN,-1.583385684,-1.583385684,NaN,NaN,NaN,-1.5,0.5,1,3,1052,NaN,NaN,NaN,NaN
1052,103,3,208,NaN,NaN,0,1,1,1,470,1,1,470,1,0,2,NaN,-0.755613439,-0.755613439,NaN,NaN,NaN,-1.5,1.5,1,3,1052,NaN,NaN,NaN,0
1052,103,3,209,NaN,NaN,1,2,1,2,555,1,1,555,1,0,2.2,NaN,0.000952592,0.000952592,NaN,NaN,NaN,-1.5,-0.5,1,3,1052,NaN,NaN,NaN,1
1052,103,3,210,NaN,NaN,2,1,1,1,344,1,1,344,1,0,2.4,1,-1.87711132,-1.87711132,NaN,NaN,NaN,1.5,-1.5,1,3,1052,NaN,NaN,NaN,NaN
1052,103,3,211,NaN,NaN,0,2,1,2,434,1,1,434,1,0,2.4,NaN,-1.076041405,-1.076041405,NaN,NaN,NaN,0.5,1.5,1,3,1052,NaN,NaN,NaN,0
1052,103,3,212,NaN,NaN,0,1,1,1,474,1,1,474,1,0,2.8,NaN,-0.720010332,-0.720010332,NaN,NaN,NaN,-0.5,1.5,1,3,1052,NaN,NaN,NaN,0
1052,103,3,213,NaN,NaN,0,2,1,2,515,1,1,515,1,0,3,1,-0.355078482,-0.355078482,NaN,NaN,NaN,1.5,-1.5,1,3,1052,NaN,NaN,NaN,0
1052,103,3,214,NaN,NaN,2,1,1,1,503,1,1,503,1,0,2.4,NaN,-0.461887804,-0.461887804,NaN,NaN,NaN,-1.5,-0.5,1,3,1052,NaN,NaN,NaN,NaN
1052,103,3,215,NaN,NaN,1,3,1,3,574,1,1,574,1,0,2.4,1,0.170067351,0.170067351,NaN,NaN,NaN,1.5,1.5,1,3,1052,NaN,NaN,NaN,1
1052,103,3,216,NaN,NaN,1,4,1,4,619,1,1,619,1,0,3,NaN,0.570602309,0.570602309,NaN,NaN,NaN,-1.5,1.5,1,3,1052,NaN,NaN,NaN,1
1052,103,3,217,NaN,NaN,1,1,1,1,475,1,1,475,1,0,3,NaN,-0.711109555,-0.711109555,NaN,NaN,NaN,-0.5,-0.5,1,3,1052,NaN,NaN,NaN,1
1052,103,3,218,NaN,NaN,0,4,1,4,537,1,1,537,1,0,2.6,NaN,-0.159261391,-0.159261391,NaN,NaN,NaN,0.5,1.5,1,3,1052,NaN,NaN,NaN,0
1052,103,3,219,NaN,NaN,1,1,1,1,447,1,1,447,1,0,3.2,1,-0.960331306,-0.960331306,NaN,NaN,NaN,1.5,1.5,1,3,1052,NaN,NaN,NaN,1
1052,103,3,220,NaN,NaN,0,2,1,2,554,1,1,554,1,0,3.6,NaN,-0.007948185,-0.007948185,NaN,NaN,NaN,0.5,0.5,1,3,1052,NaN,NaN,NaN,0
1052,103,3,221,NaN,NaN,2,4,1,4,539,1,1,539,1,0,3.4,NaN,-0.141459838,-0.141459838,NaN,NaN,NaN,-0.5,-1.5,1,3,1052,NaN,NaN,NaN,NaN
1052,103,3,222,NaN,NaN,1,2,1,2,530,1,1,530,1,0,2.8,NaN,-0.221566829,-0.221566829,NaN,NaN,NaN,-0.5,-0.5,1,3,1052,NaN,NaN,NaN,1
1052,103,3,223,NaN,NaN,2,4,1,4,593,1,1,593,1,0,2.8,NaN,0.339182111,0.339182111,NaN,NaN,NaN,0.5,0.5,1,3,1052,NaN,NaN,NaN,NaN
1052,103,3,224,NaN,NaN,1,1,1,1,518,1,1,518,1,0,2.6,1,-0.328376151,-0.328376151,NaN,NaN,NaN,1.5,1.5,1,3,1052,NaN,NaN,NaN,1
1052,103,3,225,NaN,NaN,2,4,1,4,687,1,1,687,1,0,2.6,NaN,1.175855133,1.175855133,NaN,NaN,NaN,1.5,-0.5,1,3,1052,NaN,NaN,NaN,NaN
1052,103,4,226,NaN,NaN,1,1,1,1,479,1,1,479,1,0,2.4,NaN,-0.675506448,-0.675506448,NaN,NaN,NaN,0.5,-0.5,1,4,1052,NaN,NaN,NaN,1
1052,103,4,227,NaN,NaN,0,4,1,4,435,1,1,435,1,0,2.6,NaN,-1.067140628,-1.067140628,NaN,NaN,NaN,1.5,-0.5,1,4,1052,NaN,NaN,NaN,0
1052,103,4,228,NaN,NaN,2,2,1,2,417,1,1,417,1,0,2.6,NaN,-1.227354611,-1.227354611,NaN,NaN,NaN,-0.5,-0.5,1,4,1052,NaN,NaN,NaN,NaN
1052,103,4,229,NaN,NaN,0,3,1,3,541,1,1,541,1,0,2.4,NaN,-0.123658284,-0.123658284,NaN,NaN,NaN,-1.5,0.5,1,4,1052,NaN,NaN,NaN,0
1052,103,4,230,NaN,NaN,1,2,1,2,566,1,1,566,1,0,2.2,NaN,0.098861137,0.098861137,NaN,NaN,NaN,-0.5,1.5,1,4,1052,NaN,NaN,NaN,1
1052,103,4,231,NaN,NaN,1,4,1,4,629,1,1,629,1,0,2.6,NaN,0.659610077,0.659610077,NaN,NaN,NaN,-0.5,1.5,1,4,1052,NaN,NaN,NaN,1
1052,103,4,232,NaN,NaN,2,1,1,1,418,1,1,418,1,0,3,NaN,-1.218453834,-1.218453834,NaN,NaN,NaN,0.5,1.5,1,4,1052,NaN,NaN,NaN,NaN
1052,103,4,233,NaN,NaN,1,4,1,4,430,1,1,430,1,0,3.4,NaN,-1.111644512,-1.111644512,NaN,NaN,NaN,1.5,0.5,1,4,1052,NaN,NaN,NaN,1
1052,103,4,234,NaN,NaN,0,1,1,1,502,1,1,502,1,0,3.6,NaN,-0.470788581,-0.470788581,NaN,NaN,NaN,0.5,-1.5,1,4,1052,NaN,NaN,NaN,0
1052,103,4,235,NaN,NaN,2,2,1,2,372,1,1,372,1,0,3.2,1,-1.627889569,-1.627889569,NaN,NaN,NaN,1.5,-1.5,1,4,1052,NaN,NaN,NaN,NaN
1052,103,4,236,NaN,NaN,1,3,1,3,397,1,1,397,1,0,2.6,1,-1.405370148,-1.405370148,NaN,NaN,NaN,1.5,1.5,1,4,1052,NaN,NaN,NaN,1
1052,103,4,237,NaN,NaN,1,1,1,1,583,1,1,583,1,0,2.6,NaN,0.250174343,0.250174343,NaN,NaN,NaN,-0.5,-1.5,1,4,1052,NaN,NaN,NaN,1
1052,103,4,238,NaN,NaN,1,4,1,4,497,1,1,497,1,0,2,NaN,-0.515292465,-0.515292465,NaN,NaN,NaN,0.5,0.5,1,4,1052,NaN,NaN,NaN,1
1052,103,4,239,NaN,NaN,1,2,1,2,555,1,1,555,1,0,2,NaN,0.000952592,0.000952592,NaN,NaN,NaN,-0.5,-0.5,1,4,1052,NaN,NaN,NaN,1
1052,103,4,240,NaN,NaN,0,1,1,1,507,1,1,507,1,0,2.2,NaN,-0.426284696,-0.426284696,NaN,NaN,NaN,0.5,-1.5,1,4,1052,NaN,NaN,NaN,0
1052,103,4,241,NaN,NaN,1,2,1,2,439,1,1,439,1,0,2.2,NaN,-1.031537521,-1.031537521,NaN,NaN,NaN,-1.5,0.5,1,4,1052,NaN,NaN,NaN,1
1052,103,4,242,NaN,NaN,0,3,1,3,621,1,1,621,1,0,2,NaN,0.588403862,0.588403862,NaN,NaN,NaN,0.5,1.5,1,4,1052,NaN,NaN,NaN,0
1052,103,4,243,NaN,NaN,2,2,1,2,548,1,1,548,1,0,2.6,NaN,-0.061352846,-0.061352846,NaN,NaN,NaN,0.5,1.5,1,4,1052,NaN,NaN,NaN,NaN
1052,103,4,244,NaN,NaN,1,3,1,3,537,1,1,537,1,0,2.8,1,-0.159261391,-0.159261391,NaN,NaN,NaN,1.5,-1.5,1,4,1052,NaN,NaN,NaN,1
1052,103,4,245,NaN,NaN,1,4,1,4,535,1,1,535,1,0,2.6,NaN,-0.177062945,-0.177062945,NaN,NaN,NaN,1.5,0.5,1,4,1052,NaN,NaN,NaN,1
1052,103,4,246,NaN,NaN,0,1,1,1,606,1,1,606,1,0,3,NaN,0.45489221,0.45489221,NaN,NaN,NaN,1.5,-0.5,1,4,1052,NaN,NaN,NaN,0
1052,103,4,247,NaN,NaN,0,3,1,3,633,1,1,633,1,0,2.8,NaN,0.695213184,0.695213184,NaN,NaN,NaN,-0.5,0.5,1,4,1052,NaN,NaN,NaN,0
1052,103,4,248,NaN,NaN,1,2,1,2,533,1,1,533,1,0,2.6,NaN,-0.194864499,-0.194864499,NaN,NaN,NaN,0.5,-0.5,1,4,1052,NaN,NaN,NaN,1
1052,103,4,249,NaN,NaN,2,4,1,4,716,1,1,716,1,0,2.2,NaN,1.433977661,1.433977661,NaN,NaN,NaN,-1.5,-0.5,1,4,1052,NaN,NaN,NaN,NaN
1052,103,4,250,NaN,NaN,1,1,1,1,444,1,1,444,1,0,2.4,NaN,-0.987033637,-0.987033637,NaN,NaN,NaN,-1.5,0.5,1,4,1052,NaN,NaN,NaN,1
1052,103,4,251,NaN,NaN,2,2,1,2,553,1,1,553,1,0,2.4,NaN,-0.016848962,-0.016848962,NaN,NaN,NaN,-0.5,1.5,1,4,1052,NaN,NaN,NaN,NaN
1052,103,4,252,NaN,NaN,1,4,1,4,567,1,1,567,1,0,2.8,NaN,0.107761913,0.107761913,NaN,NaN,NaN,-0.5,1.5,1,4,1052,NaN,NaN,NaN,1
1052,103,4,253,NaN,NaN,2,1,1,1,483,1,1,483,1,0,3,NaN,-0.63990334,-0.63990334,NaN,NaN,NaN,0.5,-1.5,1,4,1052,NaN,NaN,NaN,NaN
1052,103,4,254,NaN,NaN,1,3,1,3,590,1,1,590,1,0,2.8,NaN,0.312479781,0.312479781,NaN,NaN,NaN,1.5,-0.5,1,4,1052,NaN,NaN,NaN,1
1052,103,4,255,NaN,NaN,2,4,1,4,553,1,1,553,1,0,2.8,1,-0.016848962,-0.016848962,NaN,NaN,NaN,1.5,1.5,1,4,1052,NaN,NaN,NaN,NaN
1052,103,4,256,NaN,NaN,1,1,1,1,380,1,1,380,1,0,3,NaN,-1.556683354,-1.556683354,NaN,NaN,NaN,1.5,-0.5,1,4,1052,NaN,NaN,NaN,1
1052,103,4,257,NaN,NaN,0,4,1,4,832,1,0,832,1,0,2.6,NaN,2.466467774,2.466467774,NaN,NaN,NaN,-1.5,-1.5,1,4,1052,NaN,NaN,NaN,0
1052,103,4,258,NaN,NaN,1,1,1,1,373,1,1,373,1,0,2,NaN,-1.618988792,-1.618988792,NaN,NaN,NaN,-1.5,1.5,1,4,1052,NaN,NaN,NaN,1
1052,103,4,259,NaN,NaN,0,4,1,3,609,0,1,NaN,1,0,2.6,NaN,0.48159454,NaN,NaN,NaN,NaN,-1.5,1.5,1,4,1052,NaN,NaN,NaN,0
1052,103,4,260,NaN,NaN,2,3,1,3,652,1,1,652,1,0,3,NaN,0.864327944,0.864327944,NaN,NaN,NaN,-1.5,0.5,1,4,1052,NaN,NaN,NaN,NaN
1052,103,4,261,NaN,NaN,0,1,1,1,569,1,1,569,1,0,2.8,NaN,0.125563467,0.125563467,NaN,NaN,NaN,0.5,0.5,1,4,1052,NaN,NaN,NaN,0
1052,103,4,262,NaN,NaN,0,2,1,2,372,1,1,372,1,0,3,NaN,-1.627889569,-1.627889569,NaN,NaN,NaN,0.5,1.5,1,4,1052,NaN,NaN,NaN,0
1052,103,4,263,NaN,NaN,1,3,1,3,549,1,1,549,1,0,3.6,NaN,-0.052452069,-0.052452069,NaN,NaN,NaN,-1.5,-0.5,1,4,1052,NaN,NaN,NaN,1
1052,103,4,264,NaN,NaN,2,2,1,2,508,1,1,508,1,0,3.2,NaN,-0.41738392,-0.41738392,NaN,NaN,NaN,-1.5,1.5,1,4,1052,NaN,NaN,NaN,NaN
1052,103,4,265,NaN,NaN,0,4,1,4,553,1,1,553,1,0,3.2,NaN,-0.016848962,-0.016848962,NaN,NaN,NaN,0.5,-1.5,1,4,1052,NaN,NaN,NaN,0
1052,103,4,266,NaN,NaN,2,3,1,3,572,1,1,572,1,0,2.8,1,0.152265798,0.152265798,NaN,NaN,NaN,1.5,-1.5,1,4,1052,NaN,NaN,NaN,NaN
1052,103,4,267,NaN,NaN,0,2,1,2,473,1,1,473,1,0,2.4,1,-0.728911109,-0.728911109,NaN,NaN,NaN,1.5,-1.5,1,4,1052,NaN,NaN,NaN,0
1052,103,4,268,NaN,NaN,0,3,1,3,601,1,1,601,1,0,1.8,NaN,0.410388326,0.410388326,NaN,NaN,NaN,0.5,-0.5,1,4,1052,NaN,NaN,NaN,0
1052,103,4,269,NaN,NaN,0,2,1,2,562,1,1,562,1,0,1.8,NaN,0.063258029,0.063258029,NaN,NaN,NaN,1.5,-0.5,1,4,1052,NaN,NaN,NaN,0
1052,103,4,270,NaN,NaN,2,3,1,3,543,1,1,543,1,0,1.4,NaN,-0.10585673,-0.10585673,NaN,NaN,NaN,0.5,0.5,1,4,1052,NaN,NaN,NaN,NaN
1052,103,4,271,NaN,NaN,0,4,1,4,609,1,1,609,1,0,1.8,NaN,0.48159454,0.48159454,NaN,NaN,NaN,-1.5,-1.5,1,4,1052,NaN,NaN,NaN,0
1052,103,4,272,NaN,NaN,2,2,1,1,678,0,1,NaN,1,0,1.8,NaN,1.095748142,NaN,NaN,NaN,NaN,-1.5,-0.5,1,4,1052,NaN,NaN,NaN,NaN
1052,103,4,273,NaN,NaN,1,1,1,1,436,1,1,436,1,0,2,1,-1.058239851,-1.058239851,NaN,NaN,NaN,1.5,1.5,1,4,1052,NaN,NaN,NaN,1
1052,103,4,274,NaN,NaN,2,4,1,3,508,0,1,NaN,1,0,2.4,NaN,-0.41738392,NaN,NaN,NaN,NaN,-1.5,1.5,1,4,1052,NaN,NaN,NaN,NaN
1052,103,4,275,NaN,NaN,0,3,1,3,783,1,0,783,1,0,2.8,NaN,2.030329709,2.030329709,NaN,NaN,NaN,-1.5,0.5,1,4,1052,NaN,NaN,NaN,0
1052,103,4,276,NaN,NaN,2,2,1,2,604,1,1,604,1,0,2.8,NaN,0.437090656,0.437090656,NaN,NaN,NaN,1.5,-0.5,1,4,1052,NaN,NaN,NaN,NaN
1052,103,4,277,NaN,NaN,1,4,1,4,641,1,1,641,1,0,3,NaN,0.766419399,0.766419399,NaN,NaN,NaN,-0.5,0.5,1,4,1052,NaN,NaN,NaN,1
1052,103,4,278,NaN,NaN,1,3,1,3,539,1,1,539,1,0,3.2,NaN,-0.141459838,-0.141459838,NaN,NaN,NaN,-1.5,1.5,1,4,1052,NaN,NaN,NaN,1
1052,103,4,279,NaN,NaN,2,1,1,1,415,1,1,415,1,0,3.2,1,-1.245156165,-1.245156165,NaN,NaN,NaN,1.5,1.5,1,4,1052,NaN,NaN,NaN,NaN
1052,103,4,280,NaN,NaN,0,4,1,3,965,0,0,NaN,0,0,3.2,1,3.650271092,NaN,NaN,NaN,NaN,1.5,-1.5,0,4,1052,NaN,NaN,NaN,0
1052,103,4,281,NaN,NaN,0,3,0.8,3,601,1,1,601,1,0,2.6,NaN,0.410388326,0.410388326,NaN,NaN,NaN,0.5,-0.5,1,4,1052,NaN,NaN,NaN,0
1052,103,4,282,NaN,NaN,2,2,0.8,2,436,1,1,436,0,0,2.6,NaN,-1.058239851,-1.058239851,NaN,NaN,NaN,-0.5,0.5,0,4,1052,NaN,NaN,NaN,NaN
1052,103,4,283,NaN,NaN,1,3,0.8,3,688,1,1,688,1,0,2,NaN,1.18475591,1.18475591,NaN,NaN,NaN,0.5,-1.5,1,4,1052,NaN,NaN,NaN,1
1052,103,4,284,NaN,NaN,1,1,0.8,1,496,1,1,496,0,0,1.4,NaN,-0.524193242,-0.524193242,NaN,NaN,NaN,-1.5,0.5,0,4,1052,NaN,NaN,NaN,1
1052,103,4,285,NaN,NaN,0,2,0.8,3,620,0,1,NaN,0,0,0.6,NaN,0.579503086,NaN,NaN,NaN,NaN,0.5,-1.5,0,4,1052,NaN,NaN,NaN,0
1052,103,4,286,NaN,NaN,2,1,0.8,1,450,1,1,450,1,0,0.6,NaN,-0.933628976,-0.933628976,NaN,NaN,NaN,1.5,-0.5,1,4,1052,NaN,NaN,NaN,NaN
1052,103,4,287,NaN,NaN,0,2,0.8,3,694,0,1,NaN,0,0,0.6,NaN,1.238160571,NaN,NaN,NaN,NaN,0.5,0.5,0,4,1052,NaN,NaN,NaN,0
1052,103,4,288,NaN,NaN,1,3,0.8,3,520,1,1,520,1,0,0.6,NaN,-0.310574598,-0.310574598,NaN,NaN,NaN,0.5,0.5,1,4,1052,NaN,NaN,NaN,1
1052,103,4,289,NaN,NaN,0,1,0.8,1,467,1,1,467,1,0,1,1,-0.78231577,-0.78231577,NaN,NaN,NaN,1.5,1.5,1,4,1052,NaN,NaN,NaN,0
1052,103,4,290,NaN,NaN,1,3,0.8,3,511,1,1,511,1,0,1.8,NaN,-0.390681589,-0.390681589,NaN,NaN,NaN,-0.5,-1.5,1,4,1052,NaN,NaN,NaN,1
1052,103,4,291,NaN,NaN,2,4,0.8,4,650,1,1,650,1,0,2,NaN,0.84652639,0.84652639,NaN,NaN,NaN,0.5,-1.5,1,4,1052,NaN,NaN,NaN,NaN
1052,103,4,292,NaN,NaN,1,1,0.8,1,511,1,1,511,0,0,1.8,NaN,-0.390681589,-0.390681589,NaN,NaN,NaN,0.5,-0.5,0,4,1052,NaN,NaN,NaN,1
1052,103,4,293,NaN,NaN,2,3,0.8,2,570,0,1,NaN,0,0,1.8,NaN,0.134464244,NaN,NaN,NaN,NaN,-1.5,-0.5,0,4,1052,NaN,NaN,NaN,NaN
1052,103,4,294,NaN,NaN,1,4,0.8,4,572,1,1,572,1,0,1.2,1,0.152265798,0.152265798,NaN,NaN,NaN,1.5,1.5,1,4,1052,NaN,NaN,NaN,1
1052,103,4,295,NaN,NaN,2,2,0.8,2,616,1,1,616,1,0,1.2,0.8,0.543899978,0.543899978,NaN,NaN,NaN,1.5,-1.5,1,4,1052,NaN,NaN,NaN,NaN
1052,103,4,296,NaN,NaN,1,3,0.8,3,518,1,1,518,1,0,1.2,NaN,-0.328376151,-0.328376151,NaN,NaN,NaN,-0.5,0.5,1,4,1052,NaN,NaN,NaN,1
1052,103,4,297,NaN,NaN,0,1,0.8,4,540,0,1,NaN,1,0,1.6,NaN,-0.132559061,NaN,NaN,NaN,NaN,0.5,0.5,1,4,1052,NaN,NaN,NaN,0
1052,103,4,298,NaN,NaN,0,4,0.8,3,709,0,1,NaN,1,0,2.2,NaN,1.371672224,NaN,NaN,NaN,NaN,-0.5,-1.5,1,4,1052,NaN,NaN,NaN,0
1052,103,4,299,NaN,NaN,1,3,0.8,3,647,1,1,647,1,0,2.4,NaN,0.81982406,0.81982406,NaN,NaN,NaN,0.5,-1.5,1,4,1052,NaN,NaN,NaN,1
1052,103,4,300,NaN,NaN,0,4,0.8,4,660,1,1,660,1,0,1.8,NaN,0.935534159,0.935534159,NaN,NaN,NaN,-1.5,-1.5,1,4,1052,NaN,NaN,NaN,0
1053,103,1,1,NaN,NaN,0,2,0.7,3,766,0,0,NaN,0,0,0,0,1.387282934,NaN,7,7,33,1.5,1.5,0,1,1053,-1.216757399,0.611821142,-1.287685703,0
1053,103,1,2,NaN,NaN,1,1,0.6,1,514,1,1,514,1,0,0,NaN,-0.745884751,-0.745884751,7,7,33,-1.5,-1.5,1,1,1053,-1.216757399,0.611821142,-1.287685703,1
1053,103,1,3,NaN,NaN,0,4,0.6,4,654,1,1,654,0,0,0.2,NaN,0.439208407,0.439208407,7,7,33,-1.5,-1.5,0,1,1053,-1.216757399,0.611821142,-1.287685703,0
1053,103,1,4,NaN,NaN,1,1,0.6,1,518,1,1,518,1,0,0.2,0,-0.712024947,-0.712024947,7,7,33,1.5,1.5,1,1,1053,-1.216757399,0.611821142,-1.287685703,1
1053,103,1,5,NaN,NaN,1,2,0.7,2,484,1,1,484,1,0,1,NaN,-0.999833285,-0.999833285,7,7,33,-0.5,0.5,1,1,1053,-1.216757399,0.611821142,-1.287685703,1
1053,103,1,6,NaN,NaN,0,1,0.7,1,469,1,1,469,1,0,1.6,NaN,-1.126807552,-1.126807552,7,7,33,0.5,0.5,1,1,1053,-1.216757399,0.611821142,-1.287685703,0
1053,103,1,7,NaN,NaN,1,4,0.7,3,700,0,1,NaN,0,0,2.2,NaN,0.828596159,NaN,7,7,33,-1.5,-0.5,0,1,1053,-1.216757399,0.611821142,-1.287685703,1
1053,103,1,8,NaN,NaN,0,3,0.7,4,854,0,0,NaN,0,0,2,NaN,2.132198633,NaN,7,7,33,-0.5,-1.5,0,1,1053,-1.216757399,0.611821142,-1.287685703,0
1053,103,1,9,NaN,NaN,1,1,0.7,1,570,1,1,570,1,0,2,NaN,-0.271847488,-0.271847488,7,7,33,-1.5,0.5,1,1,1053,-1.216757399,0.611821142,-1.287685703,1
1053,103,1,10,NaN,NaN,2,3,0.7,3,538,1,1,538,1,0,1.8,NaN,-0.542725924,-0.542725924,7,7,33,-1.5,1.5,1,1,1053,-1.216757399,0.611821142,-1.287685703,NaN
1053,103,1,11,NaN,NaN,0,2,0.7,2,689,1,1,689,1,0,2,NaN,0.735481697,0.735481697,7,7,33,-0.5,-1.5,1,1,1053,-1.216757399,0.611821142,-1.287685703,0
1053,103,1,12,NaN,NaN,2,1,0.7,1,524,1,1,524,1,0,1.6,NaN,-0.66123524,-0.66123524,7,7,33,0.5,-1.5,1,1,1053,-1.216757399,0.611821142,-1.287685703,NaN
1053,103,1,13,NaN,NaN,1,4,0.7,4,523,1,1,523,1,0,1.8,NaN,-0.669700191,-0.669700191,7,7,33,-1.5,1.5,1,1,1053,-1.216757399,0.611821142,-1.287685703,1
1053,103,1,14,NaN,NaN,2,2,0.7,2,571,1,1,571,1,0,2.6,NaN,-0.263382537,-0.263382537,7,7,33,-1.5,-0.5,1,1,1053,-1.216757399,0.611821142,-1.287685703,NaN
1053,103,1,15,NaN,NaN,1,1,0.7,1,434,1,1,434,1,0,2.4,NaN,-1.423080841,-1.423080841,7,7,33,0.5,0.5,1,1,1053,-1.216757399,0.611821142,-1.287685703,1
1053,103,1,16,NaN,NaN,1,3,0.7,3,824,1,0,824,0,0,2.2,NaN,1.878250099,1.878250099,7,7,33,-0.5,1.5,0,1,1053,-1.216757399,0.611821142,-1.287685703,1
1053,103,1,17,NaN,NaN,2,2,0.7,2,629,1,1,629,1,0,2,NaN,0.227584629,0.227584629,7,7,33,-1.5,1.5,1,1,1053,-1.216757399,0.611821142,-1.287685703,NaN
1053,103,1,18,NaN,NaN,1,3,0.7,3,538,1,1,538,1,0,2.6,0,-0.542725924,-0.542725924,7,7,33,1.5,-1.5,1,1,1053,-1.216757399,0.611821142,-1.287685703,1
1053,103,1,19,NaN,NaN,1,4,0.7,1,587,0,1,NaN,0,0,2,NaN,-0.127943319,NaN,7,7,33,-1.5,1.5,0,1,1053,-1.216757399,0.611821142,-1.287685703,1
1053,103,1,20,NaN,NaN,0,1,0.7,1,553,1,1,553,1,0,1.6,0.2,-0.415751657,-0.415751657,7,7,33,1.5,-1.5,1,1,1053,-1.216757399,0.611821142,-1.287685703,0
1053,103,1,21,NaN,NaN,1,4,0.7,3,737,0,1,NaN,0,0,1.2,NaN,1.141799351,NaN,7,7,33,0.5,-0.5,0,1,1053,-1.216757399,0.611821142,-1.287685703,1
1053,103,1,22,NaN,NaN,2,2,0.7,2,545,1,1,545,1,0,1.2,NaN,-0.483471266,-0.483471266,7,7,33,0.5,-0.5,1,1,1053,-1.216757399,0.611821142,-1.287685703,NaN
1053,103,1,23,NaN,NaN,1,3,0.7,3,842,1,0,842,1,0,0.8,NaN,2.03061922,2.03061922,7,7,33,-0.5,-1.5,1,1,1053,-1.216757399,0.611821142,-1.287685703,1
1053,103,1,24,NaN,NaN,1,4,0.7,4,733,1,1,733,1,0,0.8,NaN,1.107939546,1.107939546,7,7,33,1.5,0.5,1,1,1053,-1.216757399,0.611821142,-1.287685703,1
1053,103,1,25,NaN,NaN,2,3,0.8,3,895,1,0,895,0,0,1.4,NaN,2.479261629,2.479261629,7,7,33,1.5,0.5,0,1,1053,-1.216757399,0.611821142,-1.287685703,NaN
1053,103,1,26,NaN,NaN,0,1,0.8,1,499,1,1,499,1,0,1.2,NaN,-0.872859018,-0.872859018,7,7,33,-1.5,-0.5,1,1,1053,-1.216757399,0.611821142,-1.287685703,0
1053,103,1,27,NaN,NaN,2,2,0.8,2,501,1,1,501,1,0,1.6,NaN,-0.855929116,-0.855929116,7,7,33,-1.5,0.5,1,1,1053,-1.216757399,0.611821142,-1.287685703,NaN
1053,103,1,28,NaN,NaN,1,4,0.8,4,660,1,1,660,1,0,1.8,0.4,0.489998114,0.489998114,7,7,33,1.5,-1.5,1,1,1053,-1.216757399,0.611821142,-1.287685703,1
1053,103,1,29,NaN,NaN,0,2,0.8,1,792,0,0,NaN,0,0,1.8,NaN,1.607371663,NaN,7,7,33,0.5,-1.5,0,1,1053,-1.216757399,0.611821142,-1.287685703,0
1053,103,1,30,NaN,NaN,0,3,0.8,2,615,0,1,NaN,0,0,1.2,NaN,0.109075313,NaN,7,7,33,0.5,-1.5,0,1,1053,-1.216757399,0.611821142,-1.287685703,0
1053,103,1,31,NaN,NaN,1,4,0.8,4,634,1,1,634,1,0,1.2,NaN,0.269909385,0.269909385,7,7,33,-0.5,0.5,1,1,1053,-1.216757399,0.611821142,-1.287685703,1
1053,103,1,32,NaN,NaN,0,2,0.8,1,566,0,1,NaN,0,0,1.4,NaN,-0.305707292,NaN,7,7,33,0.5,-0.5,0,1,1053,-1.216757399,0.611821142,-1.287685703,0
1053,103,1,33,NaN,NaN,0,3,0.8,4,745,0,1,NaN,0,0,0.8,NaN,1.20951896,NaN,7,7,33,1.5,-0.5,0,1,1053,-1.216757399,0.611821142,-1.287685703,0
1053,103,1,34,NaN,NaN,2,4,0.6,3,843,0,0,NaN,1,0,0.6,NaN,2.039084171,NaN,7,7,33,0.5,1.5,1,1,1053,-1.216757399,0.611821142,-1.287685703,NaN
1053,103,1,35,NaN,NaN,0,3,0.6,3,946,1,0,946,0,0,1.4,NaN,2.910974137,2.910974137,7,7,33,-0.5,-0.5,0,1,1053,-1.216757399,0.611821142,-1.287685703,0
1053,103,1,36,NaN,NaN,1,2,0.6,2,632,1,1,632,1,0,1.4,NaN,0.252979482,0.252979482,7,7,33,0.5,1.5,1,1,1053,-1.216757399,0.611821142,-1.287685703,1
1053,103,1,37,NaN,NaN,1,4,0.6,4,910,1,0,910,0,0,1.6,NaN,2.606235896,2.606235896,7,7,33,0.5,-1.5,0,1,1053,-1.216757399,0.611821142,-1.287685703,1
1053,103,1,38,NaN,NaN,1,2,0.6,2,618,1,1,618,1,0,1.6,NaN,0.134470166,0.134470166,7,7,33,1.5,-0.5,1,1,1053,-1.216757399,0.611821142,-1.287685703,1
1053,103,1,39,NaN,NaN,0,4,0.6,3,798,0,0,NaN,0,0,2,NaN,1.65816137,NaN,7,7,33,0.5,-0.5,0,1,1053,-1.216757399,0.611821142,-1.287685703,0
1053,103,1,40,NaN,NaN,2,1,0.6,1,677,1,1,677,1,0,1.2,NaN,0.633902283,0.633902283,7,7,33,-0.5,-1.5,1,1,1053,-1.216757399,0.611821142,-1.287685703,NaN
1053,103,1,41,NaN,NaN,1,2,0.6,2,577,1,1,577,1,0,1.4,NaN,-0.21259283,-0.21259283,7,7,33,-0.5,-1.5,1,1,1053,-1.216757399,0.611821142,-1.287685703,1
1053,103,1,42,NaN,NaN,0,3,0.6,4,680,0,1,NaN,0,0,0.8,NaN,0.659297136,NaN,7,7,33,0.5,0.5,0,1,1053,-1.216757399,0.611821142,-1.287685703,0
1053,103,1,43,NaN,NaN,0,4,0.6,4,789,1,0,789,1,0,0.8,NaN,1.58197681,1.58197681,7,7,33,-1.5,0.5,1,1,1053,-1.216757399,0.611821142,-1.287685703,0
1053,103,1,44,NaN,NaN,0,1,0.6,1,633,1,1,633,1,0,1,NaN,0.261444433,0.261444433,7,7,33,0.5,1.5,1,1,1053,-1.216757399,0.611821142,-1.287685703,0
1053,103,1,45,NaN,NaN,2,4,0.6,4,936,1,0,936,0,0,1.8,NaN,2.826324626,2.826324626,7,7,33,0.5,-0.5,0,1,1053,-1.216757399,0.611821142,-1.287685703,NaN
1053,103,1,46,NaN,NaN,1,2,0.6,2,706,1,1,706,1,0,1.6,NaN,0.879385866,0.879385866,7,7,33,-1.5,0.5,1,1,1053,-1.216757399,0.611821142,-1.287685703,1
1053,103,1,47,NaN,NaN,2,3,0.6,2,737,0,1,NaN,0,0,2,NaN,1.141799351,NaN,7,7,33,0.5,0.5,0,1,1053,-1.216757399,0.611821142,-1.287685703,NaN
1053,103,1,48,NaN,NaN,1,1,0.6,1,569,1,1,569,1,0,2,NaN,-0.280312439,-0.280312439,7,7,33,-1.5,1.5,1,1,1053,-1.216757399,0.611821142,-1.287685703,1
1053,103,1,49,NaN,NaN,1,4,0.6,4,639,1,1,639,1,0,2.2,NaN,0.31223414,0.31223414,7,7,33,0.5,1.5,1,1,1053,-1.216757399,0.611821142,-1.287685703,1
1053,103,1,50,NaN,NaN,1,2,0.6,2,622,1,1,622,1,0,2.2,NaN,0.168329971,0.168329971,7,7,33,-1.5,0.5,1,1,1053,-1.216757399,0.611821142,-1.287685703,1
1053,103,1,51,NaN,NaN,1,1,0.6,1,512,1,1,512,1,0,2.8,NaN,-0.762814653,-0.762814653,7,7,33,0.5,0.5,1,1,1053,-1.216757399,0.611821142,-1.287685703,1
1053,103,1,52,NaN,NaN,0,4,0.6,4,653,1,1,653,1,0,2.8,0.6,0.430743456,0.430743456,7,7,33,1.5,-1.5,1,1,1053,-1.216757399,0.611821142,-1.287685703,0
1053,103,1,53,NaN,NaN,0,3,0.6,3,644,1,1,644,1,0,3,NaN,0.354558896,0.354558896,7,7,33,1.5,-0.5,1,1,1053,-1.216757399,0.611821142,-1.287685703,0
1053,103,1,54,NaN,NaN,2,2,0.8,2,519,1,1,519,1,0,2.6,NaN,-0.703559995,-0.703559995,7,7,33,0.5,-0.5,1,1,1053,-1.216757399,0.611821142,-1.287685703,NaN
1053,103,1,55,NaN,NaN,1,1,0.8,1,468,1,1,468,1,0,2.2,NaN,-1.135272503,-1.135272503,7,7,33,0.5,1.5,1,1,1053,-1.216757399,0.611821142,-1.287685703,1
1053,103,1,56,NaN,NaN,1,3,0.8,4,619,0,1,NaN,0,0,2.4,NaN,0.142935118,NaN,7,7,33,0.5,-0.5,0,1,1053,-1.216757399,0.611821142,-1.287685703,1
1053,103,1,57,NaN,NaN,2,4,0.8,4,498,1,1,498,1,0,1.8,NaN,-0.881323969,-0.881323969,7,7,33,0.5,-1.5,1,1,1053,-1.216757399,0.611821142,-1.287685703,NaN
1053,103,1,58,NaN,NaN,1,1,0.8,1,626,1,1,626,1,0,1.8,NaN,0.202189775,0.202189775,7,7,33,-1.5,-0.5,1,1,1053,-1.216757399,0.611821142,-1.287685703,1
1053,103,1,59,NaN,NaN,2,2,0.8,2,521,1,1,521,0,0,1.8,NaN,-0.686630093,-0.686630093,7,7,33,-1.5,-0.5,0,1,1053,-1.216757399,0.611821142,-1.287685703,NaN
1053,103,1,60,NaN,NaN,0,3,0.8,3,675,1,1,675,1,0,1.4,NaN,0.616972381,0.616972381,7,7,33,-0.5,-1.5,1,1,1053,-1.216757399,0.611821142,-1.287685703,0
1053,103,1,61,NaN,NaN,1,4,0.8,4,376,1,1,376,1,0,0.8,NaN,-1.914048007,-1.914048007,7,7,33,1.5,0.5,1,1,1053,-1.216757399,0.611821142,-1.287685703,1
1053,103,1,62,NaN,NaN,0,2,0.8,3,527,0,1,NaN,1,0,1.4,NaN,-0.635840386,NaN,7,7,33,0.5,1.5,1,1,1053,-1.216757399,0.611821142,-1.287685703,0
1053,103,1,63,NaN,NaN,1,4,0.8,4,628,1,1,628,1,0,2,NaN,0.219119678,0.219119678,7,7,33,0.5,-1.5,1,1,1053,-1.216757399,0.611821142,-1.287685703,1
1053,103,1,64,NaN,NaN,2,3,0.8,4,734,0,1,NaN,0,0,1.8,NaN,1.116404498,NaN,7,7,33,1.5,0.5,0,1,1053,-1.216757399,0.611821142,-1.287685703,NaN
1053,103,1,65,NaN,NaN,1,1,0.8,1,572,1,1,572,1,0,1.8,NaN,-0.254917586,-0.254917586,7,7,33,-1.5,-1.5,1,1,1053,-1.216757399,0.611821142,-1.287685703,1
1053,103,1,66,NaN,NaN,1,2,0.8,2,503,1,1,503,1,0,1.8,NaN,-0.838999214,-0.838999214,7,7,33,-1.5,-1.5,1,1,1053,-1.216757399,0.611821142,-1.287685703,1
1053,103,1,67,NaN,NaN,0,4,0.8,4,812,1,0,812,0,0,1.4,NaN,1.776670686,1.776670686,7,7,33,0.5,0.5,0,1,1053,-1.216757399,0.611821142,-1.287685703,0
1053,103,1,68,NaN,NaN,1,1,0.8,1,539,1,1,539,1,0,0.6,NaN,-0.534260973,-0.534260973,7,7,33,-0.5,0.5,1,1,1053,-1.216757399,0.611821142,-1.287685703,1
1053,103,1,69,NaN,NaN,2,4,0.8,3,555,0,1,NaN,0,0,1,NaN,-0.398821755,NaN,7,7,33,0.5,-0.5,0,1,1053,-1.216757399,0.611821142,-1.287685703,NaN
1053,103,1,70,NaN,NaN,1,3,0.8,4,628,0,1,NaN,0,0,1,NaN,0.219119678,NaN,7,7,33,1.5,0.5,0,1,1053,-1.216757399,0.611821142,-1.287685703,1
1053,103,1,71,NaN,NaN,2,4,0.6,3,658,0,1,NaN,0,0,0.8,NaN,0.473068212,NaN,7,7,33,-0.5,-0.5,0,1,1053,-1.216757399,0.611821142,-1.287685703,NaN
1053,103,1,72,NaN,NaN,1,3,0.6,NaN,NaN,0,0,NaN,1,1,0.6,NaN,NaN,NaN,7,7,33,-1.5,-0.5,1,1,1053,-1.216757399,0.611821142,-1.287685703,1
1053,103,1,73,NaN,NaN,0,4,0.6,4,631,1,1,631,1,0,1,0.8,0.244514531,0.244514531,7,7,33,1.5,-1.5,1,1,1053,-1.216757399,0.611821142,-1.287685703,0
1053,103,1,74,NaN,NaN,1,3,0.6,3,516,1,1,516,1,0,0.6,NaN,-0.728954849,-0.728954849,7,7,33,-1.5,0.5,1,1,1053,-1.216757399,0.611821142,-1.287685703,1
1053,103,1,75,NaN,NaN,0,4,0.6,4,513,1,1,513,1,0,1.2,NaN,-0.754349702,-0.754349702,7,7,33,-1.5,1.5,1,1,1053,-1.216757399,0.611821142,-1.287685703,0
1053,103,2,76,NaN,NaN,1,3,0.6,3,747,1,1,747,1,0,2,NaN,1.226448862,1.226448862,7,7,33,-1.5,0.5,1,2,1053,-1.216757399,0.611821142,-1.287685703,1
1053,103,2,77,NaN,NaN,1,2,0.6,1,461,0,1,NaN,0,0,2.6,1,-1.194527161,NaN,7,7,33,1.5,-1.5,0,2,1053,-1.216757399,0.611821142,-1.287685703,1
1053,103,2,78,NaN,NaN,0,1,0.4,1,474,1,1,474,1,0,2.2,NaN,-1.084482796,-1.084482796,7,7,33,-1.5,0.5,1,2,1053,-1.216757399,0.611821142,-1.287685703,0
1053,103,2,79,NaN,NaN,0,4,0.4,4,634,1,1,634,0,0,2.6,NaN,0.269909385,0.269909385,7,7,33,-1.5,-1.5,0,2,1053,-1.216757399,0.611821142,-1.287685703,0
1053,103,2,80,NaN,NaN,1,1,0.4,2,425,0,1,NaN,0,0,2,NaN,-1.499265402,NaN,7,7,33,-0.5,1.5,0,2,1053,-1.216757399,0.611821142,-1.287685703,1
1053,103,2,81,NaN,NaN,2,3,0.4,4,703,0,1,NaN,0,0,1.2,NaN,0.853991012,NaN,7,7,33,1.5,0.5,0,2,1053,-1.216757399,0.611821142,-1.287685703,NaN
1053,103,2,82,NaN,NaN,0,2,0.2,2,680,1,1,680,1,0,0.6,NaN,0.659297136,0.659297136,7,7,33,1.5,-0.5,1,2,1053,-1.216757399,0.611821142,-1.287685703,0
1053,103,2,83,NaN,NaN,1,1,0.4,1,462,1,1,462,1,0,1,NaN,-1.18606221,-1.18606221,7,7,33,-1.5,-0.5,1,2,1053,-1.216757399,0.611821142,-1.287685703,1
1053,103,2,84,NaN,NaN,1,3,0.4,4,543,0,1,NaN,0,0,0.8,NaN,-0.500401168,NaN,7,7,33,-0.5,1.5,0,2,1053,-1.216757399,0.611821142,-1.287685703,1
1053,103,2,85,NaN,NaN,0,2,0.4,2,697,1,1,697,1,0,0.8,NaN,0.803201306,0.803201306,7,7,33,-1.5,1.5,1,2,1053,-1.216757399,0.611821142,-1.287685703,0
1053,103,2,86,NaN,NaN,2,4,0.4,3,760,0,0,NaN,0,0,1.6,NaN,1.336493227,NaN,7,7,33,0.5,-1.5,0,2,1053,-1.216757399,0.611821142,-1.287685703,NaN
1053,103,2,87,NaN,NaN,0,3,0.4,4,885,0,0,NaN,0,0,1.6,0.8,2.394612118,NaN,7,7,33,1.5,-1.5,0,2,1053,-1.216757399,0.611821142,-1.287685703,0
1053,103,2,88,NaN,NaN,2,4,0.4,4,794,1,0,794,1,0,1.2,NaN,1.624301565,1.624301565,7,7,33,-0.5,1.5,1,2,1053,-1.216757399,0.611821142,-1.287685703,NaN
1053,103,2,89,NaN,NaN,0,2,0.4,1,525,0,1,NaN,0,0,1.6,NaN,-0.652770289,NaN,7,7,33,-0.5,1.5,0,2,1053,-1.216757399,0.611821142,-1.287685703,0
1053,103,2,90,NaN,NaN,0,1,0.4,1,520,1,1,520,1,0,1.6,NaN,-0.695095044,-0.695095044,7,7,33,1.5,-0.5,1,2,1053,-1.216757399,0.611821142,-1.287685703,0
1053,103,2,91,NaN,NaN,2,4,0.4,4,571,1,1,571,0,0,1.2,NaN,-0.263382537,-0.263382537,7,7,33,-1.5,-0.5,0,2,1053,-1.216757399,0.611821142,-1.287685703,NaN
1053,103,2,92,NaN,NaN,1,3,0.4,3,616,1,1,616,0,0,1.2,NaN,0.117540264,0.117540264,7,7,33,0.5,-1.5,0,2,1053,-1.216757399,0.611821142,-1.287685703,1
1053,103,2,93,NaN,NaN,1,1,0.4,1,564,1,1,564,1,0,1.2,NaN,-0.322637195,-0.322637195,7,7,33,-0.5,1.5,1,2,1053,-1.216757399,0.611821142,-1.287685703,1
1053,103,2,94,NaN,NaN,1,4,0.4,4,624,1,1,624,1,0,1.2,NaN,0.185259873,0.185259873,7,7,33,0.5,0.5,1,2,1053,-1.216757399,0.611821142,-1.287685703,1
1053,103,2,95,NaN,NaN,2,2,0.4,2,547,1,1,547,1,0,1.8,0.6,-0.466541364,-0.466541364,7,7,33,1.5,-1.5,1,2,1053,-1.216757399,0.611821142,-1.287685703,NaN
1053,103,2,96,NaN,NaN,1,3,0.6,4,605,0,1,NaN,0,0,1.6,NaN,0.024425802,NaN,7,7,33,0.5,1.5,0,2,1053,-1.216757399,0.611821142,-1.287685703,1
1053,103,2,97,NaN,NaN,2,4,0.6,4,634,1,1,634,1,0,1.6,NaN,0.269909385,0.269909385,7,7,33,-1.5,-1.5,1,2,1053,-1.216757399,0.611821142,-1.287685703,NaN
1053,103,2,98,NaN,NaN,1,2,0.6,2,540,1,1,540,0,0,1.8,NaN,-0.525796022,-0.525796022,7,7,33,-0.5,-1.5,0,2,1053,-1.216757399,0.611821142,-1.287685703,1
1053,103,2,99,NaN,NaN,2,3,0.6,3,679,1,1,679,0,0,1,NaN,0.650832185,0.650832185,7,7,33,0.5,-1.5,0,2,1053,-1.216757399,0.611821142,-1.287685703,NaN
1053,103,2,100,NaN,NaN,1,1,0.6,1,431,1,1,431,1,0,0.4,NaN,-1.448475695,-1.448475695,7,7,33,0.5,0.5,1,2,1053,-1.216757399,0.611821142,-1.287685703,1
1053,103,2,101,NaN,NaN,0,2,0.6,2,706,1,1,706,1,0,0.8,NaN,0.879385866,0.879385866,7,7,33,-0.5,0.5,1,2,1053,-1.216757399,0.611821142,-1.287685703,0
1053,103,2,102,NaN,NaN,0,4,0.6,4,480,1,1,480,1,0,1.4,NaN,-1.033693089,-1.033693089,7,7,33,-0.5,1.5,1,2,1053,-1.216757399,0.611821142,-1.287685703,0
1053,103,2,103,NaN,NaN,0,1,0.6,1,581,1,1,581,1,0,2,NaN,-0.178733025,-0.178733025,7,7,33,-0.5,-1.5,1,2,1053,-1.216757399,0.611821142,-1.287685703,0
1053,103,2,104,NaN,NaN,2,4,0.6,4,590,1,1,590,1,0,2.2,NaN,-0.102548465,-0.102548465,7,7,33,-1.5,-1.5,1,2,1053,-1.216757399,0.611821142,-1.287685703,NaN
1053,103,2,105,NaN,NaN,1,1,0.6,1,515,1,1,515,1,0,2.4,NaN,-0.7374198,-0.7374198,7,7,33,-0.5,-0.5,1,2,1053,-1.216757399,0.611821142,-1.287685703,1
1053,103,2,106,NaN,NaN,1,3,0.6,3,756,1,0,756,0,0,2.2,NaN,1.302633422,1.302633422,7,7,33,-1.5,-0.5,0,2,1053,-1.216757399,0.611821142,-1.287685703,1
1053,103,2,107,NaN,NaN,2,1,0.6,1,553,1,1,553,1,0,1.6,NaN,-0.415751657,-0.415751657,7,7,33,0.5,-0.5,1,2,1053,-1.216757399,0.611821142,-1.287685703,NaN
1053,103,2,108,NaN,NaN,1,2,0.6,2,364,1,1,364,0,0,1.2,NaN,-2.015627421,-2.015627421,7,7,33,-1.5,-0.5,0,2,1053,-1.216757399,0.611821142,-1.287685703,1
1053,103,2,109,NaN,NaN,0,3,0.6,3,710,1,1,710,1,0,1,NaN,0.91324567,0.91324567,7,7,33,1.5,0.5,1,2,1053,-1.216757399,0.611821142,-1.287685703,0
1053,103,2,110,NaN,NaN,2,2,0.8,2,647,1,1,647,1,0,1.4,0.6,0.379953749,0.379953749,7,7,33,1.5,-1.5,1,2,1053,-1.216757399,0.611821142,-1.287685703,NaN
1053,103,2,111,NaN,NaN,1,1,0.8,1,543,1,1,543,1,0,1.2,0.2,-0.500401168,-0.500401168,7,7,33,1.5,1.5,1,2,1053,-1.216757399,0.611821142,-1.287685703,1
1053,103,2,112,NaN,NaN,2,2,1,2,590,1,1,590,1,0,2,NaN,-0.102548465,-0.102548465,7,7,33,0.5,1.5,1,2,1053,-1.216757399,0.611821142,-1.287685703,NaN
1053,103,2,113,NaN,NaN,1,4,1,4,493,1,1,493,1,0,2.4,NaN,-0.923648725,-0.923648725,7,7,33,-1.5,-1.5,1,2,1053,-1.216757399,0.611821142,-1.287685703,1
1053,103,2,114,NaN,NaN,1,2,1,2,504,1,1,504,1,0,2.6,NaN,-0.830534262,-0.830534262,7,7,33,-0.5,1.5,1,2,1053,-1.216757399,0.611821142,-1.287685703,1
1053,103,2,115,NaN,NaN,0,1,1,1,700,1,1,700,1,0,2.8,NaN,0.828596159,0.828596159,7,7,33,1.5,-0.5,1,2,1053,-1.216757399,0.611821142,-1.287685703,0
1053,103,2,116,NaN,NaN,1,3,1,3,615,1,1,615,1,0,3,NaN,0.109075313,0.109075313,7,7,33,0.5,0.5,1,2,1053,-1.216757399,0.611821142,-1.287685703,1
1053,103,2,117,NaN,NaN,1,1,1,1,477,1,1,477,1,0,2.8,NaN,-1.059087943,-1.059087943,7,7,33,1.5,-0.5,1,2,1053,-1.216757399,0.611821142,-1.287685703,1
1053,103,2,118,NaN,NaN,2,2,1,2,520,1,1,520,1,0,2.4,NaN,-0.695095044,-0.695095044,7,7,33,0.5,-0.5,1,2,1053,-1.216757399,0.611821142,-1.287685703,NaN
1053,103,2,119,NaN,NaN,1,1,1,1,486,1,1,486,1,0,2.6,NaN,-0.982903383,-0.982903383,7,7,33,1.5,0.5,1,2,1053,-1.216757399,0.611821142,-1.287685703,1
1053,103,2,120,NaN,NaN,0,2,1,2,448,1,1,448,1,0,2.4,0.6,-1.304571526,-1.304571526,7,7,33,1.5,-1.5,1,2,1053,-1.216757399,0.611821142,-1.287685703,0
1053,103,2,121,NaN,NaN,1,4,1,3,670,0,1,NaN,1,0,2.2,NaN,0.574647625,NaN,7,7,33,0.5,-0.5,1,2,1053,-1.216757399,0.611821142,-1.287685703,1
1053,103,2,122,NaN,NaN,1,2,1,2,658,1,1,658,1,0,2,NaN,0.473068212,0.473068212,7,7,33,-1.5,1.5,1,2,1053,-1.216757399,0.611821142,-1.287685703,1
1053,103,2,123,NaN,NaN,1,3,1,3,783,1,0,783,0,0,2.4,NaN,1.531187103,1.531187103,7,7,33,-0.5,1.5,0,2,1053,-1.216757399,0.611821142,-1.287685703,1
1053,103,2,124,NaN,NaN,0,2,1,2,616,1,1,616,1,0,2,NaN,0.117540264,0.117540264,7,7,33,-1.5,1.5,1,2,1053,-1.216757399,0.611821142,-1.287685703,0
1053,103,2,125,NaN,NaN,0,3,1,4,788,0,0,NaN,0,0,2.2,NaN,1.573511859,NaN,7,7,33,1.5,-0.5,0,2,1053,-1.216757399,0.611821142,-1.287685703,0
1053,103,2,126,NaN,NaN,2,1,0.8,1,619,1,1,619,1,0,2,0.6,0.142935118,0.142935118,7,7,33,1.5,-1.5,1,2,1053,-1.216757399,0.611821142,-1.287685703,NaN
1053,103,2,127,NaN,NaN,0,3,0.8,3,784,1,0,784,0,0,1.8,NaN,1.539652054,1.539652054,7,7,33,1.5,0.5,0,2,1053,-1.216757399,0.611821142,-1.287685703,0
1053,103,2,128,NaN,NaN,0,1,0.6,1,567,1,1,567,1,0,1,NaN,-0.297242341,-0.297242341,7,7,33,-0.5,-1.5,1,2,1053,-1.216757399,0.611821142,-1.287685703,0
1053,103,2,129,NaN,NaN,1,4,0.6,4,484,1,1,484,0,0,1.2,NaN,-0.999833285,-0.999833285,7,7,33,-1.5,-0.5,0,2,1053,-1.216757399,0.611821142,-1.287685703,1
1053,103,2,130,NaN,NaN,2,3,0.6,3,652,1,1,652,1,0,0.4,NaN,0.422278505,0.422278505,7,7,33,1.5,-0.5,1,2,1053,-1.216757399,0.611821142,-1.287685703,NaN
1053,103,2,131,NaN,NaN,1,2,0.6,2,626,1,1,626,1,0,0.8,NaN,0.202189775,0.202189775,7,7,33,-0.5,1.5,1,2,1053,-1.216757399,0.611821142,-1.287685703,1
1053,103,2,132,NaN,NaN,0,4,0.6,4,723,1,1,723,1,0,1.4,0.8,1.023290035,1.023290035,7,7,33,1.5,-1.5,1,2,1053,-1.216757399,0.611821142,-1.287685703,0
1053,103,2,133,NaN,NaN,0,2,0.6,NaN,NaN,0,0,NaN,0,1,1.6,1,NaN,NaN,7,7,33,1.5,-1.5,0,2,1053,-1.216757399,0.611821142,-1.287685703,0
1053,103,2,134,NaN,NaN,1,1,0.6,1,583,1,1,583,1,0,1.4,0.4,-0.161803123,-0.161803123,7,7,33,1.5,1.5,1,2,1053,-1.216757399,0.611821142,-1.287685703,1
1053,103,2,135,NaN,NaN,1,3,0.6,2,572,0,1,NaN,0,0,2.2,NaN,-0.254917586,NaN,7,7,33,0.5,0.5,0,2,1053,-1.216757399,0.611821142,-1.287685703,1
1053,103,2,136,NaN,NaN,1,4,0.6,4,578,1,1,578,1,0,1.8,NaN,-0.204127879,-0.204127879,7,7,33,-1.5,1.5,1,2,1053,-1.216757399,0.611821142,-1.287685703,1
1053,103,2,137,NaN,NaN,1,1,0.6,1,529,1,1,529,1,0,1.8,NaN,-0.618910484,-0.618910484,7,7,33,-1.5,-0.5,1,2,1053,-1.216757399,0.611821142,-1.287685703,1
1053,103,2,138,NaN,NaN,1,3,0.6,3,680,1,1,680,1,0,2,NaN,0.659297136,0.659297136,7,7,33,-0.5,1.5,1,2,1053,-1.216757399,0.611821142,-1.287685703,1
1053,103,2,139,NaN,NaN,1,4,0.6,4,613,1,1,613,1,0,2.8,0.8,0.092145411,0.092145411,7,7,33,1.5,-1.5,1,2,1053,-1.216757399,0.611821142,-1.287685703,1
1053,103,2,140,NaN,NaN,1,2,0.8,2,668,1,1,668,1,0,2.2,NaN,0.557717723,0.557717723,7,7,33,-0.5,0.5,1,2,1053,-1.216757399,0.611821142,-1.287685703,1
1053,103,2,141,NaN,NaN,1,1,0.8,1,583,1,1,583,1,0,2.8,NaN,-0.161803123,-0.161803123,7,7,33,-0.5,-1.5,1,2,1053,-1.216757399,0.611821142,-1.287685703,1
1053,103,2,142,NaN,NaN,1,3,0.8,4,564,0,1,NaN,1,0,2.2,NaN,-0.322637195,NaN,7,7,33,-0.5,-1.5,1,2,1053,-1.216757399,0.611821142,-1.287685703,1
1053,103,2,143,NaN,NaN,1,4,0.8,3,583,0,1,NaN,0,0,2,NaN,-0.161803123,NaN,7,7,33,1.5,-0.5,0,2,1053,-1.216757399,0.611821142,-1.287685703,1
1053,103,2,144,NaN,NaN,1,3,0.6,4,624,0,1,NaN,0,0,1.2,NaN,0.185259873,NaN,7,7,33,0.5,1.5,0,2,1053,-1.216757399,0.611821142,-1.287685703,1
1053,103,2,145,NaN,NaN,2,2,0.6,2,522,1,1,522,1,0,1,NaN,-0.678165142,-0.678165142,7,7,33,0.5,-1.5,1,2,1053,-1.216757399,0.611821142,-1.287685703,NaN
1053,103,2,146,NaN,NaN,0,4,0.6,3,787,0,0,NaN,0,0,0.6,NaN,1.565046907,NaN,7,7,33,-1.5,1.5,0,2,1053,-1.216757399,0.611821142,-1.287685703,0
1053,103,2,147,NaN,NaN,1,2,0.6,2,625,1,1,625,1,0,0.4,NaN,0.193724824,0.193724824,7,7,33,0.5,-0.5,1,2,1053,-1.216757399,0.611821142,-1.287685703,1
1053,103,2,148,NaN,NaN,2,1,0.6,1,601,1,1,601,1,0,0.6,NaN,-0.009434003,-0.009434003,7,7,33,0.5,-1.5,1,2,1053,-1.216757399,0.611821142,-1.287685703,NaN
1053,103,2,149,NaN,NaN,1,4,0.6,4,591,1,1,591,1,0,0.8,NaN,-0.094083514,-0.094083514,7,7,33,-0.5,-1.5,1,2,1053,-1.216757399,0.611821142,-1.287685703,1
1053,103,2,150,NaN,NaN,0,1,0.6,1,517,1,1,517,1,0,1,NaN,-0.720489898,-0.720489898,7,7,33,-1.5,0.5,1,2,1053,-1.216757399,0.611821142,-1.287685703,0
1053,103,3,151,NaN,NaN,0,4,0.6,3,840,0,0,NaN,1,0,1.4,NaN,2.013689317,NaN,7,7,33,-1.5,0.5,1,3,1053,-1.216757399,0.611821142,-1.287685703,0
1053,103,3,152,NaN,NaN,2,1,0.6,1,548,1,1,548,1,0,2,NaN,-0.458076413,-0.458076413,7,7,33,-1.5,1.5,1,3,1053,-1.216757399,0.611821142,-1.287685703,NaN
1053,103,3,153,NaN,NaN,1,4,0.6,4,605,1,1,605,1,0,2.4,NaN,0.024425802,0.024425802,7,7,33,0.5,-1.5,1,3,1053,-1.216757399,0.611821142,-1.287685703,1
1053,103,3,154,NaN,NaN,1,3,0.6,3,702,1,1,702,0,0,2.4,NaN,0.845526061,0.845526061,7,7,33,-0.5,-0.5,0,3,1053,-1.216757399,0.611821142,-1.287685703,1
1053,103,3,155,NaN,NaN,2,1,0.6,1,397,1,1,397,1,0,2.2,0.6,-1.736284033,-1.736284033,7,7,33,1.5,1.5,1,3,1053,-1.216757399,0.611821142,-1.287685703,NaN
1053,103,3,156,NaN,NaN,1,3,0.6,3,516,1,1,516,1,0,2.4,0.8,-0.728954849,-0.728954849,7,7,33,1.5,1.5,1,3,1053,-1.216757399,0.611821142,-1.287685703,1
1053,103,3,157,NaN,NaN,0,4,0.8,4,545,1,1,545,1,0,2.6,1,-0.483471266,-0.483471266,7,7,33,1.5,1.5,1,3,1053,-1.216757399,0.611821142,-1.287685703,0
1053,103,3,158,NaN,NaN,0,2,0.8,2,554,1,1,554,1,0,2.6,NaN,-0.407286706,-0.407286706,7,7,33,1.5,-0.5,1,3,1053,-1.216757399,0.611821142,-1.287685703,0
1053,103,3,159,NaN,NaN,1,3,0.8,4,584,0,1,NaN,1,0,2.8,NaN,-0.153338172,NaN,7,7,33,-1.5,0.5,1,3,1053,-1.216757399,0.611821142,-1.287685703,1
1053,103,3,160,NaN,NaN,1,4,0.8,4,552,1,1,552,1,0,3.4,NaN,-0.424216608,-0.424216608,7,7,33,1.5,0.5,1,3,1053,-1.216757399,0.611821142,-1.287685703,1
1053,103,3,161,NaN,NaN,1,3,1,3,641,1,1,641,1,0,3.2,NaN,0.329164042,0.329164042,7,7,33,-1.5,1.5,1,3,1053,-1.216757399,0.611821142,-1.287685703,1
1053,103,3,162,NaN,NaN,0,1,1,1,592,1,1,592,1,0,3.2,NaN,-0.085618563,-0.085618563,7,7,33,-1.5,-1.5,1,3,1053,-1.216757399,0.611821142,-1.287685703,0
1053,103,3,163,NaN,NaN,1,2,1,2,556,1,1,556,1,0,2.6,NaN,-0.390356804,-0.390356804,7,7,33,0.5,-1.5,1,3,1053,-1.216757399,0.611821142,-1.287685703,1
1053,103,3,164,NaN,NaN,1,3,1,3,742,1,1,742,1,0,2.4,NaN,1.184124107,1.184124107,7,7,33,0.5,-1.5,1,3,1053,-1.216757399,0.611821142,-1.287685703,1
1053,103,3,165,NaN,NaN,0,1,1,1,478,1,1,478,1,0,2,NaN,-1.050622992,-1.050622992,7,7,33,-0.5,1.5,1,3,1053,-1.216757399,0.611821142,-1.287685703,0
1053,103,3,166,NaN,NaN,2,3,1,4,809,0,0,NaN,0,0,2.2,1,1.751275832,NaN,7,7,33,1.5,1.5,0,3,1053,-1.216757399,0.611821142,-1.287685703,NaN
1053,103,3,167,NaN,NaN,1,4,0.8,4,522,1,1,522,1,0,1.4,NaN,-0.678165142,-0.678165142,7,7,33,1.5,0.5,1,3,1053,-1.216757399,0.611821142,-1.287685703,1
1053,103,3,168,NaN,NaN,0,3,0.8,4,740,0,1,NaN,1,0,1.8,NaN,1.167194204,NaN,7,7,33,-1.5,0.5,1,3,1053,-1.216757399,0.611821142,-1.287685703,0
1053,103,3,169,NaN,NaN,0,2,0.8,2,537,1,1,537,1,0,2.2,NaN,-0.551190875,-0.551190875,7,7,33,0.5,-1.5,1,3,1053,-1.216757399,0.611821142,-1.287685703,0
1053,103,3,170,NaN,NaN,1,4,0.8,4,566,1,1,566,1,0,2.2,NaN,-0.305707292,-0.305707292,7,7,33,0.5,0.5,1,3,1053,-1.216757399,0.611821142,-1.287685703,1
1053,103,3,171,NaN,NaN,2,2,0.8,2,487,1,1,487,1,0,2,NaN,-0.974438432,-0.974438432,7,7,33,1.5,0.5,1,3,1053,-1.216757399,0.611821142,-1.287685703,NaN
1053,103,3,172,NaN,NaN,1,4,0.8,3,713,0,1,NaN,0,0,2.6,NaN,0.938640524,NaN,7,7,33,1.5,0.5,0,3,1053,-1.216757399,0.611821142,-1.287685703,1
1053,103,3,173,NaN,NaN,0,1,0.6,1,393,1,1,393,1,0,2,NaN,-1.770143838,-1.770143838,7,7,33,-0.5,-1.5,1,3,1053,-1.216757399,0.611821142,-1.287685703,0
1053,103,3,174,NaN,NaN,0,2,0.6,2,530,1,1,530,1,0,1.6,NaN,-0.610445533,-0.610445533,7,7,33,0.5,1.5,1,3,1053,-1.216757399,0.611821142,-1.287685703,0
1053,103,3,175,NaN,NaN,2,1,0.6,1,484,1,1,484,1,0,2.2,NaN,-0.999833285,-0.999833285,7,7,33,-1.5,0.5,1,3,1053,-1.216757399,0.611821142,-1.287685703,NaN
1053,103,3,176,NaN,NaN,1,2,0.6,2,706,1,1,706,1,0,2.2,NaN,0.879385866,0.879385866,7,7,33,1.5,0.5,1,3,1053,-1.216757399,0.611821142,-1.287685703,1
1053,103,3,177,NaN,NaN,0,4,0.6,3,710,0,1,NaN,0,0,2.2,0.8,0.91324567,NaN,7,7,33,1.5,1.5,0,3,1053,-1.216757399,0.611821142,-1.287685703,0
1053,103,3,178,NaN,NaN,2,2,0.6,2,553,1,1,553,1,0,2.2,NaN,-0.415751657,-0.415751657,7,7,33,-1.5,-1.5,1,3,1053,-1.216757399,0.611821142,-1.287685703,NaN
1053,103,3,179,NaN,NaN,1,4,0.6,4,671,1,1,671,1,0,2.2,NaN,0.583112576,0.583112576,7,7,33,-0.5,-1.5,1,3,1053,-1.216757399,0.611821142,-1.287685703,1
1053,103,3,180,NaN,NaN,0,1,0.6,1,605,1,1,605,1,0,1.6,NaN,0.024425802,0.024425802,7,7,33,-1.5,-0.5,1,3,1053,-1.216757399,0.611821142,-1.287685703,0
1053,103,3,181,NaN,NaN,1,4,0.6,4,515,1,1,515,1,0,1.4,0.8,-0.7374198,-0.7374198,7,7,33,1.5,-1.5,1,3,1053,-1.216757399,0.611821142,-1.287685703,1
1053,103,3,182,NaN,NaN,1,1,0.6,1,523,1,1,523,0,0,1,NaN,-0.669700191,-0.669700191,7,7,33,-0.5,0.5,0,3,1053,-1.216757399,0.611821142,-1.287685703,1
1053,103,3,183,NaN,NaN,2,4,0.6,4,534,1,1,534,1,0,1,NaN,-0.576585728,-0.576585728,7,7,33,0.5,1.5,1,3,1053,-1.216757399,0.611821142,-1.287685703,NaN
1053,103,3,184,NaN,NaN,1,3,0.6,3,644,1,1,644,1,0,1.6,0.6,0.354558896,0.354558896,7,7,33,1.5,1.5,1,3,1053,-1.216757399,0.611821142,-1.287685703,1
1053,103,3,185,NaN,NaN,1,1,0.6,1,492,1,1,492,1,0,2.2,NaN,-0.932113676,-0.932113676,7,7,33,0.5,0.5,1,3,1053,-1.216757399,0.611821142,-1.287685703,1
1053,103,3,186,NaN,NaN,0,2,0.6,2,597,1,1,597,1,0,2.4,NaN,-0.043293807,-0.043293807,7,7,33,-0.5,-0.5,1,3,1053,-1.216757399,0.611821142,-1.287685703,0
1053,103,3,187,NaN,NaN,0,3,0.6,4,671,0,1,NaN,0,0,2.6,NaN,0.583112576,NaN,7,7,33,1.5,-0.5,0,3,1053,-1.216757399,0.611821142,-1.287685703,0
1053,103,3,188,NaN,NaN,2,1,0.6,1,493,1,1,493,1,0,2.6,NaN,-0.923648725,-0.923648725,7,7,33,-0.5,0.5,1,3,1053,-1.216757399,0.611821142,-1.287685703,NaN
1053,103,3,189,NaN,NaN,0,3,0.6,3,600,1,1,600,0,0,2.4,NaN,-0.017898954,-0.017898954,7,7,33,-1.5,-1.5,0,3,1053,-1.216757399,0.611821142,-1.287685703,0
1053,103,3,190,NaN,NaN,2,1,0.6,1,595,1,1,595,1,0,1.6,NaN,-0.06022371,-0.06022371,7,7,33,1.5,-0.5,1,3,1053,-1.216757399,0.611821142,-1.287685703,NaN
1053,103,3,191,NaN,NaN,1,2,0.6,2,573,1,1,573,1,0,1.4,NaN,-0.246452634,-0.246452634,7,7,33,-0.5,1.5,1,3,1053,-1.216757399,0.611821142,-1.287685703,1
1053,103,3,192,NaN,NaN,0,3,0.6,3,744,1,1,744,1,0,1.8,NaN,1.201054009,1.201054009,7,7,33,-0.5,-1.5,1,3,1053,-1.216757399,0.611821142,-1.287685703,0
1053,103,3,193,NaN,NaN,2,2,0.6,1,606,0,1,NaN,1,0,2,NaN,0.032890753,NaN,7,7,33,-1.5,0.5,1,3,1053,-1.216757399,0.611821142,-1.287685703,NaN
1053,103,3,194,NaN,NaN,1,4,0.6,4,627,1,1,627,1,0,2,NaN,0.210654727,0.210654727,7,7,33,-1.5,0.5,1,3,1053,-1.216757399,0.611821142,-1.287685703,1
1053,103,3,195,NaN,NaN,0,2,0.6,2,776,1,0,776,0,0,2.6,NaN,1.471932445,1.471932445,7,7,33,1.5,0.5,0,3,1053,-1.216757399,0.611821142,-1.287685703,0
1053,103,3,196,NaN,NaN,2,1,0.6,1,449,1,1,449,1,0,2.2,NaN,-1.296106575,-1.296106575,7,7,33,-0.5,0.5,1,3,1053,-1.216757399,0.611821142,-1.287685703,NaN
1053,103,3,197,NaN,NaN,0,4,0.6,4,779,1,0,779,1,0,2,NaN,1.497327298,1.497327298,7,7,33,-1.5,-1.5,1,3,1053,-1.216757399,0.611821142,-1.287685703,0
1053,103,3,198,NaN,NaN,0,1,0.6,1,450,1,1,450,0,0,2,NaN,-1.287641623,-1.287641623,7,7,33,-0.5,1.5,0,3,1053,-1.216757399,0.611821142,-1.287685703,0
1053,103,3,199,NaN,NaN,2,2,0.6,2,689,1,1,689,1,0,1.4,NaN,0.735481697,0.735481697,7,7,33,1.5,-0.5,1,3,1053,-1.216757399,0.611821142,-1.287685703,NaN
1053,103,3,200,NaN,NaN,1,4,0.6,3,610,0,1,NaN,1,0,1.2,NaN,0.066750557,NaN,7,7,33,0.5,-1.5,1,3,1053,-1.216757399,0.611821142,-1.287685703,1
1053,103,3,201,NaN,NaN,0,3,0.6,3,602,1,1,602,1,0,1.4,0.8,-0.000969052,-0.000969052,7,7,33,1.5,-1.5,1,3,1053,-1.216757399,0.611821142,-1.287685703,0
1053,103,3,202,NaN,NaN,2,4,0.6,4,799,1,0,799,0,0,1,NaN,1.666626321,1.666626321,7,7,33,-0.5,-0.5,0,3,1053,-1.216757399,0.611821142,-1.287685703,NaN
1053,103,3,203,NaN,NaN,1,1,0.6,1,431,1,1,431,1,0,0.8,NaN,-1.448475695,-1.448475695,7,7,33,0.5,1.5,1,3,1053,-1.216757399,0.611821142,-1.287685703,1
1053,103,3,204,NaN,NaN,1,4,0.6,4,629,1,1,629,1,0,1.6,NaN,0.227584629,0.227584629,7,7,33,-1.5,0.5,1,3,1053,-1.216757399,0.611821142,-1.287685703,1
1053,103,3,205,NaN,NaN,2,2,0.6,2,500,1,1,500,1,0,1.8,NaN,-0.864394067,-0.864394067,7,7,33,-0.5,1.5,1,3,1053,-1.216757399,0.611821142,-1.287685703,NaN
1053,103,3,206,NaN,NaN,1,1,0.6,1,499,1,1,499,0,0,2.4,NaN,-0.872859018,-0.872859018,7,7,33,-1.5,0.5,0,3,1053,-1.216757399,0.611821142,-1.287685703,1
1053,103,3,207,NaN,NaN,0,2,0.6,2,455,1,1,455,1,0,2.2,NaN,-1.245316868,-1.245316868,7,7,33,0.5,1.5,1,3,1053,-1.216757399,0.611821142,-1.287685703,0
1053,103,3,208,NaN,NaN,1,1,0.6,1,391,1,1,391,1,0,3,0.6,-1.78707374,-1.78707374,7,7,33,1.5,1.5,1,3,1053,-1.216757399,0.611821142,-1.287685703,1
1053,103,3,209,NaN,NaN,0,2,0.8,2,656,1,1,656,1,0,3,NaN,0.456138309,0.456138309,7,7,33,-1.5,-0.5,1,3,1053,-1.216757399,0.611821142,-1.287685703,0
1053,103,3,210,NaN,NaN,0,3,0.8,3,736,1,1,736,1,0,2.8,NaN,1.1333344,1.1333344,7,7,33,0.5,1.5,1,3,1053,-1.216757399,0.611821142,-1.287685703,0
1053,103,3,211,NaN,NaN,0,1,0.8,2,661,0,1,NaN,1,0,2.8,NaN,0.498463065,NaN,7,7,33,-1.5,-0.5,1,3,1053,-1.216757399,0.611821142,-1.287685703,0
1053,103,3,212,NaN,NaN,1,3,0.8,4,505,0,1,NaN,0,0,3.2,NaN,-0.822069311,NaN,7,7,33,-0.5,-0.5,0,3,1053,-1.216757399,0.611821142,-1.287685703,1
1053,103,3,213,NaN,NaN,2,4,0.8,4,808,1,0,808,0,0,2.4,NaN,1.742810881,1.742810881,7,7,33,0.5,-1.5,0,3,1053,-1.216757399,0.611821142,-1.287685703,NaN
1053,103,3,214,NaN,NaN,0,2,0.8,2,559,1,1,559,1,0,1.6,NaN,-0.36496195,-0.36496195,7,7,33,-1.5,-0.5,1,3,1053,-1.216757399,0.611821142,-1.287685703,0
1053,103,3,215,NaN,NaN,0,4,0.8,4,535,1,1,535,1,0,1.6,NaN,-0.568120777,-0.568120777,7,7,33,0.5,1.5,1,3,1053,-1.216757399,0.611821142,-1.287685703,0
1053,103,3,216,NaN,NaN,2,2,0.8,2,688,1,1,688,0,0,1.6,NaN,0.727016746,0.727016746,7,7,33,-1.5,-0.5,0,3,1053,-1.216757399,0.611821142,-1.287685703,NaN
1053,103,3,217,NaN,NaN,0,4,0.8,4,672,1,1,672,1,0,1.2,NaN,0.591577527,0.591577527,7,7,33,1.5,-0.5,1,3,1053,-1.216757399,0.611821142,-1.287685703,0
1053,103,3,218,NaN,NaN,0,2,0.8,2,506,1,1,506,1,0,1.6,NaN,-0.81360436,-0.81360436,7,7,33,-1.5,-1.5,1,3,1053,-1.216757399,0.611821142,-1.287685703,0
1053,103,3,219,NaN,NaN,2,4,0.8,4,771,1,0,771,0,0,1.8,NaN,1.429607689,1.429607689,7,7,33,-0.5,1.5,0,3,1053,-1.216757399,0.611821142,-1.287685703,NaN
1053,103,3,220,NaN,NaN,0,3,0.8,3,801,1,0,801,0,0,1.4,NaN,1.683556223,1.683556223,7,7,33,-0.5,-1.5,0,3,1053,-1.216757399,0.611821142,-1.287685703,0
1053,103,3,221,NaN,NaN,0,1,0.8,NaN,NaN,0,0,NaN,1,1,0.6,NaN,NaN,NaN,7,7,33,-1.5,-1.5,1,3,1053,-1.216757399,0.611821142,-1.287685703,0
1053,103,3,222,NaN,NaN,0,3,0.8,4,680,0,1,NaN,1,0,0.8,NaN,0.659297136,NaN,7,7,33,-1.5,-0.5,1,3,1053,-1.216757399,0.611821142,-1.287685703,0
1053,103,3,223,NaN,NaN,2,2,0.8,2,498,1,1,498,1,0,0.8,0.6,-0.881323969,-0.881323969,7,7,33,1.5,1.5,1,3,1053,-1.216757399,0.611821142,-1.287685703,NaN
1053,103,3,224,NaN,NaN,0,1,1,1,679,1,1,679,1,0,1.4,NaN,0.650832185,0.650832185,7,7,33,-0.5,-0.5,1,3,1053,-1.216757399,0.611821142,-1.287685703,0
1053,103,3,225,NaN,NaN,2,4,1,4,666,1,1,666,1,0,1.8,NaN,0.540787821,0.540787821,7,7,33,-0.5,0.5,1,3,1053,-1.216757399,0.611821142,-1.287685703,NaN
1053,103,4,226,NaN,NaN,0,3,1,3,921,1,0,921,1,0,2.4,NaN,2.699350359,2.699350359,7,7,33,0.5,-1.5,1,4,1053,-1.216757399,0.611821142,-1.287685703,0
1053,103,4,227,NaN,NaN,2,4,1,4,468,1,1,468,1,0,2.4,0.8,-1.135272503,-1.135272503,7,7,33,1.5,-1.5,1,4,1053,-1.216757399,0.611821142,-1.287685703,NaN
1053,103,4,228,NaN,NaN,1,1,1,1,539,1,1,539,1,0,2.2,NaN,-0.534260973,-0.534260973,7,7,33,-0.5,-1.5,1,4,1053,-1.216757399,0.611821142,-1.287685703,1
1053,103,4,229,NaN,NaN,0,2,1,2,376,1,1,376,1,0,1.6,0.6,-1.914048007,-1.914048007,7,7,33,1.5,1.5,1,4,1053,-1.216757399,0.611821142,-1.287685703,0
1053,103,4,230,NaN,NaN,0,4,1,4,653,1,1,653,1,0,2,0.8,0.430743456,0.430743456,7,7,33,1.5,1.5,1,4,1053,-1.216757399,0.611821142,-1.287685703,0
1053,103,4,231,NaN,NaN,1,1,1,1,811,1,0,811,1,0,2.2,NaN,1.768205735,1.768205735,7,7,33,-1.5,-1.5,1,4,1053,-1.216757399,0.611821142,-1.287685703,1
1053,103,4,232,NaN,NaN,1,3,1,3,826,1,0,826,1,0,2.2,NaN,1.895180001,1.895180001,7,7,33,-1.5,1.5,1,4,1053,-1.216757399,0.611821142,-1.287685703,1
1053,103,4,233,NaN,NaN,0,4,1,4,496,1,1,496,1,0,2.8,NaN,-0.898253871,-0.898253871,7,7,33,1.5,0.5,1,4,1053,-1.216757399,0.611821142,-1.287685703,0
1053,103,4,234,NaN,NaN,0,3,1,3,839,1,0,839,1,0,3.2,NaN,2.005224366,2.005224366,7,7,33,-1.5,-1.5,1,4,1053,-1.216757399,0.611821142,-1.287685703,0
1053,103,4,235,NaN,NaN,0,1,1,1,742,1,1,742,1,0,2.6,NaN,1.184124107,1.184124107,7,7,33,-0.5,-1.5,1,4,1053,-1.216757399,0.611821142,-1.287685703,0
1053,103,4,236,NaN,NaN,1,3,1,4,549,0,1,NaN,0,0,2,1,-0.449611462,NaN,7,7,33,1.5,1.5,0,4,1053,-1.216757399,0.611821142,-1.287685703,1
1053,103,4,237,NaN,NaN,1,4,0.8,4,533,1,1,533,1,0,1.8,NaN,-0.58505068,-0.58505068,7,7,33,-0.5,-1.5,1,4,1053,-1.216757399,0.611821142,-1.287685703,1
1053,103,4,238,NaN,NaN,2,2,0.8,2,445,1,1,445,1,0,1.2,NaN,-1.329966379,-1.329966379,7,7,33,0.5,-1.5,1,4,1053,-1.216757399,0.611821142,-1.287685703,NaN
1053,103,4,239,NaN,NaN,0,3,0.8,3,933,1,0,933,0,0,0.8,NaN,2.800929772,2.800929772,7,7,33,-1.5,1.5,0,4,1053,-1.216757399,0.611821142,-1.287685703,0
1053,103,4,240,NaN,NaN,0,4,0.8,4,507,1,1,507,1,0,0.6,NaN,-0.805139409,-0.805139409,7,7,33,-1.5,-0.5,1,4,1053,-1.216757399,0.611821142,-1.287685703,0
1053,103,4,241,NaN,NaN,1,3,0.8,4,739,0,1,NaN,1,0,0.8,NaN,1.158729253,NaN,7,7,33,-0.5,0.5,1,4,1053,-1.216757399,0.611821142,-1.287685703,1
1053,103,4,242,NaN,NaN,2,1,0.8,1,571,1,1,571,1,0,1.4,NaN,-0.263382537,-0.263382537,7,7,33,-0.5,-0.5,1,4,1053,-1.216757399,0.611821142,-1.287685703,NaN
1053,103,4,243,NaN,NaN,1,2,0.8,2,385,1,1,385,1,0,1.6,NaN,-1.837863447,-1.837863447,7,7,33,0.5,1.5,1,4,1053,-1.216757399,0.611821142,-1.287685703,1
1053,103,4,244,NaN,NaN,1,1,0.8,1,563,1,1,563,1,0,2.2,NaN,-0.331102146,-0.331102146,7,7,33,-0.5,-1.5,1,4,1053,-1.216757399,0.611821142,-1.287685703,1
1053,103,4,245,NaN,NaN,0,4,0.8,3,773,0,0,NaN,0,0,2.4,NaN,1.446537592,NaN,7,7,33,-0.5,-0.5,0,4,1053,-1.216757399,0.611821142,-1.287685703,0
1053,103,4,246,NaN,NaN,1,1,0.8,1,449,1,1,449,1,0,2,NaN,-1.296106575,-1.296106575,7,7,33,-1.5,-1.5,1,4,1053,-1.216757399,0.611821142,-1.287685703,1
1053,103,4,247,NaN,NaN,2,2,0.8,2,457,1,1,457,1,0,1.6,NaN,-1.228386965,-1.228386965,7,7,33,1.5,-0.5,1,4,1053,-1.216757399,0.611821142,-1.287685703,NaN
1053,103,4,248,NaN,NaN,1,1,0.8,1,500,1,1,500,1,0,1.6,NaN,-0.864394067,-0.864394067,7,7,33,-1.5,1.5,1,4,1053,-1.216757399,0.611821142,-1.287685703,1
1053,103,4,249,NaN,NaN,0,2,0.8,2,684,1,1,684,1,0,1.6,NaN,0.693156941,0.693156941,7,7,33,-1.5,-1.5,1,4,1053,-1.216757399,0.611821142,-1.287685703,0
1053,103,4,250,NaN,NaN,0,1,0.8,1,674,1,1,674,1,0,1.6,NaN,0.60850743,0.60850743,7,7,33,-0.5,-1.5,1,4,1053,-1.216757399,0.611821142,-1.287685703,0
1053,103,4,251,NaN,NaN,0,2,0.8,2,508,1,1,508,1,0,1.8,NaN,-0.796674458,-0.796674458,7,7,33,0.5,-1.5,1,4,1053,-1.216757399,0.611821142,-1.287685703,0
1053,103,4,252,NaN,NaN,0,1,0.8,1,501,1,1,501,1,0,1.8,NaN,-0.855929116,-0.855929116,7,7,33,1.5,-0.5,1,4,1053,-1.216757399,0.611821142,-1.287685703,0
1053,103,4,253,NaN,NaN,2,2,0.8,2,663,1,1,663,0,0,1.8,NaN,0.515392967,0.515392967,7,7,33,-1.5,1.5,0,4,1053,-1.216757399,0.611821142,-1.287685703,NaN
1053,103,4,254,NaN,NaN,0,1,0.8,1,382,1,1,382,1,0,1,NaN,-1.8632583,-1.8632583,7,7,33,0.5,-1.5,1,4,1053,-1.216757399,0.611821142,-1.287685703,0
1053,103,4,255,NaN,NaN,1,3,0.8,2,471,0,1,NaN,0,0,1,NaN,-1.10987765,NaN,7,7,33,-0.5,-0.5,0,4,1053,-1.216757399,0.611821142,-1.287685703,1
1053,103,4,256,NaN,NaN,2,1,0.8,1,542,1,1,542,1,0,0.8,NaN,-0.508866119,-0.508866119,7,7,33,-1.5,-0.5,1,4,1053,-1.216757399,0.611821142,-1.287685703,NaN
1053,103,4,257,NaN,NaN,0,4,0.8,4,658,1,1,658,1,0,1,NaN,0.473068212,0.473068212,7,7,33,0.5,1.5,1,4,1053,-1.216757399,0.611821142,-1.287685703,0
1053,103,4,258,NaN,NaN,0,3,0.8,3,457,1,1,457,1,0,1.4,0.8,-1.228386965,-1.228386965,7,7,33,1.5,1.5,1,4,1053,-1.216757399,0.611821142,-1.287685703,0
1053,103,4,259,NaN,NaN,2,2,0.8,2,646,1,1,646,1,0,2.2,NaN,0.371488798,0.371488798,7,7,33,-1.5,0.5,1,4,1053,-1.216757399,0.611821142,-1.287685703,NaN
1053,103,4,260,NaN,NaN,1,1,0.8,1,466,1,1,466,1,0,2.6,NaN,-1.152202405,-1.152202405,7,7,33,-0.5,-0.5,1,4,1053,-1.216757399,0.611821142,-1.287685703,1
1053,103,4,261,NaN,NaN,1,4,0.8,4,540,1,1,540,1,0,3,NaN,-0.525796022,-0.525796022,7,7,33,0.5,1.5,1,4,1053,-1.216757399,0.611821142,-1.287685703,1
1053,103,4,262,NaN,NaN,1,2,0.8,2,594,1,1,594,1,0,3.4,NaN,-0.068688661,-0.068688661,7,7,33,-0.5,-1.5,1,4,1053,-1.216757399,0.611821142,-1.287685703,1
1053,103,4,263,NaN,NaN,1,3,0.8,3,610,1,1,610,1,0,2.8,NaN,0.066750557,0.066750557,7,7,33,-1.5,1.5,1,4,1053,-1.216757399,0.611821142,-1.287685703,1
1053,103,4,264,NaN,NaN,0,1,0.8,1,610,1,1,610,1,0,2.8,NaN,0.066750557,0.066750557,7,7,33,-1.5,0.5,1,4,1053,-1.216757399,0.611821142,-1.287685703,0
1053,103,4,265,NaN,NaN,2,2,0.8,2,601,1,1,601,1,0,2.8,NaN,-0.009434003,-0.009434003,7,7,33,1.5,0.5,1,4,1053,-1.216757399,0.611821142,-1.287685703,NaN
1053,103,4,266,NaN,NaN,0,1,0.8,1,529,1,1,529,1,0,3,NaN,-0.618910484,-0.618910484,7,7,33,0.5,1.5,1,4,1053,-1.216757399,0.611821142,-1.287685703,0
1053,103,4,267,NaN,NaN,2,2,0.8,2,518,1,1,518,0,0,3,NaN,-0.712024947,-0.712024947,7,7,33,-0.5,-0.5,0,4,1053,-1.216757399,0.611821142,-1.287685703,NaN
1053,103,4,268,NaN,NaN,1,4,0.8,4,520,1,1,520,1,0,2.8,NaN,-0.695095044,-0.695095044,7,7,33,-0.5,-1.5,1,4,1053,-1.216757399,0.611821142,-1.287685703,1
1053,103,4,269,NaN,NaN,2,3,0.8,3,558,1,1,558,0,0,2.2,NaN,-0.373426901,-0.373426901,7,7,33,-1.5,-1.5,0,4,1053,-1.216757399,0.611821142,-1.287685703,NaN
1053,103,4,270,NaN,NaN,1,4,0.8,4,632,1,1,632,1,0,1.6,NaN,0.252979482,0.252979482,7,7,33,-0.5,-0.5,1,4,1053,-1.216757399,0.611821142,-1.287685703,1
1053,103,4,271,NaN,NaN,2,1,0.8,1,480,1,1,480,1,0,1.4,NaN,-1.033693089,-1.033693089,7,7,33,0.5,-1.5,1,4,1053,-1.216757399,0.611821142,-1.287685703,NaN
1053,103,4,272,NaN,NaN,0,2,0.8,4,571,0,1,NaN,0,0,0.8,NaN,-0.263382537,NaN,7,7,33,1.5,0.5,0,4,1053,-1.216757399,0.611821142,-1.287685703,0
1053,103,4,273,NaN,NaN,2,1,0.8,1,508,1,1,508,1,0,0.8,NaN,-0.796674458,-0.796674458,7,7,33,-1.5,1.5,1,4,1053,-1.216757399,0.611821142,-1.287685703,NaN
1053,103,4,274,NaN,NaN,0,3,0.8,4,615,0,1,NaN,0,0,1.4,NaN,0.109075313,NaN,7,7,33,1.5,0.5,0,4,1053,-1.216757399,0.611821142,-1.287685703,0
1053,103,4,275,NaN,NaN,2,4,0.6,4,629,1,1,629,1,0,1.4,NaN,0.227584629,0.227584629,7,7,33,0.5,-1.5,1,4,1053,-1.216757399,0.611821142,-1.287685703,NaN
1053,103,4,276,NaN,NaN,1,1,0.6,1,490,1,1,490,1,0,1.2,NaN,-0.949043578,-0.949043578,7,7,33,-0.5,0.5,1,4,1053,-1.216757399,0.611821142,-1.287685703,1
1053,103,4,277,NaN,NaN,2,2,0.6,2,646,1,1,646,1,0,1.6,NaN,0.371488798,0.371488798,7,7,33,-1.5,-1.5,1,4,1053,-1.216757399,0.611821142,-1.287685703,NaN
1053,103,4,278,NaN,NaN,1,4,0.6,3,751,0,0,NaN,0,0,1.8,NaN,1.260308667,NaN,7,7,33,0.5,1.5,0,4,1053,-1.216757399,0.611821142,-1.287685703,1
1053,103,4,279,NaN,NaN,2,1,0.6,1,436,1,1,436,1,0,1,NaN,-1.406150939,-1.406150939,7,7,33,-1.5,1.5,1,4,1053,-1.216757399,0.611821142,-1.287685703,NaN
1053,103,4,280,NaN,NaN,1,4,0.6,4,574,1,1,574,0,0,1.8,NaN,-0.237987683,-0.237987683,7,7,33,-0.5,-0.5,0,4,1053,-1.216757399,0.611821142,-1.287685703,1
1053,103,4,281,NaN,NaN,0,3,0.6,2,511,0,1,NaN,0,0,1.6,NaN,-0.771279604,NaN,7,7,33,-1.5,1.5,0,4,1053,-1.216757399,0.611821142,-1.287685703,0
1053,103,4,282,NaN,NaN,1,4,0.6,4,573,1,1,573,1,0,1,NaN,-0.246452634,-0.246452634,7,7,33,-0.5,-0.5,1,4,1053,-1.216757399,0.611821142,-1.287685703,1
1053,103,4,283,NaN,NaN,0,3,0.6,3,671,1,1,671,1,0,1.2,NaN,0.583112576,0.583112576,7,7,33,-1.5,0.5,1,4,1053,-1.216757399,0.611821142,-1.287685703,0
1053,103,4,284,NaN,NaN,0,4,0.6,4,486,1,1,486,1,0,1.8,NaN,-0.982903383,-0.982903383,7,7,33,-1.5,1.5,1,4,1053,-1.216757399,0.611821142,-1.287685703,0
1053,103,4,285,NaN,NaN,1,3,0.6,3,538,1,1,538,1,0,1.8,NaN,-0.542725924,-0.542725924,7,7,33,-0.5,1.5,1,4,1053,-1.216757399,0.611821142,-1.287685703,1
1053,103,4,286,NaN,NaN,1,1,0.6,1,434,1,1,434,1,0,2.6,NaN,-1.423080841,-1.423080841,7,7,33,1.5,-0.5,1,4,1053,-1.216757399,0.611821142,-1.287685703,1
1053,103,4,287,NaN,NaN,2,2,0.6,2,545,1,1,545,0,0,3,NaN,-0.483471266,-0.483471266,7,7,33,-1.5,0.5,0,4,1053,-1.216757399,0.611821142,-1.287685703,NaN
1053,103,4,288,NaN,NaN,1,1,0.6,1,378,1,1,378,1,0,2.6,NaN,-1.897118105,-1.897118105,7,7,33,-0.5,1.5,1,4,1053,-1.216757399,0.611821142,-1.287685703,1
1053,103,4,289,NaN,NaN,1,3,0.6,4,654,0,1,NaN,0,0,2.8,0.8,0.439208407,NaN,7,7,33,1.5,-1.5,0,4,1053,-1.216757399,0.611821142,-1.287685703,1
1053,103,4,290,NaN,NaN,1,2,0.4,2,469,1,1,469,1,0,2,NaN,-1.126807552,-1.126807552,7,7,33,-1.5,0.5,1,4,1053,-1.216757399,0.611821142,-1.287685703,1
1053,103,4,291,NaN,NaN,1,4,0.4,4,668,1,1,668,1,0,1.8,NaN,0.557717723,0.557717723,7,7,33,-0.5,1.5,1,4,1053,-1.216757399,0.611821142,-1.287685703,1
1053,103,4,292,NaN,NaN,2,1,0.4,1,547,1,1,547,0,0,2.2,NaN,-0.466541364,-0.466541364,7,7,33,-0.5,1.5,0,4,1053,-1.216757399,0.611821142,-1.287685703,NaN
1053,103,4,293,NaN,NaN,1,2,0.4,2,573,1,1,573,1,0,2.2,0.8,-0.246452634,-0.246452634,7,7,33,1.5,-1.5,1,4,1053,-1.216757399,0.611821142,-1.287685703,1
1053,103,4,294,NaN,NaN,1,3,0.4,3,434,1,1,434,1,0,1.6,0.8,-1.423080841,-1.423080841,7,7,33,1.5,1.5,1,4,1053,-1.216757399,0.611821142,-1.287685703,1
1053,103,4,295,NaN,NaN,1,2,0.6,2,471,1,1,471,1,0,2.4,0.8,-1.10987765,-1.10987765,7,7,33,1.5,-1.5,1,4,1053,-1.216757399,0.611821142,-1.287685703,1
1053,103,4,296,NaN,NaN,2,3,0.8,4,646,0,1,NaN,0,0,2,0.8,0.371488798,NaN,7,7,33,1.5,1.5,0,4,1053,-1.216757399,0.611821142,-1.287685703,NaN
1053,103,4,297,NaN,NaN,1,4,0.6,4,378,1,1,378,1,0,1.2,0.8,-1.897118105,-1.897118105,7,7,33,1.5,-1.5,1,4,1053,-1.216757399,0.611821142,-1.287685703,1
1053,103,4,298,NaN,NaN,0,3,0.8,3,385,1,1,385,1,0,1.4,NaN,-1.837863447,-1.837863447,7,7,33,0.5,0.5,1,4,1053,-1.216757399,0.611821142,-1.287685703,0
1053,103,4,299,NaN,NaN,1,4,0.8,4,606,1,1,606,1,0,1.8,NaN,0.032890753,0.032890753,7,7,33,1.5,-0.5,1,4,1053,-1.216757399,0.611821142,-1.287685703,1
1053,103,4,300,NaN,NaN,0,3,0.8,3,619,1,1,619,1,0,1.4,NaN,0.142935118,0.142935118,7,7,33,-1.5,0.5,1,4,1053,-1.216757399,0.611821142,-1.287685703,0
1054,103,1,1,NaN,NaN,1,4,0.5,4,557,1,1,557,0,0,0,NaN,-0.623577884,-0.623577884,17,18,27,0.5,-0.5,0,1,1054,1.638566631,-1.141457355,1.698252159,1
1054,103,1,2,NaN,NaN,0,1,0.5,1,810,1,0,810,0,0,0,NaN,1.681368487,1.681368487,17,18,27,0.5,0.5,0,1,1054,1.638566631,-1.141457355,1.698252159,0
1054,103,1,3,NaN,NaN,2,2,0.5,2,585,1,1,585,1,0,0,NaN,-0.368485005,-0.368485005,17,18,27,-1.5,0.5,1,1,1054,1.638566631,-1.141457355,1.698252159,NaN
1054,103,1,4,NaN,NaN,1,1,0.5,1,523,1,1,523,0,0,0.6,NaN,-0.933333523,-0.933333523,17,18,27,-0.5,1.5,0,1,1054,1.638566631,-1.141457355,1.698252159,1
1054,103,1,5,NaN,NaN,2,2,0.5,2,453,1,1,453,0,0,0.6,NaN,-1.571065721,-1.571065721,17,18,27,-1.5,0.5,0,1,1054,1.638566631,-1.141457355,1.698252159,NaN
1054,103,1,6,NaN,NaN,1,4,0.5,4,496,1,1,496,1,0,0.6,0,-1.179315942,-1.179315942,17,18,27,1.5,1.5,1,1,1054,1.638566631,-1.141457355,1.698252159,1
1054,103,1,7,NaN,NaN,1,3,0.7,3,552,1,1,552,1,0,1.4,NaN,-0.669130184,-0.669130184,17,18,27,-0.5,0.5,1,1,1054,1.638566631,-1.141457355,1.698252159,1
1054,103,1,8,NaN,NaN,1,1,0.7,1,435,1,1,435,1,0,2,NaN,-1.735054,-1.735054,17,18,27,-1.5,-1.5,1,1,1054,1.638566631,-1.141457355,1.698252159,1
1054,103,1,9,NaN,NaN,0,3,0.7,4,547,0,1,NaN,0,0,1.6,0.2,-0.714682484,NaN,17,18,27,1.5,1.5,0,1,1054,1.638566631,-1.141457355,1.698252159,0
1054,103,1,10,NaN,NaN,0,1,0.7,1,715,1,1,715,1,0,1.6,NaN,0.81587479,0.81587479,17,18,27,1.5,0.5,1,1,1054,1.638566631,-1.141457355,1.698252159,0
1054,103,1,11,NaN,NaN,2,2,0.7,2,494,1,1,494,1,0,2.2,NaN,-1.197536862,-1.197536862,17,18,27,-0.5,1.5,1,1,1054,1.638566631,-1.141457355,1.698252159,NaN
1054,103,1,12,NaN,NaN,1,4,0.7,4,519,1,1,519,1,0,2.2,NaN,-0.969775363,-0.969775363,17,18,27,0.5,-0.5,1,1,1054,1.638566631,-1.141457355,1.698252159,1
1054,103,1,13,NaN,NaN,0,3,0.7,3,541,1,1,541,1,0,2,NaN,-0.769345244,-0.769345244,17,18,27,-1.5,-1.5,1,1,1054,1.638566631,-1.141457355,1.698252159,0
1054,103,1,14,NaN,NaN,1,4,0.7,4,621,1,1,621,1,0,2,NaN,-0.040508447,-0.040508447,17,18,27,-0.5,1.5,1,1,1054,1.638566631,-1.141457355,1.698252159,1
1054,103,1,15,NaN,NaN,0,3,0.7,1,763,0,0,NaN,0,0,2.8,NaN,1.253176869,NaN,17,18,27,-0.5,-0.5,0,1,1054,1.638566631,-1.141457355,1.698252159,0
1054,103,1,16,NaN,NaN,2,2,0.7,2,502,1,1,502,1,0,2.2,NaN,-1.124653182,-1.124653182,17,18,27,-0.5,0.5,1,1,1054,1.638566631,-1.141457355,1.698252159,NaN
1054,103,1,17,NaN,NaN,0,4,0.7,3,676,0,1,NaN,0,0,2,NaN,0.460566852,NaN,17,18,27,-1.5,-1.5,0,1,1054,1.638566631,-1.141457355,1.698252159,0
1054,103,1,18,NaN,NaN,1,3,0.7,3,686,1,1,686,1,0,1.6,0,0.551671451,0.551671451,17,18,27,1.5,-1.5,1,1,1054,1.638566631,-1.141457355,1.698252159,1
1054,103,1,19,NaN,NaN,0,1,0.7,1,798,1,0,798,0,0,1.6,0.2,1.572042967,1.572042967,17,18,27,1.5,-1.5,0,1,1054,1.638566631,-1.141457355,1.698252159,0
1054,103,1,20,NaN,NaN,1,3,0.6,3,503,1,1,503,1,0,0.8,NaN,-1.115542722,-1.115542722,17,18,27,1.5,-0.5,1,1,1054,1.638566631,-1.141457355,1.698252159,1
1054,103,1,21,NaN,NaN,2,4,0.6,4,644,1,1,644,1,0,1.2,NaN,0.169032133,0.169032133,17,18,27,0.5,1.5,1,1,1054,1.638566631,-1.141457355,1.698252159,NaN
1054,103,1,22,NaN,NaN,1,2,0.6,2,548,1,1,548,1,0,1.4,NaN,-0.705572024,-0.705572024,17,18,27,0.5,1.5,1,1,1054,1.638566631,-1.141457355,1.698252159,1
1054,103,1,23,NaN,NaN,0,1,0.6,1,729,1,1,729,1,0,2.2,0.2,0.94342123,0.94342123,17,18,27,1.5,1.5,1,1,1054,1.638566631,-1.141457355,1.698252159,0
1054,103,1,24,NaN,NaN,0,2,0.8,2,607,1,1,607,1,0,2.8,0.2,-0.168054886,-0.168054886,17,18,27,1.5,-1.5,1,1,1054,1.638566631,-1.141457355,1.698252159,0
1054,103,1,25,NaN,NaN,2,3,0.8,3,686,1,1,686,1,0,3,0.4,0.551671451,0.551671451,17,18,27,1.5,1.5,1,1,1054,1.638566631,-1.141457355,1.698252159,NaN
1054,103,1,26,NaN,NaN,0,2,0.8,2,556,1,1,556,1,0,3.4,NaN,-0.632688344,-0.632688344,17,18,27,0.5,-0.5,1,1,1054,1.638566631,-1.141457355,1.698252159,0
1054,103,1,27,NaN,NaN,2,4,0.8,4,651,1,1,651,1,0,3,NaN,0.232805352,0.232805352,17,18,27,-0.5,-1.5,1,1,1054,1.638566631,-1.141457355,1.698252159,NaN
1054,103,1,28,NaN,NaN,0,1,0.8,1,775,1,0,775,0,0,2.4,NaN,1.362502388,1.362502388,17,18,27,-1.5,0.5,0,1,1054,1.638566631,-1.141457355,1.698252159,0
1054,103,1,29,NaN,NaN,1,3,0.8,3,581,1,1,581,1,0,1.6,NaN,-0.404926845,-0.404926845,17,18,27,1.5,-0.5,1,1,1054,1.638566631,-1.141457355,1.698252159,1
1054,103,1,30,NaN,NaN,1,1,1,1,506,1,1,506,1,0,1.8,NaN,-1.088211343,-1.088211343,17,18,27,-0.5,-1.5,1,1,1054,1.638566631,-1.141457355,1.698252159,1
1054,103,1,31,NaN,NaN,1,4,1,4,916,1,0,916,1,0,1.2,NaN,2.647077243,2.647077243,17,18,27,-1.5,0.5,1,1,1054,1.638566631,-1.141457355,1.698252159,1
1054,103,1,32,NaN,NaN,1,1,1,1,618,1,1,618,1,0,1.4,NaN,-0.067839826,-0.067839826,17,18,27,1.5,0.5,1,1,1054,1.638566631,-1.141457355,1.698252159,1
1054,103,1,33,NaN,NaN,1,4,1,4,587,1,1,587,1,0,1.8,NaN,-0.350264085,-0.350264085,17,18,27,-1.5,-0.5,1,1,1054,1.638566631,-1.141457355,1.698252159,1
1054,103,1,34,NaN,NaN,2,1,1,1,636,1,1,636,1,0,2.2,0.4,0.096148453,0.096148453,17,18,27,1.5,-1.5,1,1,1054,1.638566631,-1.141457355,1.698252159,NaN
1054,103,1,35,NaN,NaN,0,4,1,4,616,1,1,616,1,0,2,NaN,-0.086060746,-0.086060746,17,18,27,0.5,-1.5,1,1,1054,1.638566631,-1.141457355,1.698252159,0
1054,103,1,36,NaN,NaN,2,2,1,2,624,1,1,624,1,0,2,NaN,-0.013177067,-0.013177067,17,18,27,1.5,0.5,1,1,1054,1.638566631,-1.141457355,1.698252159,NaN
1054,103,1,37,NaN,NaN,1,3,1,3,551,1,1,551,1,0,2,NaN,-0.678240644,-0.678240644,17,18,27,-0.5,0.5,1,1,1054,1.638566631,-1.141457355,1.698252159,1
1054,103,1,38,NaN,NaN,1,1,1,1,514,1,1,514,1,0,2,NaN,-1.015327663,-1.015327663,17,18,27,-1.5,1.5,1,1,1054,1.638566631,-1.141457355,1.698252159,1
1054,103,1,39,NaN,NaN,0,2,1,2,817,1,0,817,1,0,2.4,NaN,1.745141707,1.745141707,17,18,27,0.5,0.5,1,1,1054,1.638566631,-1.141457355,1.698252159,0
1054,103,1,40,NaN,NaN,0,4,1,4,683,1,1,683,1,0,2.8,0.6,0.524340071,0.524340071,17,18,27,1.5,-1.5,1,1,1054,1.638566631,-1.141457355,1.698252159,0
1054,103,1,41,NaN,NaN,1,2,1,2,557,1,1,557,1,0,2.8,NaN,-0.623577884,-0.623577884,17,18,27,1.5,0.5,1,1,1054,1.638566631,-1.141457355,1.698252159,1
1054,103,1,42,NaN,NaN,1,4,1,4,685,1,1,685,1,0,2.8,NaN,0.542560991,0.542560991,17,18,27,-0.5,0.5,1,1,1054,1.638566631,-1.141457355,1.698252159,1
1054,103,1,43,NaN,NaN,1,2,1,2,547,1,1,547,1,0,2.8,NaN,-0.714682484,-0.714682484,17,18,27,0.5,0.5,1,1,1054,1.638566631,-1.141457355,1.698252159,1
1054,103,1,44,NaN,NaN,0,1,1,1,693,1,1,693,1,0,2.6,NaN,0.615444671,0.615444671,17,18,27,0.5,1.5,1,1,1054,1.638566631,-1.141457355,1.698252159,0
1054,103,1,45,NaN,NaN,1,2,1,2,648,1,1,648,1,0,2.8,NaN,0.205473973,0.205473973,17,18,27,-1.5,0.5,1,1,1054,1.638566631,-1.141457355,1.698252159,1
1054,103,1,46,NaN,NaN,1,3,1,3,698,1,1,698,1,0,3.2,NaN,0.660996971,0.660996971,17,18,27,0.5,-1.5,1,1,1054,1.638566631,-1.141457355,1.698252159,1
1054,103,1,47,NaN,NaN,1,1,1,1,816,1,0,816,1,0,2.8,NaN,1.736031247,1.736031247,17,18,27,-1.5,0.5,1,1,1054,1.638566631,-1.141457355,1.698252159,1
1054,103,1,48,NaN,NaN,2,3,1,3,723,1,1,723,1,0,2.8,NaN,0.88875847,0.88875847,17,18,27,0.5,-1.5,1,1,1054,1.638566631,-1.141457355,1.698252159,NaN
1054,103,1,49,NaN,NaN,0,2,1,2,598,1,1,598,1,0,2.4,NaN,-0.250049026,-0.250049026,17,18,27,0.5,-1.5,1,1,1054,1.638566631,-1.141457355,1.698252159,0
1054,103,1,50,NaN,NaN,1,4,1,4,625,1,1,625,1,0,1.8,0.6,-0.004066607,-0.004066607,17,18,27,1.5,1.5,1,1,1054,1.638566631,-1.141457355,1.698252159,1
1054,103,1,51,NaN,NaN,0,3,1,3,791,1,0,791,0,0,2,NaN,1.508269748,1.508269748,17,18,27,1.5,0.5,0,1,1054,1.638566631,-1.141457355,1.698252159,0
1054,103,1,52,NaN,NaN,1,2,0.8,3,526,0,1,NaN,0,0,1.8,NaN,-0.906002143,NaN,17,18,27,1.5,-0.5,0,1,1054,1.638566631,-1.141457355,1.698252159,1
1054,103,1,53,NaN,NaN,0,3,0.6,3,623,1,1,623,1,0,1.2,0.8,-0.022287527,-0.022287527,17,18,27,1.5,-1.5,1,1,1054,1.638566631,-1.141457355,1.698252159,0
1054,103,1,54,NaN,NaN,0,4,0.6,4,607,1,1,607,0,0,1.2,NaN,-0.168054886,-0.168054886,17,18,27,-0.5,-1.5,0,1,1054,1.638566631,-1.141457355,1.698252159,0
1054,103,1,55,NaN,NaN,0,3,0.6,3,658,1,1,658,1,0,1,NaN,0.296578572,0.296578572,17,18,27,0.5,-1.5,1,1,1054,1.638566631,-1.141457355,1.698252159,0
1054,103,1,56,NaN,NaN,2,1,0.6,1,830,1,0,830,0,0,0.4,NaN,1.863577686,1.863577686,17,18,27,0.5,1.5,0,1,1054,1.638566631,-1.141457355,1.698252159,NaN
1054,103,1,57,NaN,NaN,1,3,0.6,3,477,1,1,477,1,0,0.4,NaN,-1.352414682,-1.352414682,17,18,27,0.5,-1.5,1,1,1054,1.638566631,-1.141457355,1.698252159,1
1054,103,1,58,NaN,NaN,2,2,0.6,2,491,1,1,491,0,0,0.6,NaN,-1.224868242,-1.224868242,17,18,27,-0.5,-0.5,0,1,1054,1.638566631,-1.141457355,1.698252159,NaN
1054,103,1,59,NaN,NaN,1,4,0.6,4,579,1,1,579,1,0,0.4,NaN,-0.423147765,-0.423147765,17,18,27,-1.5,0.5,1,1,1054,1.638566631,-1.141457355,1.698252159,1
1054,103,1,60,NaN,NaN,2,2,0.6,2,558,1,1,558,1,0,1,NaN,-0.614467424,-0.614467424,17,18,27,-0.5,-1.5,1,1,1054,1.638566631,-1.141457355,1.698252159,NaN
1054,103,1,61,NaN,NaN,1,4,0.6,4,598,1,1,598,1,0,1,NaN,-0.250049026,-0.250049026,17,18,27,-1.5,0.5,1,1,1054,1.638566631,-1.141457355,1.698252159,1
1054,103,1,62,NaN,NaN,0,3,0.6,3,738,1,1,738,1,0,1.6,0.8,1.025415369,1.025415369,17,18,27,1.5,1.5,1,1,1054,1.638566631,-1.141457355,1.698252159,0
1054,103,1,63,NaN,NaN,1,4,0.6,4,444,1,1,444,1,0,2.2,NaN,-1.65305986,-1.65305986,17,18,27,0.5,-1.5,1,1,1054,1.638566631,-1.141457355,1.698252159,1
1054,103,1,64,NaN,NaN,0,3,0.6,3,759,1,0,759,0,0,2.4,NaN,1.216735029,1.216735029,17,18,27,-0.5,-0.5,0,1,1054,1.638566631,-1.141457355,1.698252159,0
1054,103,1,65,NaN,NaN,0,1,0.6,1,693,1,1,693,1,0,1.8,NaN,0.615444671,0.615444671,17,18,27,0.5,-1.5,1,1,1054,1.638566631,-1.141457355,1.698252159,0
1054,103,1,66,NaN,NaN,0,4,0.6,4,602,1,1,602,1,0,1.8,NaN,-0.213607186,-0.213607186,17,18,27,0.5,0.5,1,1,1054,1.638566631,-1.141457355,1.698252159,0
1054,103,1,67,NaN,NaN,0,1,0.6,2,695,0,1,NaN,0,0,1.8,0.8,0.633665591,NaN,17,18,27,1.5,1.5,0,1,1054,1.638566631,-1.141457355,1.698252159,0
1054,103,1,68,NaN,NaN,1,2,0.4,2,623,1,1,623,1,0,1,NaN,-0.022287527,-0.022287527,17,18,27,-1.5,-1.5,1,1,1054,1.638566631,-1.141457355,1.698252159,1
1054,103,1,69,NaN,NaN,1,1,0.4,1,574,1,1,574,1,0,1,NaN,-0.468700065,-0.468700065,17,18,27,1.5,0.5,1,1,1054,1.638566631,-1.141457355,1.698252159,1
1054,103,1,70,NaN,NaN,1,3,0.6,3,509,1,1,509,0,0,1.6,NaN,-1.060879963,-1.060879963,17,18,27,-1.5,1.5,0,1,1054,1.638566631,-1.141457355,1.698252159,1
1054,103,1,71,NaN,NaN,2,4,0.6,4,742,1,1,742,0,0,1.4,NaN,1.061857209,1.061857209,17,18,27,-1.5,-0.5,0,1,1054,1.638566631,-1.141457355,1.698252159,NaN
1054,103,1,72,NaN,NaN,1,3,0.6,3,531,1,1,531,1,0,0.8,NaN,-0.860449843,-0.860449843,17,18,27,-1.5,-1.5,1,1,1054,1.638566631,-1.141457355,1.698252159,1
1054,103,1,73,NaN,NaN,1,1,0.6,1,643,1,1,643,0,0,1,NaN,0.159921673,0.159921673,17,18,27,-0.5,1.5,0,1,1054,1.638566631,-1.141457355,1.698252159,1
1054,103,1,74,NaN,NaN,2,2,0.6,2,544,1,1,544,1,0,0.8,NaN,-0.742013864,-0.742013864,17,18,27,0.5,-0.5,1,1,1054,1.638566631,-1.141457355,1.698252159,NaN
1054,103,1,75,NaN,NaN,1,1,0.6,1,483,1,1,483,1,0,0.6,NaN,-1.297751922,-1.297751922,17,18,27,-0.5,-0.5,1,1,1054,1.638566631,-1.141457355,1.698252159,1
1054,103,2,76,NaN,NaN,1,2,0.6,2,494,1,1,494,1,0,1,NaN,-1.197536862,-1.197536862,17,18,27,1.5,-0.5,1,2,1054,1.638566631,-1.141457355,1.698252159,1
1054,103,2,77,NaN,NaN,2,3,0.8,1,526,0,1,NaN,0,0,1.4,NaN,-0.906002143,NaN,17,18,27,1.5,-0.5,0,2,1054,1.638566631,-1.141457355,1.698252159,NaN
1054,103,2,78,NaN,NaN,1,2,0.6,2,583,1,1,583,1,0,1.2,NaN,-0.386705925,-0.386705925,17,18,27,-0.5,0.5,1,2,1054,1.638566631,-1.141457355,1.698252159,1
1054,103,2,79,NaN,NaN,2,3,0.6,1,529,0,1,NaN,0,0,1.8,NaN,-0.878670763,NaN,17,18,27,-0.5,0.5,0,2,1054,1.638566631,-1.141457355,1.698252159,NaN
1054,103,2,80,NaN,NaN,1,1,0.6,1,454,1,1,454,1,0,1.4,NaN,-1.561955261,-1.561955261,17,18,27,-0.5,-1.5,1,2,1054,1.638566631,-1.141457355,1.698252159,1
1054,103,2,81,NaN,NaN,2,2,0.6,2,507,1,1,507,0,0,1.2,NaN,-1.079100883,-1.079100883,17,18,27,-1.5,-0.5,0,2,1054,1.638566631,-1.141457355,1.698252159,NaN
1054,103,2,82,NaN,NaN,1,3,0.6,3,587,1,1,587,1,0,0.8,NaN,-0.350264085,-0.350264085,17,18,27,-1.5,-1.5,1,2,1054,1.638566631,-1.141457355,1.698252159,1
1054,103,2,83,NaN,NaN,2,1,0.6,1,702,1,1,702,1,0,1,0.8,0.697438811,0.697438811,17,18,27,1.5,-1.5,1,2,1054,1.638566631,-1.141457355,1.698252159,NaN
1054,103,2,84,NaN,NaN,1,3,0.6,4,408,0,1,NaN,0,0,0.6,NaN,-1.981036419,NaN,17,18,27,-1.5,1.5,0,2,1054,1.638566631,-1.141457355,1.698252159,1
1054,103,2,85,NaN,NaN,2,1,0.6,1,893,1,0,893,0,0,0.6,NaN,2.437536664,2.437536664,17,18,27,-1.5,-1.5,0,2,1054,1.638566631,-1.141457355,1.698252159,NaN
1054,103,2,86,NaN,NaN,1,2,0.6,2,499,1,1,499,1,0,0.4,NaN,-1.151984562,-1.151984562,17,18,27,-1.5,0.5,1,2,1054,1.638566631,-1.141457355,1.698252159,1
1054,103,2,87,NaN,NaN,1,4,0.6,1,796,0,0,NaN,1,0,1,NaN,1.553822047,NaN,17,18,27,-1.5,1.5,1,2,1054,1.638566631,-1.141457355,1.698252159,1
1054,103,2,88,NaN,NaN,0,1,0.6,1,758,1,0,758,0,0,1.6,NaN,1.207624569,1.207624569,17,18,27,1.5,0.5,0,2,1054,1.638566631,-1.141457355,1.698252159,0
1054,103,2,89,NaN,NaN,0,3,0.6,3,812,1,0,812,0,0,1.4,0.8,1.699589407,1.699589407,17,18,27,1.5,1.5,0,2,1054,1.638566631,-1.141457355,1.698252159,0
1054,103,2,90,NaN,NaN,1,2,0.4,2,506,1,1,506,1,0,1.4,NaN,-1.088211343,-1.088211343,17,18,27,1.5,-0.5,1,2,1054,1.638566631,-1.141457355,1.698252159,1
1054,103,2,91,NaN,NaN,0,4,0.4,4,664,1,1,664,1,0,1.8,NaN,0.351241332,0.351241332,17,18,27,1.5,-0.5,1,2,1054,1.638566631,-1.141457355,1.698252159,0
1054,103,2,92,NaN,NaN,0,1,0.6,1,633,1,1,633,1,0,1.6,NaN,0.068817073,0.068817073,17,18,27,1.5,0.5,1,2,1054,1.638566631,-1.141457355,1.698252159,0
1054,103,2,93,NaN,NaN,1,2,0.6,2,523,1,1,523,0,0,1.4,NaN,-0.933333523,-0.933333523,17,18,27,-1.5,-0.5,0,2,1054,1.638566631,-1.141457355,1.698252159,1
1054,103,2,94,NaN,NaN,2,4,0.6,3,638,0,1,NaN,1,0,1.4,NaN,0.114369373,NaN,17,18,27,-0.5,-0.5,1,2,1054,1.638566631,-1.141457355,1.698252159,NaN
1054,103,2,95,NaN,NaN,0,3,0.6,4,554,0,1,NaN,0,0,1.8,NaN,-0.650909264,NaN,17,18,27,0.5,1.5,0,2,1054,1.638566631,-1.141457355,1.698252159,0
1054,103,2,96,NaN,NaN,2,4,0.6,1,689,0,1,NaN,0,0,1.4,1,0.579002831,NaN,17,18,27,1.5,-1.5,0,2,1054,1.638566631,-1.141457355,1.698252159,NaN
1054,103,2,97,NaN,NaN,1,2,0.6,2,575,1,1,575,1,0,1,NaN,-0.459589605,-0.459589605,17,18,27,1.5,0.5,1,2,1054,1.638566631,-1.141457355,1.698252159,1
1054,103,2,98,NaN,NaN,1,3,0.8,3,520,1,1,520,1,0,1,NaN,-0.960664903,-0.960664903,17,18,27,1.5,-0.5,1,2,1054,1.638566631,-1.141457355,1.698252159,1
1054,103,2,99,NaN,NaN,0,2,0.8,2,656,1,1,656,1,0,1.4,NaN,0.278357652,0.278357652,17,18,27,-0.5,1.5,1,2,1054,1.638566631,-1.141457355,1.698252159,0
1054,103,2,100,NaN,NaN,1,1,0.8,1,561,1,1,561,1,0,1.8,NaN,-0.587136044,-0.587136044,17,18,27,0.5,-1.5,1,2,1054,1.638566631,-1.141457355,1.698252159,1
1054,103,2,101,NaN,NaN,2,3,0.8,3,484,1,1,484,1,0,2,NaN,-1.288641462,-1.288641462,17,18,27,-0.5,0.5,1,2,1054,1.638566631,-1.141457355,1.698252159,NaN
1054,103,2,102,NaN,NaN,1,2,0.8,2,607,1,1,607,1,0,2.6,0.8,-0.168054886,-0.168054886,17,18,27,1.5,-1.5,1,2,1054,1.638566631,-1.141457355,1.698252159,1
1054,103,2,103,NaN,NaN,0,1,0.8,1,783,1,0,783,0,0,2.2,NaN,1.435386068,1.435386068,17,18,27,-1.5,0.5,0,2,1054,1.638566631,-1.141457355,1.698252159,0
1054,103,2,104,NaN,NaN,2,3,0.8,3,454,1,1,454,1,0,1.8,NaN,-1.561955261,-1.561955261,17,18,27,1.5,-0.5,1,2,1054,1.638566631,-1.141457355,1.698252159,NaN
1054,103,2,105,NaN,NaN,1,1,0.8,4,480,0,1,NaN,0,0,1.4,NaN,-1.325083302,NaN,17,18,27,-1.5,1.5,0,2,1054,1.638566631,-1.141457355,1.698252159,1
1054,103,2,106,NaN,NaN,0,2,0.8,2,819,1,0,819,1,0,1.2,NaN,1.763362627,1.763362627,17,18,27,-0.5,-0.5,1,2,1054,1.638566631,-1.141457355,1.698252159,0
1054,103,2,107,NaN,NaN,0,1,0.8,1,708,1,1,708,1,0,1,0.6,0.75210157,0.75210157,17,18,27,1.5,1.5,1,2,1054,1.638566631,-1.141457355,1.698252159,0
1054,103,2,108,NaN,NaN,1,4,1,4,538,1,1,538,1,0,1.6,NaN,-0.796676624,-0.796676624,17,18,27,0.5,0.5,1,2,1054,1.638566631,-1.141457355,1.698252159,1
1054,103,2,109,NaN,NaN,1,2,1,2,556,1,1,556,1,0,2.2,NaN,-0.632688344,-0.632688344,17,18,27,-0.5,1.5,1,2,1054,1.638566631,-1.141457355,1.698252159,1
1054,103,2,110,NaN,NaN,2,3,1,3,522,1,1,522,1,0,2.6,NaN,-0.942443983,-0.942443983,17,18,27,-1.5,0.5,1,2,1054,1.638566631,-1.141457355,1.698252159,NaN
1054,103,2,111,NaN,NaN,1,2,1,3,547,0,1,NaN,0,0,3.2,0.8,-0.714682484,NaN,17,18,27,1.5,-1.5,0,2,1054,1.638566631,-1.141457355,1.698252159,1
1054,103,2,112,NaN,NaN,0,3,0.8,3,477,1,1,477,1,0,2.8,NaN,-1.352414682,-1.352414682,17,18,27,-0.5,0.5,1,2,1054,1.638566631,-1.141457355,1.698252159,0
1054,103,2,113,NaN,NaN,2,4,0.8,4,630,1,1,630,0,0,2.6,NaN,0.041485693,0.041485693,17,18,27,-0.5,1.5,0,2,1054,1.638566631,-1.141457355,1.698252159,NaN
1054,103,2,114,NaN,NaN,0,1,0.8,1,711,1,1,711,1,0,2,NaN,0.77943295,0.77943295,17,18,27,0.5,0.5,1,2,1054,1.638566631,-1.141457355,1.698252159,0
1054,103,2,115,NaN,NaN,2,3,0.8,3,487,1,1,487,1,0,1.8,NaN,-1.261310082,-1.261310082,17,18,27,0.5,0.5,1,2,1054,1.638566631,-1.141457355,1.698252159,NaN
1054,103,2,116,NaN,NaN,0,1,0.8,1,507,1,1,507,1,0,1.8,NaN,-1.079100883,-1.079100883,17,18,27,0.5,1.5,1,2,1054,1.638566631,-1.141457355,1.698252159,0
1054,103,2,117,NaN,NaN,0,4,0.8,3,752,0,0,NaN,1,0,2.6,NaN,1.152961809,NaN,17,18,27,-0.5,-1.5,1,2,1054,1.638566631,-1.141457355,1.698252159,0
1054,103,2,118,NaN,NaN,1,3,0.8,3,544,1,1,544,1,0,2.2,NaN,-0.742013864,-0.742013864,17,18,27,-0.5,1.5,1,2,1054,1.638566631,-1.141457355,1.698252159,1
1054,103,2,119,NaN,NaN,2,1,0.8,1,539,1,1,539,1,0,3,NaN,-0.787566164,-0.787566164,17,18,27,-1.5,1.5,1,2,1054,1.638566631,-1.141457355,1.698252159,NaN
1054,103,2,120,NaN,NaN,1,3,0.8,3,511,1,1,511,1,0,3.2,NaN,-1.042659043,-1.042659043,17,18,27,-0.5,-0.5,1,2,1054,1.638566631,-1.141457355,1.698252159,1
1054,103,2,121,NaN,NaN,0,2,0.8,2,568,1,1,568,1,0,3,NaN,-0.523362825,-0.523362825,17,18,27,0.5,0.5,1,2,1054,1.638566631,-1.141457355,1.698252159,0
1054,103,2,122,NaN,NaN,1,3,0.8,3,456,1,1,456,1,0,2.8,NaN,-1.543734341,-1.543734341,17,18,27,-0.5,-0.5,1,2,1054,1.638566631,-1.141457355,1.698252159,1
1054,103,2,123,NaN,NaN,0,4,0.8,4,593,1,1,593,1,0,3,NaN,-0.295601326,-0.295601326,17,18,27,-1.5,1.5,1,2,1054,1.638566631,-1.141457355,1.698252159,0
1054,103,2,124,NaN,NaN,0,2,0.8,2,568,1,1,568,1,0,3,0.6,-0.523362825,-0.523362825,17,18,27,1.5,1.5,1,2,1054,1.638566631,-1.141457355,1.698252159,0
1054,103,2,125,NaN,NaN,2,4,0.8,4,601,1,1,601,1,0,3,NaN,-0.222717646,-0.222717646,17,18,27,-0.5,0.5,1,2,1054,1.638566631,-1.141457355,1.698252159,NaN
1054,103,2,126,NaN,NaN,1,2,0.8,2,484,1,1,484,1,0,3.2,NaN,-1.288641462,-1.288641462,17,18,27,-0.5,-1.5,1,2,1054,1.638566631,-1.141457355,1.698252159,1
1054,103,2,127,NaN,NaN,2,1,0.8,1,702,1,1,702,1,0,2.8,NaN,0.697438811,0.697438811,17,18,27,0.5,0.5,1,2,1054,1.638566631,-1.141457355,1.698252159,NaN
1054,103,2,128,NaN,NaN,1,3,0.8,3,776,1,0,776,1,0,3,NaN,1.371612848,1.371612848,17,18,27,-0.5,0.5,1,2,1054,1.638566631,-1.141457355,1.698252159,1
1054,103,2,129,NaN,NaN,0,2,0.8,2,448,1,1,448,1,0,2.8,NaN,-1.616618021,-1.616618021,17,18,27,-1.5,-0.5,1,2,1054,1.638566631,-1.141457355,1.698252159,0
1054,103,2,130,NaN,NaN,2,1,0.8,1,593,1,1,593,1,0,2.4,NaN,-0.295601326,-0.295601326,17,18,27,0.5,-1.5,1,2,1054,1.638566631,-1.141457355,1.698252159,NaN
1054,103,2,131,NaN,NaN,0,2,0.8,2,462,1,1,462,1,0,2,NaN,-1.489071581,-1.489071581,17,18,27,-0.5,0.5,1,2,1054,1.638566631,-1.141457355,1.698252159,0
1054,103,2,132,NaN,NaN,0,3,0.8,4,771,0,0,NaN,1,0,2.4,NaN,1.326060548,NaN,17,18,27,-0.5,1.5,1,2,1054,1.638566631,-1.141457355,1.698252159,0
