subid,vers,block,trial,rewlvl,efflvl,congruency,targetresp,distractorresp,rollingefflvl,resp,rt,acc,fast,accrt,isrewarded,ismiss,runavgrrgen,runavgrrcond,zrt,acczrt,rtthreshold,isdisterror,isranderror,congruence,feedback,fcz_resp_theta,fcz_resp_theta_baseline
1,104,1,2,0.5,0.5,-0.5,3,3,0.2,3,505,1,1,505,1,0,0,NaN,-1.03336775949902,-1.03336775949902,750,1,0,congruent,1,2496.30059976072,1450.59587407483
1,104,1,3,-0.5,-0.5,0.5,4,1,0.4,1,831,0,0,NaN,0,0,0.4,0,1.31533321743365,NaN,750,1,0,incongruent,0,1980.2194878425,2261.89720523945
1,104,1,4,0.5,0.5,0,2,NaN,0.4,2,718,1,1,718,1,0,0.4,NaN,0.501212940153311,0.501212940153311,750,0,0,neutral,1,2045.88685358744,1089.30664667987
1,104,1,5,-0.5,-0.5,-0.5,1,1,0.6,1,762,1,0,762,1,0,0.8,0,0.818215525996984,0.818215525996984,750,1,0,congruent,0.1,760.721194742425,2692.75310336047
1,104,1,6,-0.5,-0.5,0.5,2,4,0.6,4,909,0,0,NaN,1,0,1,0.2,1.8772923468838,NaN,750,1,0,incongruent,0.1,3650.36465354472,1943.9804036848
1,104,1,7,-0.5,-0.5,0.5,4,2,0.6,2,739,0,1,NaN,0,0,1.2,0.4,0.652509628851427,NaN,750,1,0,incongruent,0,1491.35496901528,3926.37268243053
1,104,1,9,0.5,0.5,-0.5,1,1,0.6,1,859,1,0,859,0,0,1,NaN,1.51706213569781,1.51706213569781,750,1,0,congruent,0,2270.37046234933,1790.72158004772
1,104,1,10,-0.5,-0.5,0.5,2,3,0.6,4,786,0,0,NaN,1,0,0.6,0.6,0.99112602736626,NaN,750,0,1,incongruent,0.1,2681.46263761632,3227.04373815482
1,104,1,11,0.5,0.5,0.5,4,2,0.6,2,812,0,0,NaN,0,0,0.6,NaN,1.17844573718298,NaN,750,1,0,incongruent,0,939.85064961863,991.302783094102
1,104,1,12,-0.5,0.5,0.5,3,1,0.4,4,964,0,0,NaN,0,0,0.4,0,2.27354557918839,NaN,750,0,1,incongruent,0,5044.21441672884,2800.34776238793
1,104,1,13,0.5,0.5,-0.5,2,2,0.4,2,864,1,0,864,0,0,0.4,NaN,1.55308515681641,1.55308515681641,750,1,0,congruent,0,697.854516326312,3736.78741483917
1,104,1,14,-0.5,0.5,0,1,NaN,0.2,1,790,1,0,790,0,0,0.2,0,1.01994444426114,1.01994444426114,750,0,0,neutral,0,2260.31073879781,3972.26480684509
1,104,1,15,0.5,-0.5,-0.5,3,3,0,2,701,0,1,NaN,0,0,0.2,NaN,0.378734668350073,NaN,750,0,1,congruent,0,3025.82026698668,4986.45164658337
1,104,1,17,0.5,0.5,-0.5,4,4,0,4,965,1,0,965,0,0,0,NaN,2.28075018341211,2.28075018341211,750,1,0,congruent,0,2276.62709393303,1576.82810599869
1,104,1,18,0.5,-0.5,-0.5,1,1,0,1,802,1,0,802,0,0,0,NaN,1.10639969494578,1.10639969494578,750,1,0,congruent,0,830.105861230035,1705.26535777162
1,104,1,20,0.5,-0.5,0.5,3,4,0,4,877,0,0,NaN,0,0,0,NaN,1.64674501172477,NaN,750,1,0,incongruent,0,3343.7783153141,6043.3272974588
1,104,1,21,-0.5,-0.5,0,2,NaN,0,2,917,1,0,917,0,0,0,0.4,1.93492918067356,1.93492918067356,750,0,0,neutral,0,1269.13252666314,752.04771759637
1,104,1,23,-0.5,-0.5,0,4,NaN,0,4,929,1,0,929,0,0,0,0.4,2.0213844313582,2.0213844313582,750,0,0,neutral,0,10044.2412944102,5089.84352727094
1,104,1,24,0.5,0.5,-0.5,1,1,0,1,870,1,0,870,0,0,0,NaN,1.59631278215873,1.59631278215873,750,1,0,congruent,0,6341.22395900004,10178.0557168317
1,104,1,25,-0.5,-0.5,0,3,NaN,0,3,650,1,1,650,0,0,0,0.2,0.0112998529403608,0.0112998529403608,750,0,0,neutral,0,2534.02277771763,1078.10261394815
1,104,1,26,0.5,0.5,0.5,4,1,0,1,926,0,0,NaN,0,0,0,NaN,1.99977061868704,NaN,750,1,0,incongruent,0,416.494558564588,3433.82910848757
1,104,1,27,0.5,-0.5,0.5,3,2,0,3,767,1,0,767,0,0,0,NaN,0.854238547115583,0.854238547115583,750,0,0,incongruent,0,2069.48708308473,1236.58697642034
1,104,1,28,-0.5,0.5,-0.5,1,1,0,1,780,1,0,780,0,0,0,0,0.947898402023941,0.947898402023941,750,1,0,congruent,0,4005.64219157068,2340.14318464328
1,104,1,29,-0.5,-0.5,0.5,4,3,0,3,830,0,0,NaN,0,0,0,0,1.30812861320993,NaN,750,1,0,incongruent,0,773.408560944613,3211.70044003419
1,104,1,30,-0.5,0.5,0.5,1,2,0,1,939,1,0,939,0,0,0,0,2.0934304735954,2.0934304735954,750,0,0,incongruent,0,1106.03484346096,1193.3960088494
1,104,1,31,-0.5,0.5,0,3,NaN,0,2,838,0,0,NaN,0,0,0,0,1.36576544699969,NaN,750,0,1,neutral,0,3686.18845662446,2090.12191278017
1,104,1,32,0.5,-0.5,-0.5,4,4,0,4,801,1,0,801,0,0,0,NaN,1.09919509072206,1.09919509072206,750,1,0,congruent,0,1590.70720828386,2416.68953868532
1,104,1,34,0.5,0.5,0,4,NaN,0,4,781,1,0,781,0,0,0,NaN,0.955103006247661,0.955103006247661,750,0,0,neutral,0,3766.56390151399,841.92687293895
1,104,1,36,-0.5,-0.5,0.5,4,3,0,3,785,0,0,NaN,0,0,0,0,0.98392142314254,NaN,750,1,0,incongruent,0,1086.24009323338,2085.59708080971
1,104,1,37,0.5,-0.5,-0.5,1,1,0,1,956,1,0,956,0,0,0,NaN,2.21590874539863,2.21590874539863,750,1,0,congruent,0,3262.15738748869,1520.07940486846
1,104,1,38,0.5,0.5,0,2,NaN,0,2,831,1,0,831,0,0,0,NaN,1.31533321743365,1.31533321743365,750,0,0,neutral,0,2206.64838202111,5423.56142417698
1,104,1,39,0.5,0.5,0.5,1,4,0,4,740,0,1,NaN,0,0,0,NaN,0.659714233075147,NaN,750,1,0,incongruent,0,2390.60349358643,903.623222436618
1,104,1,40,-0.5,-0.5,0.5,2,1,0,1,787,0,0,NaN,0,0,0,0,0.99833063158998,NaN,750,1,0,incongruent,0,3031.95420422664,2507.82425729774
1,104,1,41,0.5,0.5,-0.5,4,4,0,3,596,0,1,NaN,0,0,0,NaN,-0.377748775140511,NaN,750,0,1,congruent,0,1724.07436874762,3994.95908520721
1,104,1,42,-0.5,0.5,-0.5,3,3,0,3,867,1,0,867,0,0,0,0,1.57469896948757,1.57469896948757,750,1,0,congruent,0,1410.87806223127,6088.40914335903
1,104,1,43,-0.5,0.5,0.5,1,2,0,4,581,0,1,NaN,0,0,0,0,-0.485817838496309,NaN,750,0,1,incongruent,0,1338.74795614714,2106.92326153584
1,104,1,44,-0.5,0.5,0,3,NaN,0,2,665,0,1,NaN,0,0,0,0,0.119368916296159,NaN,750,0,1,neutral,0,1638.69801677338,687.658518507323
1,104,1,45,0.5,0.5,-0.5,4,4,0,4,771,1,0,771,0,0,0,NaN,0.883056964010463,0.883056964010463,750,1,0,congruent,0,1471.40214177064,2743.69692382286
1,104,1,46,-0.5,-0.5,-0.5,2,2,0,2,851,1,0,851,0,0,0,0,1.45942530190805,1.45942530190805,750,1,0,congruent,0,1901.57634351347,3016.93188122378
1,104,1,47,-0.5,-0.5,-0.5,3,3,0,4,945,0,0,NaN,0,0,0,0,2.13665809893772,NaN,750,0,1,congruent,0,2474.06453286101,2182.31740874052
1,104,1,51,0.5,0.5,0,4,NaN,0,4,768,1,0,768,0,0,0,NaN,0.861443151339303,0.861443151339303,750,0,0,neutral,0,2018.23878124979,2764.93833821928
1,104,1,52,0.5,-0.5,-0.5,3,3,0,3,649,1,1,649,0,0,0,NaN,0.00409524871664096,0.00409524871664096,750,1,0,congruent,0,2534.81575542968,1767.89555215921
1,104,1,53,0.5,-0.5,0,4,NaN,0,4,602,1,1,602,0,0,0,NaN,-0.334521149798192,-0.334521149798192,750,0,0,neutral,0,2890.08415667634,2413.0565205547
1,104,1,54,0.5,0.5,-0.5,1,1,0,1,705,1,1,705,1,0,0,NaN,0.407553085244953,0.407553085244953,750,1,0,congruent,1,1778.63197994772,3814.86296398768
1,104,1,55,0.5,0.5,0,2,NaN,0.2,2,831,1,0,831,0,0,0.4,NaN,1.31533321743365,1.31533321743365,750,0,0,neutral,0,1501.78270231209,3259.40083072765
1,104,1,56,-0.5,0.5,0.5,4,2,0.2,2,950,0,0,NaN,0,0,0.4,0,2.17268112005632,NaN,750,1,0,incongruent,0,2139.56954132839,632.360853441793
1,104,1,57,-0.5,-0.5,0.5,3,1,0.2,4,658,0,1,NaN,0,0,0.4,0,0.0689366867301196,NaN,750,0,1,incongruent,0,2021.61796816549,2443.58378325636
1,104,1,58,0.5,-0.5,0.5,4,2,0.2,2,896,0,0,NaN,0,0,0.4,NaN,1.78363249197544,NaN,750,1,0,incongruent,0,3042.53176195568,3454.24609033507
1,104,1,59,-0.5,0.5,0,1,NaN,0.2,2,743,0,1,NaN,0,0,0.4,0,0.681328045746307,NaN,750,0,1,neutral,0,4424.06418534227,3413.36415183554
1,104,1,60,-0.5,0.5,-0.5,4,4,0.2,3,760,0,0,NaN,0,0,0,0,0.803806317549544,NaN,750,0,1,congruent,0,1889.10296600497,3558.97328582784
1,104,1,61,0.5,-0.5,-0.5,2,2,0.2,2,747,1,1,747,0,0,0,NaN,0.710146462641186,0.710146462641186,750,1,0,congruent,0,1596.911117321,6856.1656353024
1,104,1,62,0.5,-0.5,0.5,1,3,0.2,1,721,1,1,721,0,0,0,NaN,0.52282675282447,0.52282675282447,750,0,0,incongruent,0,3502.38898633592,747.467121647037
1,104,1,63,-0.5,-0.5,0,2,NaN,0.2,2,747,1,1,747,0,0,0,0,0.710146462641186,0.710146462641186,750,0,0,neutral,0,853.48221688002,2951.02473165271
1,104,1,64,0.5,-0.5,-0.5,1,1,0.2,1,736,1,1,736,0,0,0,NaN,0.630895816180268,0.630895816180268,750,1,0,congruent,0,2069.00810592269,2452.52446399249
1,104,1,65,-0.5,-0.5,0,2,NaN,0.2,2,694,1,1,694,0,0,0,0,0.328302438784034,0.328302438784034,750,0,0,neutral,0,849.334233926257,3483.88397570481
1,104,1,66,-0.5,-0.5,0.5,3,2,0.2,2,872,0,0,NaN,1,0,0,0,1.61072199060617,NaN,750,1,0,incongruent,0.1,3877.94202817394,10810.7709421185
1,104,1,67,0.5,-0.5,0,1,NaN,0.2,1,773,1,0,773,0,0,0.2,NaN,0.897466172457902,0.897466172457902,750,0,0,neutral,0,4434.71534954005,5422.85946749373
1,104,1,68,0.5,0.5,-0.5,2,2,0.2,2,781,1,0,781,0,0,0.2,NaN,0.955103006247661,0.955103006247661,750,1,0,congruent,0,1703.7854325867,877.422746677236
1,104,1,69,0.5,0.5,0,4,NaN,0,3,946,0,0,NaN,0,0,0.2,NaN,2.14386270316144,NaN,750,0,1,neutral,0,1657.97677732223,3027.79765578032
1,104,1,70,0.5,-0.5,0.5,2,4,0,3,730,0,1,NaN,0,0,0.2,NaN,0.587668190837949,NaN,750,0,1,incongruent,0,2414.44283470997,5322.27043466928
1,104,1,72,0.5,0.5,0.5,4,3,0,2,636,0,1,NaN,0,0,0,NaN,-0.0895646061917171,NaN,750,0,1,incongruent,0,470.964143758736,1954.03487317883
1,104,1,73,-0.5,-0.5,0,1,NaN,0,2,823,0,0,NaN,0,0,0,0.2,1.25769638364389,NaN,750,0,1,neutral,0,1321.15082234335,5117.27167059182
1,104,1,74,0.5,0.5,-0.5,4,4,0,4,724,1,1,724,1,0,0,NaN,0.54444056549563,0.54444056549563,750,1,0,congruent,1,1311.51163316264,3838.67939165117
1,104,1,75,-0.5,-0.5,0.5,1,2,0.2,2,850,0,0,NaN,0,0,0.4,0.2,1.45222069768433,NaN,750,1,0,incongruent,0,1970.64278808491,752.878633334767
1,104,1,78,0.5,-0.5,-0.5,2,2,0.2,2,564,1,1,564,1,0,0.4,NaN,-0.608296110299546,-0.608296110299546,750,1,0,congruent,1,1944.66293875876,1434.30524933235
1,104,1,79,0.5,0.5,-0.5,3,3,0.2,3,802,1,0,802,0,0,0.8,NaN,1.10639969494578,1.10639969494578,750,1,0,congruent,0,2225.358000407,1923.80692071307
1,104,1,80,0.5,0.5,0,1,NaN,0.2,2,686,0,1,NaN,0,0,0.4,NaN,0.270665604994275,NaN,750,0,1,neutral,0,4318.5796059425,3764.7445376873
1,104,1,81,-0.5,0.5,-0.5,3,3,0.2,3,723,1,1,723,1,0,0.4,0,0.53723596127191,0.53723596127191,750,1,0,congruent,0.1,616.952190446581,1222.25844760599
1,104,1,82,-0.5,0.5,-0.5,1,1,0.2,1,714,1,1,714,1,0,0.6,0.2,0.472394523258431,0.472394523258431,750,1,0,congruent,0.1,775.863100280402,4262.47325411747
1,104,1,83,0.5,-0.5,-0.5,2,2,0.4,2,736,1,1,736,1,0,0.8,NaN,0.630895816180268,0.630895816180268,750,1,0,congruent,1,1589.97332672087,2139.55268877363
1,104,1,84,-0.5,-0.5,-0.5,1,1,0.4,1,739,1,1,739,1,0,0.8,0.2,0.652509628851427,0.652509628851427,750,1,0,congruent,0.1,1858.39313579158,1565.37687965527
1,104,1,85,-0.5,0.5,0.5,4,2,0.4,4,923,1,0,923,0,0,1,0.4,1.97815680601588,1.97815680601588,750,0,0,incongruent,0,1875.37026607374,4826.7198947472
1,104,1,88,-0.5,-0.5,-0.5,1,1,0.4,1,656,1,1,656,0,0,1,0.4,0.0545274782826799,0.0545274782826799,750,1,0,congruent,0,1772.72722113044,2783.86870386847
1,104,1,90,0.5,0.5,-0.5,1,1,0.4,1,639,1,1,639,1,0,0.4,NaN,-0.0679507935205575,-0.0679507935205575,750,1,0,congruent,1,2444.03748497948,1537.44769222322
1,104,1,91,0.5,-0.5,0.5,4,2,0.4,4,681,1,1,681,1,0,0.8,NaN,0.234642583875676,0.234642583875676,750,0,0,incongruent,1,5630.6774506267,993.440463443797
1,104,1,92,-0.5,-0.5,0.5,3,1,0.4,1,758,0,0,NaN,1,0,0.8,0.4,0.789397109102104,NaN,750,1,0,incongruent,0.1,4412.23859911336,2805.86933121122
1,104,1,93,-0.5,-0.5,0,4,NaN,0.4,4,895,1,0,895,0,0,1,0.4,1.77642788775172,1.77642788775172,750,0,0,neutral,0,3542.61942957132,2204.75532778873
1,104,1,94,0.5,-0.5,-0.5,3,3,0.4,4,862,0,0,NaN,0,0,1,NaN,1.53867594836897,NaN,750,0,1,congruent,0,5139.1426423565,1488.63008481418
1,104,1,96,-0.5,0.5,-0.5,1,1,0.2,1,575,1,1,575,1,0,0.6,0.2,-0.529045463838628,-0.529045463838628,750,1,0,congruent,0.1,1361.21775968897,3252.66683515721
1,104,1,97,0.5,-0.5,0.5,4,2,0.4,4,919,1,0,919,1,0,0.4,NaN,1.949338389121,1.949338389121,750,0,0,incongruent,1,2657.56220049728,363.855395739377
1,104,1,98,0.5,-0.5,0,2,NaN,0.4,2,829,1,0,829,0,0,0.6,NaN,1.30092400898621,1.30092400898621,750,0,0,neutral,0,3387.25200582733,2865.66894650886
1,104,1,99,0.5,0.5,-0.5,4,4,0.4,4,930,1,0,930,0,0,0.6,NaN,2.02858903558192,2.02858903558192,750,1,0,congruent,0,2648.25297807634,1628.3346746984
1,104,1,100,0.5,0.5,-0.5,2,2,0.4,2,739,1,1,739,1,0,0.6,NaN,0.652509628851427,0.652509628851427,750,1,0,congruent,1,1903.4215511172,3455.60714253538
1,104,1,101,-0.5,-0.5,0,3,NaN,0.6,1,717,0,1,NaN,0,0,1,0.4,0.494008335929591,NaN,750,0,1,neutral,0,4250.79465916438,898.518317042926
1,104,1,102,0.5,0.5,-0.5,4,4,0.6,4,573,1,1,573,1,0,0.8,NaN,-0.543454672286068,-0.543454672286068,750,1,0,congruent,1,3285.90428387427,1373.75793867636
1,104,1,103,-0.5,0.5,0.5,3,2,0.6,2,864,0,0,NaN,0,0,0.8,0.2,1.55308515681641,NaN,750,1,0,incongruent,0,1691.93877239451,4371.09110851635
1,104,1,104,-0.5,-0.5,-0.5,4,4,0.6,4,614,1,1,614,0,0,0.8,0.4,-0.248065899113554,-0.248065899113554,750,1,0,congruent,0,2962.84493976061,1489.7733022349
1,104,1,105,-0.5,0.5,0.5,2,1,0.6,1,512,0,1,NaN,0,0,0.8,0.2,-0.982935529932978,NaN,750,1,0,incongruent,0,2133.49604985848,2966.94633722991
1,104,1,106,-0.5,0.5,0,3,NaN,0.4,2,682,0,1,NaN,0,0,0.4,0.2,0.241847188099396,NaN,750,0,1,neutral,0,1824.43901628984,6327.87626219294
1,104,1,107,-0.5,0.5,-0.5,1,1,0.4,1,600,1,1,600,1,0,0.4,0.2,-0.348930358245632,-0.348930358245632,750,1,0,congruent,0.1,476.895583667382,1028.48707063545
1,104,1,108,0.5,0.5,0.5,4,2,0.4,4,838,1,0,838,0,0,0.2,NaN,1.36576544699969,1.36576544699969,750,0,0,incongruent,0,1834.11616608345,3096.69402766816
1,104,1,109,-0.5,-0.5,-0.5,1,1,0.2,1,532,1,1,532,0,0,0.2,0.2,-0.838843445458581,-0.838843445458581,750,1,0,congruent,0,2955.15647894203,2293.50595350706
1,104,1,110,0.5,0.5,-0.5,3,3,0.2,3,563,1,1,563,1,0,0.2,NaN,-0.615500714523266,-0.615500714523266,750,1,0,congruent,1,3131.31936528765,1684.45679631131
1,104,1,111,0.5,0.5,-0.5,2,2,0.4,2,669,1,1,669,1,0,0.6,NaN,0.148187333191038,0.148187333191038,750,1,0,congruent,1,457.830215293478,1939.122331947
1,104,1,112,0.5,-0.5,0.5,1,3,0.6,2,874,0,0,NaN,1,0,1,NaN,1.62513119905361,NaN,750,0,1,incongruent,1,3284.19861896893,2212.23628702836
1,104,1,113,0.5,0.5,0.5,4,2,0.6,4,913,1,0,913,0,0,1.2,NaN,1.90611076377868,1.90611076377868,750,0,0,incongruent,0,2737.13844491369,1269.58871238707
1,104,1,114,0.5,0.5,-0.5,1,1,0.6,1,646,1,1,646,1,0,1.2,NaN,-0.0175185639545186,-0.0175185639545186,750,1,0,congruent,1,1837.7442624441,1185.19378860446
1,104,1,118,-0.5,0.5,-0.5,1,1,0.6,1,563,1,1,563,1,0,1.2,0.4,-0.615500714523266,-0.615500714523266,750,1,0,congruent,0.1,456.654902795667,2912.74659451582
1,104,1,119,-0.5,-0.5,0,4,NaN,0.6,4,739,1,1,739,0,0,1.4,0.2,0.652509628851427,0.652509628851427,750,0,0,neutral,0,3300.32574100379,1100.02742387104
1,104,1,120,0.5,-0.5,-0.5,1,1,0.6,1,578,1,1,578,0,0,1,NaN,-0.507431651167468,-0.507431651167468,750,1,0,congruent,0,1606.3866868858,2238.48314169181
1,104,1,121,-0.5,0.5,0.5,3,2,0.6,3,962,1,0,962,0,0,1,0.4,2.25913637074095,2.25913637074095,750,0,0,incongruent,0,1879.14789190362,1641.32735405197
1,104,1,122,-0.5,-0.5,0,1,NaN,0.4,1,675,1,1,675,0,0,0.6,0,0.191414958533357,0.191414958533357,750,0,0,neutral,0,2123.29476342886,1850.3850210113
1,104,1,123,0.5,0.5,-0.5,3,3,0.4,3,579,1,1,579,1,0,0.2,NaN,-0.500227046943749,-0.500227046943749,750,1,0,congruent,1,1834.76830572415,1006.3576806448
1,104,1,124,-0.5,0.5,-0.5,4,4,0.6,4,717,1,1,717,1,0,0.4,0.4,0.494008335929591,0.494008335929591,750,1,0,congruent,0.1,1411.17311472919,729.257414021781
1,104,1,125,-0.5,-0.5,0.5,3,2,0.6,2,739,0,1,NaN,0,0,0.6,0,0.652509628851427,NaN,750,1,0,incongruent,0,1235.84007237546,1874.27912321085
1,104,1,126,-0.5,0.5,0.5,1,4,0.6,4,725,0,1,NaN,0,0,0.6,0.6,0.55164516971935,NaN,750,1,0,incongruent,0,9794.91573084258,933.052422468077
1,104,1,127,0.5,0.5,-0.5,2,2,0.6,3,795,0,0,NaN,0,0,0.6,NaN,1.05596746537974,NaN,750,0,1,congruent,0,6985.63600816201,691.629242781962
1,104,1,128,0.5,-0.5,0,1,NaN,0.4,1,634,1,1,634,1,0,0.6,NaN,-0.103973814639157,-0.103973814639157,750,0,0,neutral,1,1907.20496586347,1698.98064841161
1,104,1,129,-0.5,-0.5,0.5,2,4,0.4,4,725,0,1,NaN,1,0,0.6,0,0.55164516971935,NaN,750,1,0,incongruent,0.1,4776.66491351936,3267.14150219426
1,104,1,130,0.5,-0.5,0,4,NaN,0.4,4,618,1,1,618,1,0,0.6,NaN,-0.219247482218674,-0.219247482218674,750,0,0,neutral,1,1431.73010735349,2311.62795568118
1,104,1,131,0.5,0.5,-0.5,3,3,0.4,3,666,1,1,666,1,0,1,NaN,0.126573520519878,0.126573520519878,750,1,0,congruent,1,891.252143028925,1377.1268987824
1,104,1,132,-0.5,0.5,0.5,4,1,0.6,1,773,0,0,NaN,0,0,1.4,0.6,0.897466172457902,NaN,750,1,0,incongruent,0,1679.28756217576,2032.64075774754
1,104,1,133,-0.5,-0.5,0.5,3,4,0.4,4,698,0,1,NaN,0,0,1.4,0.2,0.357120855678914,NaN,750,1,0,incongruent,0,712.038241709531,2856.90236735504
1,104,1,134,0.5,0.5,-0.5,1,1,0.4,1,713,1,1,713,1,0,1,NaN,0.465189919034711,0.465189919034711,750,1,0,congruent,1,863.402273448736,553.539803065507
1,104,1,135,0.5,-0.5,-0.5,3,3,0.4,3,891,1,0,891,0,0,1.2,NaN,1.74760947085684,1.74760947085684,750,1,0,congruent,0,3163.4012366922,1622.21181838271
1,104,1,136,-0.5,-0.5,-0.5,1,1,0.4,1,453,1,1,453,1,0,0.8,0.2,-1.40800717913245,-1.40800717913245,750,1,0,congruent,0.1,6644.82927062048,1863.91463258523
1,104,1,137,-0.5,-0.5,0,2,NaN,0.4,2,678,1,1,678,0,0,0.6,0.4,0.213028771204517,0.213028771204517,750,0,0,neutral,0,414.992601799114,3994.52113188247
1,104,1,138,0.5,-0.5,0.5,1,4,0.4,4,650,0,1,NaN,1,0,0.6,NaN,0.0112998529403608,NaN,750,1,0,incongruent,1,1912.9826867253,709.831955638444
1,104,1,139,-0.5,0.5,0.5,4,3,0.4,3,641,0,1,NaN,0,0,1,0.4,-0.0535415850731178,NaN,750,1,0,incongruent,0,1703.12371606687,1836.99104845187
1,104,1,140,-0.5,0.5,-0.5,2,2,0.4,2,606,1,1,606,1,0,0.6,0.2,-0.305702732903313,-0.305702732903313,750,1,0,congruent,0.1,2756.69804312602,4569.14190624302
1,104,1,141,-0.5,-0.5,-0.5,1,1,0.6,1,586,1,1,586,0,0,0.8,0.4,-0.44979481737771,-0.44979481737771,750,1,0,congruent,0,4290.42232177827,2943.59328036023
1,104,1,142,-0.5,-0.5,0.5,4,3,0.6,3,802,0,0,NaN,0,0,0.6,0.4,1.10639969494578,NaN,750,1,0,incongruent,0,849.006818258922,1986.96144289733
1,104,1,143,-0.5,-0.5,0.5,3,2,0.6,2,672,0,1,NaN,1,0,0.6,0.2,0.169801145862197,NaN,750,1,0,incongruent,0.1,2045.11325029871,1285.45304782807
1,104,1,144,-0.5,-0.5,-0.5,1,1,0.6,1,510,1,1,510,1,0,0.4,0.4,-0.997344738380418,-0.997344738380418,750,1,0,congruent,0.1,1239.99159373459,795.406359144033
1,104,1,145,0.5,-0.5,0,4,NaN,0.6,3,727,0,1,NaN,0,0,0.6,NaN,0.566054378166789,NaN,750,0,1,neutral,0,2789.05840915794,2255.02549066253
1,104,1,146,-0.5,0.5,0.5,3,2,0.6,2,779,0,0,NaN,0,0,0.4,0.4,0.940693797800221,NaN,750,1,0,incongruent,0,1486.15940638854,394.894167838632
1,104,1,147,0.5,-0.5,0,4,NaN,0.4,3,697,0,1,NaN,0,0,0.4,NaN,0.349916251455194,NaN,750,0,1,neutral,0,913.121446123643,982.570765911822
1,104,1,148,0.5,0.5,0.5,2,4,0.4,3,797,0,0,NaN,0,0,0.4,NaN,1.07037667382718,NaN,750,0,1,incongruent,0,1116.28357810516,1156.81960165424
1,104,1,149,-0.5,-0.5,0,1,NaN,0.4,1,674,1,1,674,1,0,0.2,0.4,0.184210354309637,0.184210354309637,750,0,0,neutral,0.1,1207.39762026018,6729.14055875827
1,104,1,150,0.5,0.5,-0.5,3,3,0.4,3,805,1,0,805,0,0,0.2,NaN,1.12801350761694,1.12801350761694,750,1,0,congruent,0,1179.2529918338,1397.98194013894
1,104,2,152,-0.5,0.5,0,4,NaN,0.2,3,650,0,1,NaN,0,0,0.6,0.2,0.0112998529403608,NaN,750,0,1,neutral,0,1276.7728730629,4389.08510668194
1,104,2,153,0.5,-0.5,-0.5,2,2,0.2,2,665,1,1,665,0,0,0.6,NaN,0.119368916296159,0.119368916296159,750,1,0,congruent,0,988.698931187767,752.284212761527
1,104,2,154,0.5,-0.5,0,4,NaN,0.2,3,552,0,1,NaN,1,0,0.6,NaN,-0.694751360984184,NaN,750,0,1,neutral,1,1811.06392853531,2420.81317362627
1,104,2,156,0.5,0.5,-0.5,1,1,0.2,1,589,1,1,589,1,0,0.8,NaN,-0.42818100470655,-0.42818100470655,750,1,0,congruent,1,2297.54878289055,902.975496440957
1,104,2,157,0.5,0.5,0.5,4,3,0.2,4,744,1,1,744,1,0,0.8,NaN,0.688532649970027,0.688532649970027,750,0,0,incongruent,1,12070.9272310545,1649.30250366647
1,104,2,158,-0.5,-0.5,-0.5,1,1,0.4,1,519,1,1,519,1,0,1.2,0.6,-0.932503300366939,-0.932503300366939,750,1,0,congruent,0.1,2025.25199109602,1280.7733016048
1,104,2,160,-0.5,-0.5,0,1,NaN,0.4,1,757,1,0,757,0,0,1,0.8,0.782192504878385,0.782192504878385,750,0,0,neutral,0,2708.56637379418,1296.05720767721
1,104,2,161,-0.5,0.5,-0.5,4,4,0.4,4,583,1,1,583,1,0,1,0.2,-0.471408630048869,-0.471408630048869,750,1,0,congruent,0.1,3631.42097713716,1277.20501567721
1,104,2,162,-0.5,0.5,0.5,1,2,0.6,2,964,0,0,NaN,0,0,0.8,0.4,2.27354557918839,NaN,750,1,0,incongruent,0,4630.16341412685,5631.00411145141
1,104,2,163,0.5,-0.5,-0.5,3,3,0.6,3,517,1,1,517,1,0,0.4,NaN,-0.946912508814379,-0.946912508814379,750,1,0,congruent,1,1931.97109233803,1094.02976214098
1,104,2,164,-0.5,0.5,-0.5,4,4,0.6,4,629,1,1,629,1,0,0.6,0.4,-0.139996835757756,-0.139996835757756,750,1,0,congruent,0.1,2150.89206655448,479.8879361958
1,104,2,165,0.5,-0.5,0.5,1,2,0.8,1,899,1,0,899,1,0,0.8,NaN,1.8052463046466,1.8052463046466,750,0,0,incongruent,1,2284.32503912974,3879.30242523449
1,104,2,166,-0.5,-0.5,0,4,NaN,0.8,3,553,0,1,NaN,1,0,1.2,0.8,-0.687546756760465,NaN,750,0,1,neutral,0.1,534.831833902559,1669.28128083382
1,104,2,167,0.5,0.5,-0.5,2,2,0.8,2,822,1,0,822,0,0,1.2,NaN,1.25049177942017,1.25049177942017,750,1,0,congruent,0,673.620780763948,9282.78202158679
1,104,2,168,0.5,-0.5,-0.5,3,3,0.6,3,512,1,1,512,1,0,1.2,NaN,-0.982935529932978,-0.982935529932978,750,1,0,congruent,1,2026.69627864329,2575.42485335567
1,104,2,169,0.5,-0.5,0.5,2,4,0.6,4,655,0,1,NaN,1,0,1.2,NaN,0.0473228740589601,NaN,750,1,0,incongruent,1,1340.03084670061,4232.86904425855
1,104,2,170,-0.5,0.5,0.5,4,2,0.6,3,624,0,1,NaN,0,0,1.4,0.4,-0.176019856876355,NaN,750,0,1,incongruent,0,5705.69370171065,2351.17079541127
1,104,2,171,0.5,-0.5,0.5,2,4,0.4,3,690,0,1,NaN,0,0,1,NaN,0.299484021889155,NaN,750,0,1,incongruent,0,805.806234635074,1467.29250370201
1,104,2,172,-0.5,0.5,0,4,NaN,0.4,3,866,0,0,NaN,0,0,0.8,0.4,1.56749436526385,NaN,750,0,1,neutral,0,3141.10392614693,1081.30245696232
1,104,2,173,-0.5,0.5,-0.5,3,3,0.2,3,570,1,1,570,1,0,0.8,0.4,-0.565068484957227,-0.565068484957227,750,1,0,congruent,0.1,4870.13487675755,706.825616143511
1,104,2,174,-0.5,-0.5,-0.5,1,1,0.4,2,774,0,0,NaN,1,0,0.6,0.8,0.904670776681622,NaN,750,0,1,congruent,0.1,10518.8750075747,1774.9834827429
1,104,2,175,0.5,0.5,-0.5,2,2,0.4,2,708,1,1,708,1,0,0.4,NaN,0.429166897916112,0.429166897916112,750,1,0,congruent,1,1023.19975044047,6474.51721015006
1,104,2,176,-0.5,0.5,0.5,4,3,0.4,3,578,0,1,NaN,0,0,0.8,0.4,-0.507431651167468,NaN,750,1,0,incongruent,0,2111.02302956381,2420.02465487939
1,104,2,177,-0.5,0.5,0.5,3,1,0.4,1,871,0,0,NaN,0,0,0.8,0.4,1.60351738638245,NaN,750,1,0,incongruent,0,2449.87042955432,2450.64748669919
1,104,2,178,0.5,0.5,0.5,1,4,0.4,1,614,1,1,614,1,0,0.8,NaN,-0.248065899113554,-0.248065899113554,750,0,0,incongruent,1,898.7372148108,2326.00758024825
1,104,2,179,-0.5,0.5,-0.5,3,3,0.6,3,533,1,1,533,1,0,1,0.2,-0.831638841234862,-0.831638841234862,750,1,0,congruent,0.1,4607.0601877782,2472.6626445638
1,104,2,180,-0.5,0.5,-0.5,2,2,0.6,2,536,1,1,536,1,0,1,0.4,-0.810025028563702,-0.810025028563702,750,1,0,congruent,0.1,1987.19533690932,434.157927106878
1,104,2,181,0.5,-0.5,-0.5,1,1,0.6,1,605,1,1,605,0,0,0.8,NaN,-0.312907337127032,-0.312907337127032,750,1,0,congruent,0,671.21277261279,1746.18235894574
1,104,2,182,-0.5,0.5,0,4,NaN,0.6,3,700,0,1,NaN,0,0,0.8,0.6,0.371530064126353,NaN,750,0,1,neutral,0,3972.09062766024,3261.02094228624
1,104,2,183,0.5,-0.5,0.5,1,4,0.6,3,783,0,0,NaN,1,0,0.8,NaN,0.969512214695101,NaN,750,0,1,incongruent,1,6902.23708022992,1712.94650097025
1,104,2,184,0.5,-0.5,-0.5,3,3,0.6,3,647,1,1,647,0,0,0.8,NaN,-0.0103139597307987,-0.0103139597307987,750,1,0,congruent,0,4743.16222244651,1565.53261409801
1,104,2,185,0.5,0.5,0.5,2,1,0.6,2,814,1,0,814,0,0,0.6,NaN,1.19285494563042,1.19285494563042,750,0,0,incongruent,0,1584.80676847878,1901.7718244014
1,104,2,186,-0.5,-0.5,0.5,4,2,0.6,3,969,0,0,NaN,1,0,0.4,0.8,2.30956860030699,NaN,750,0,1,incongruent,0.1,1839.38247452109,2910.81156066668
1,104,2,187,0.5,0.5,0,3,NaN,0.6,3,575,1,1,575,1,0,0.6,NaN,-0.529045463838628,-0.529045463838628,750,0,0,neutral,1,841.47396178229,1293.47522449986
1,104,2,188,0.5,-0.5,-0.5,1,1,0.6,1,794,1,0,794,1,0,1,NaN,1.04876286115602,1.04876286115602,750,1,0,congruent,1,4244.20190352391,2564.72648317054
1,104,2,189,0.5,-0.5,0.5,4,2,0.6,3,626,0,1,NaN,1,0,1,NaN,-0.161610648428916,NaN,750,0,1,incongruent,1,1032.45173283608,1619.05750205263
1,104,2,190,0.5,-0.5,0,3,NaN,0.6,3,790,1,0,790,1,0,1.4,NaN,1.01994444426114,1.01994444426114,750,0,0,neutral,1,3607.50914557155,1633.35765001447
1,104,2,191,0.5,-0.5,-0.5,4,4,0.6,3,557,0,1,NaN,1,0,1.8,NaN,-0.658728339865585,NaN,750,0,1,congruent,1,1300.1443522903,1257.83245319318
1,104,2,192,-0.5,-0.5,0,2,NaN,0.6,1,600,0,1,NaN,0,0,2,0.8,-0.348930358245632,NaN,750,0,1,neutral,0,753.898066636443,2426.92566513833
1,104,2,193,-0.5,0.5,-0.5,3,3,0.6,4,758,0,0,NaN,0,0,1.6,0.4,0.789397109102104,NaN,750,0,1,congruent,0,889.550304209948,1702.35322794618
1,104,2,196,0.5,-0.5,0,3,NaN,0.4,4,763,0,0,NaN,1,0,0.6,NaN,0.825420130220704,NaN,750,0,1,neutral,1,4182.12116979633,1649.54400217097
1,104,2,198,-0.5,-0.5,-0.5,4,4,0.4,4,801,1,0,801,0,0,1,0.6,1.09919509072206,1.09919509072206,750,1,0,congruent,0,3365.18049519174,1947.44846475592
1,104,2,199,-0.5,0.5,0,2,NaN,0.4,2,559,1,1,559,1,0,1,0.6,-0.644319131418145,-0.644319131418145,750,0,0,neutral,0.1,2090.8430991758,1893.45530122861
1,104,2,200,0.5,0.5,-0.5,1,1,0.6,1,671,1,1,671,1,0,1.2,NaN,0.162596541638478,0.162596541638478,750,1,0,congruent,1,865.500144309661,2582.63456767801
1,104,2,201,0.5,0.5,0,4,NaN,0.6,3,577,0,1,NaN,0,0,1.4,NaN,-0.514636255391188,NaN,750,0,1,neutral,0,3049.55493797798,1473.67549035371
1,104,2,205,-0.5,-0.5,0,2,NaN,0.8,2,632,1,1,632,1,0,1.4,0.6,-0.118383023086596,-0.118383023086596,750,0,0,neutral,0.1,2879.80389610047,3058.06147724721
1,104,2,206,0.5,0.5,0.5,1,2,0.8,2,727,0,1,NaN,0,0,1.2,NaN,0.566054378166789,NaN,750,1,0,incongruent,0,2337.3861415063,2237.80433773402
1,104,2,207,-0.5,-0.5,0,4,NaN,0.6,4,421,1,1,421,1,0,1.2,0.6,-1.63855451429148,-1.63855451429148,750,0,0,neutral,0.1,556.296234462958,2851.14711739089
1,104,2,208,0.5,0.5,-0.5,1,1,0.6,1,779,1,0,779,0,0,1,NaN,0.940693797800221,0.940693797800221,750,1,0,congruent,0,1075.18492337645,3084.67558097439
1,104,2,209,-0.5,0.5,0.5,4,2,0.4,3,519,0,1,NaN,0,0,0.8,0.6,-0.932503300366939,NaN,750,0,1,incongruent,0,951.000630641367,1693.40370941145
1,104,2,210,-0.5,0.5,0.5,1,3,0.2,3,739,0,1,NaN,0,0,0.4,0.6,0.652509628851427,NaN,750,1,0,incongruent,0,3221.15825499237,1910.38268452248
1,104,2,211,0.5,-0.5,0.5,2,4,0.2,3,682,0,1,NaN,0,0,0.2,NaN,0.241847188099396,NaN,750,0,1,incongruent,0,5070.15463974762,2713.10440961137
1,104,2,212,-0.5,-0.5,0.5,1,3,0.2,3,578,0,1,NaN,1,0,0.2,0.6,-0.507431651167468,NaN,750,1,0,incongruent,0.1,1902.23455794759,2477.15008679539
1,104,2,213,0.5,-0.5,0.5,3,4,0.2,4,863,0,0,NaN,1,0,0.2,NaN,1.54588055259269,NaN,750,1,0,incongruent,1,1770.34814369383,1001.1935899009
1,104,2,214,-0.5,0.5,0,1,NaN,0.2,1,516,1,1,516,1,0,0.6,0.6,-0.954117113038099,-0.954117113038099,750,0,0,neutral,0.1,1205.83401552131,1496.22638647185
1,104,2,215,-0.5,-0.5,-0.5,3,3,0.2,3,554,1,1,554,0,0,0.8,0.6,-0.680342152536745,-0.680342152536745,750,1,0,congruent,0,1161.65059914546,1477.49885498786
1,104,2,216,-0.5,-0.5,-0.5,4,4,0.2,4,635,1,1,635,0,0,0.8,0.6,-0.0967692104154369,-0.0967692104154369,750,1,0,congruent,0,1952.201024208,6697.11794040061
1,104,2,217,0.5,0.5,-0.5,3,3,0.2,3,527,1,1,527,1,0,0.8,NaN,-0.874866466577181,-0.874866466577181,750,1,0,congruent,1,814.485848711191,3701.34147549459
1,104,2,218,0.5,0.5,-0.5,4,4,0.4,4,563,1,1,563,1,0,1,NaN,-0.615500714523266,-0.615500714523266,750,1,0,congruent,1,930.282828719741,971.489597695262
1,104,2,220,-0.5,0.5,0,4,NaN,0.6,4,531,1,1,531,1,0,0.8,0.6,-0.846048049682301,-0.846048049682301,750,0,0,neutral,0.1,767.272295949753,911.124541148208
1,104,2,221,-0.5,0.5,-0.5,3,3,0.8,3,608,1,1,608,1,0,1,0.6,-0.291293524455873,-0.291293524455873,750,1,0,congruent,0.1,749.702341466758,2371.80702870791
1,104,2,222,-0.5,-0.5,-0.5,2,2,0.8,2,481,1,1,481,1,0,1.2,0.6,-1.20627826086829,-1.20627826086829,750,1,0,congruent,0.1,1768.62334753172,1081.68082008833
1,104,2,223,-0.5,0.5,0,1,NaN,0.8,1,608,1,1,608,1,0,1,0.6,-0.291293524455873,-0.291293524455873,750,0,0,neutral,0.1,1259.93543495388,8019.81751568396
1,104,2,224,-0.5,-0.5,-0.5,3,3,0.8,3,509,1,1,509,1,0,0.8,0.6,-1.00454934260414,-1.00454934260414,750,1,0,congruent,0.1,1755.74608803202,380.004315877304
1,104,2,225,0.5,0.5,0,1,NaN,0.8,1,563,1,1,563,1,0,1,NaN,-0.615500714523266,-0.615500714523266,750,0,0,neutral,1,2027.33229825441,4304.63373160673
1,104,2,227,0.5,-0.5,0.5,3,1,0.8,2,782,0,0,NaN,1,0,1,NaN,0.962307610471381,NaN,750,0,1,incongruent,1,1149.81336658915,3173.78731395725
1,104,2,228,0.5,-0.5,0,4,NaN,0.8,4,421,1,1,421,1,0,1.2,NaN,-1.63855451429148,-1.63855451429148,750,0,0,neutral,1,5731.12798674105,842.447798863508
1,104,2,231,-0.5,-0.5,0.5,4,3,0.8,3,526,0,1,NaN,1,0,1.6,0.6,-0.882071070800901,NaN,750,1,0,incongruent,0.1,4182.84806332012,2230.47111332153
1,104,2,232,-0.5,0.5,0,3,NaN,0.8,3,704,1,1,704,1,0,1.8,0.8,0.400348481021233,0.400348481021233,750,0,0,neutral,0.1,5072.68161794707,1193.61719108137
1,104,2,233,-0.5,-0.5,0.5,2,4,0.8,4,650,0,1,NaN,1,0,1.6,0.6,0.0112998529403608,NaN,750,1,0,incongruent,0.1,1486.33144621167,1453.97065088356
1,104,2,234,0.5,-0.5,0.5,4,1,0.8,1,704,0,1,NaN,1,0,1.4,NaN,0.400348481021233,NaN,750,1,0,incongruent,1,2080.19907823818,2604.53410422725
1,104,2,235,-0.5,0.5,-0.5,2,2,0.8,2,627,1,1,627,1,0,1.4,1,-0.154406044205196,-0.154406044205196,750,1,0,congruent,0.1,487.748192399843,2657.97400868037
1,104,2,236,-0.5,-0.5,0,1,NaN,0.8,1,583,1,1,583,0,0,1.2,0.8,-0.471408630048869,-0.471408630048869,750,0,0,neutral,0,8473.49301519819,1744.00287439624
1,104,2,237,0.5,-0.5,0.5,4,3,0.8,3,585,0,1,NaN,1,0,1,NaN,-0.456999421601429,NaN,750,1,0,incongruent,1,2878.92314237343,2696.37976666535
1,104,2,238,0.5,-0.5,-0.5,1,1,0.8,1,627,1,1,627,0,0,1.2,NaN,-0.154406044205196,-0.154406044205196,750,1,0,congruent,0,1243.57552682586,826.285875563724
1,104,2,239,-0.5,-0.5,0.5,2,3,0.8,3,545,0,1,NaN,1,0,1,0.8,-0.745183590550223,NaN,750,1,0,incongruent,0.1,1429.24663967613,1479.87864998015
1,104,2,240,-0.5,0.5,-0.5,1,1,0.8,1,718,1,1,718,1,0,0.8,1,0.501212940153311,0.501212940153311,750,1,0,congruent,0.1,3222.2674694125,5429.55192080718
1,104,2,241,0.5,-0.5,-0.5,3,3,0.8,3,507,1,1,507,1,0,0.8,NaN,-1.01895855105158,-1.01895855105158,750,1,0,congruent,1,1976.80288673544,1553.21870505078
1,104,2,242,-0.5,0.5,0,4,NaN,0.8,4,574,1,1,574,1,0,1.2,1,-0.536250068062348,-0.536250068062348,750,0,0,neutral,0.1,3473.33066392925,4369.44777980557
1,104,2,244,0.5,0.5,0,2,NaN,1,3,590,0,1,NaN,0,0,1.4,NaN,-0.42097640048283,NaN,750,0,1,neutral,0,991.604986136557,2089.76773138585
1,104,2,249,0.5,-0.5,0.5,3,4,0.4,4,829,0,0,NaN,0,0,0.2,NaN,1.30092400898621,NaN,750,1,0,incongruent,0,2965.63691084472,5789.73258616803
1,104,2,251,0.5,-0.5,-0.5,1,1,0.4,1,616,1,1,616,0,0,0.2,NaN,-0.233656690666114,-0.233656690666114,750,1,0,congruent,0,3416.62179772979,1148.33569032328
1,104,2,252,-0.5,0.5,-0.5,3,3,0.4,3,438,1,1,438,1,0,0.2,0.6,-1.51607624248825,-1.51607624248825,750,1,0,congruent,0.1,2947.36699182951,1059.49817495187
1,104,2,253,0.5,-0.5,-0.5,2,2,0.4,2,454,1,1,454,0,0,0.4,NaN,-1.40080257490873,-1.40080257490873,750,1,0,congruent,0,1080.56548614125,769.380515646077
1,104,2,254,-0.5,0.5,-0.5,1,1,0.4,1,588,1,1,588,1,0,0.2,0.6,-0.43538560893027,-0.43538560893027,750,1,0,congruent,0.1,950.706701568062,2928.95003066387
1,104,2,255,0.5,0.5,0,2,NaN,0.6,3,356,0,1,NaN,0,0,0.4,NaN,-2.10685378883327,NaN,750,0,1,neutral,0,830.083865187079,808.285028507293
1,104,2,256,-0.5,-0.5,0.5,1,4,0.6,4,751,0,0,NaN,0,0,0.4,0.8,0.738964879536066,NaN,750,1,0,incongruent,0,2295.5434264336,2920.11074335157
1,104,2,257,-0.5,-0.5,-0.5,3,3,0.6,3,386,1,1,386,0,0,0.4,0.6,-1.89071566212168,-1.89071566212168,750,1,0,congruent,0,2183.14824349582,2057.23008413446
1,104,2,263,0.5,-0.5,-0.5,4,4,0.6,4,513,1,1,513,1,0,1,NaN,-0.975730925709259,-0.975730925709259,750,1,0,congruent,1,2105.58118556434,2871.67216888223
1,104,2,264,0.5,-0.5,0,1,NaN,0.6,2,533,0,1,NaN,1,0,1.4,NaN,-0.831638841234862,NaN,750,0,1,neutral,1,3152.93629183598,2293.9455745301
1,104,2,266,-0.5,0.5,0.5,4,1,0.4,1,806,0,0,NaN,0,0,1.4,0.6,1.13521811184066,NaN,750,1,0,incongruent,0,936.08021277231,1133.44969804118
1,104,2,267,-0.5,-0.5,-0.5,2,2,0.4,2,751,1,0,751,1,0,1,0.4,0.738964879536066,0.738964879536066,750,1,0,congruent,0.1,2176.9061887152,5270.55892195941
1,104,2,269,0.5,-0.5,-0.5,2,2,0.4,2,656,1,1,656,0,0,1,NaN,0.0545274782826799,0.0545274782826799,750,1,0,congruent,0,3198.30162732746,4516.10531072755
1,104,2,270,-0.5,0.5,-0.5,1,1,0.4,1,557,1,1,557,1,0,0.6,0.4,-0.658728339865585,-0.658728339865585,750,1,0,congruent,0.1,1098.41154330853,1162.07136563282
1,104,2,271,0.5,-0.5,-0.5,2,2,0.6,2,615,1,1,615,0,0,0.8,NaN,-0.240861294889834,-0.240861294889834,750,1,0,congruent,0,1931.66448211976,2996.57625666647
1,104,2,272,0.5,0.5,-0.5,4,4,0.6,4,689,1,1,689,1,0,0.8,NaN,0.292279417665435,0.292279417665435,750,1,0,congruent,1,1849.4776521507,733.129317880949
1,104,2,273,-0.5,-0.5,0.5,2,1,0.6,2,748,1,1,748,1,0,1,0.4,0.717351066864906,0.717351066864906,750,0,0,incongruent,0.1,2074.01041251758,2813.64702176219
1,104,2,275,0.5,0.5,-0.5,1,1,0.6,1,493,1,1,493,1,0,1,NaN,-1.11982301018366,-1.11982301018366,750,1,0,congruent,1,4026.94531434801,676.853515583663
1,104,2,276,-0.5,-0.5,0,2,NaN,0.8,2,590,1,1,590,0,0,1.2,0.6,-0.42097640048283,-0.42097640048283,750,0,0,neutral,0,4085.05141143193,3004.66880780774
1,104,2,277,-0.5,-0.5,-0.5,1,1,0.8,2,572,0,1,NaN,1,0,1.2,0.4,-0.550659276509787,NaN,750,0,1,congruent,0.1,2217.48869864029,925.417349519298
1,104,2,278,0.5,0.5,0.5,4,2,0.8,1,837,0,0,NaN,0,0,1,NaN,1.35856084277597,NaN,750,0,1,incongruent,0,9080.5731558201,2372.31876111392
1,104,2,279,-0.5,0.5,0,2,NaN,0.8,2,570,1,1,570,1,0,0.8,0.6,-0.565068484957227,-0.565068484957227,750,0,0,neutral,0.1,2802.28192846581,1372.0344967945
1,104,2,283,0.5,-0.5,-0.5,4,4,0.6,4,418,1,1,418,1,0,0.6,NaN,-1.66016832696264,-1.66016832696264,750,1,0,congruent,1,960.83855612027,1755.99408252706
1,104,2,284,-0.5,0.5,0.5,3,2,0.6,3,594,1,1,594,1,0,1,0.6,-0.392157983587951,-0.392157983587951,750,0,0,incongruent,0.1,533.099079459741,6768.0526564616
1,104,2,286,-0.5,-0.5,0.5,2,1,0.6,2,603,1,1,603,0,0,1.2,0.6,-0.327316545574472,-0.327316545574472,750,0,0,incongruent,0,742.388204318542,1265.78701703548
1,104,2,288,-0.5,-0.5,-0.5,4,4,0.8,4,554,1,1,554,0,0,1,0.4,-0.680342152536745,-0.680342152536745,750,1,0,congruent,0,1297.86908890247,511.243628849214
1,104,2,289,-0.5,-0.5,0.5,2,3,0.8,3,536,0,1,NaN,1,0,0.6,0.4,-0.810025028563702,NaN,750,1,0,incongruent,0.1,1884.93516311336,2369.14116821791
1,104,2,290,0.5,-0.5,-0.5,4,4,0.8,3,487,0,1,NaN,1,0,0.6,NaN,-1.16305063552597,NaN,750,0,1,congruent,1,1689.86270977887,672.701040583584
1,104,2,291,0.5,-0.5,0.5,1,3,0.8,2,774,0,0,NaN,1,0,0.8,NaN,0.904670776681622,NaN,750,0,1,incongruent,1,3004.93409627284,1897.01288846945
1,104,2,292,-0.5,0.5,0.5,2,1,0.8,1,776,0,0,NaN,0,0,1.2,1,0.919079985129062,NaN,750,1,0,incongruent,0,1401.47046404638,1945.82743505427
1,104,2,293,0.5,0.5,0,4,NaN,0.6,4,696,1,1,696,1,0,1,NaN,0.342711647231474,0.342711647231474,750,0,0,neutral,1,1081.72709543484,1315.29735728891
1,104,2,294,-0.5,0.5,-0.5,3,3,0.6,3,799,1,0,799,0,0,1.4,0.8,1.08478588227462,1.08478588227462,750,1,0,congruent,0,714.937698951873,1674.97493908445
1,104,2,295,-0.5,0.5,-0.5,2,2,0.6,2,681,1,1,681,1,0,1.2,0.6,0.234642583875676,0.234642583875676,750,1,0,congruent,0.1,4938.22863576782,1074.03512419035
1,104,2,296,-0.5,0.5,0.5,1,3,0.6,3,631,0,1,NaN,0,0,1,0.6,-0.125587627310316,NaN,750,1,0,incongruent,0,2078.64972803249,4406.52544408909
1,104,2,297,-0.5,-0.5,0.5,4,2,0.4,2,712,0,1,NaN,0,0,0.6,0.4,0.457985314810991,NaN,750,1,0,incongruent,0,2836.97567435656,1874.87507423913
1,104,2,298,-0.5,0.5,-0.5,3,3,0.4,2,563,0,1,NaN,0,0,0.6,0.4,-0.615500714523266,NaN,750,0,1,congruent,0,1600.50464992561,518.217914234261
1,104,3,302,0.5,-0.5,-0.5,2,2,0.4,3,469,0,1,NaN,0,0,0.4,NaN,-1.29273351155293,NaN,750,0,1,congruent,0,705.619593862609,580.165224543501
1,104,3,303,0.5,0.5,0.5,4,3,0.4,4,830,1,0,830,0,0,0.4,NaN,1.30812861320993,1.30812861320993,750,0,0,incongruent,0,1235.23540733132,610.503173423823
1,104,3,304,-0.5,0.5,-0.5,2,2,0.2,2,393,1,1,393,1,0,0.4,0.4,-1.84028343255564,-1.84028343255564,750,1,0,congruent,0.1,3414.11873511128,2196.96262822464
1,104,3,305,-0.5,-0.5,-0.5,3,3,0.4,3,487,1,1,487,0,0,0.4,0.4,-1.16305063552597,-1.16305063552597,750,1,0,congruent,0,1759.4818228911,1586.63315126405
1,104,3,306,0.5,-0.5,0.5,2,4,0.4,4,459,0,1,NaN,1,0,0.2,NaN,-1.36477955379013,NaN,750,1,0,incongruent,1,814.01964853602,755.508250670479
1,104,3,307,-0.5,0.5,-0.5,3,3,0.4,3,534,1,1,534,1,0,0.6,0.4,-0.824434237011142,-0.824434237011142,750,1,0,congruent,0.1,1500.61060835005,1506.527397143
1,104,3,308,-0.5,0.5,0.5,1,4,0.6,4,683,0,1,NaN,0,0,0.8,0.6,0.249051792323116,NaN,750,1,0,incongruent,0,6610.14859248962,2905.27404134024
1,104,3,309,0.5,0.5,-0.5,3,3,0.4,3,535,1,1,535,1,0,0.8,NaN,-0.817229632787422,-0.817229632787422,750,1,0,congruent,1,4640.64060436133,704.510809968385
1,104,3,310,0.5,0.5,-0.5,1,1,0.6,1,476,1,1,476,1,0,1,NaN,-1.24230128198689,-1.24230128198689,750,1,0,congruent,1,1413.84695407112,1290.12376686463
1,104,3,311,0.5,-0.5,0,2,NaN,0.8,2,613,1,1,613,1,0,1.4,NaN,-0.255270503337274,-0.255270503337274,750,0,0,neutral,1,916.083345339851,3486.89219737669
1,104,3,312,-0.5,0.5,-0.5,1,1,0.8,1,463,1,1,463,1,0,1.4,0.6,-1.33596113689525,-1.33596113689525,750,1,0,congruent,0.1,7968.8615500195,2769.74015672389
1,104,3,313,-0.5,-0.5,0,3,NaN,0.8,3,790,1,0,790,1,0,1.4,0.4,1.01994444426114,1.01994444426114,750,0,0,neutral,0.1,3409.08171662576,3579.65900147277
1,104,3,314,-0.5,0.5,-0.5,1,1,0.8,1,518,1,1,518,1,0,1.6,0.6,-0.939707904590659,-0.939707904590659,750,1,0,congruent,0.1,1777.52359952358,3191.59547904434
1,104,3,315,0.5,0.5,-0.5,4,4,0.8,4,435,1,1,435,1,0,1.4,NaN,-1.53769005515941,-1.53769005515941,750,1,0,congruent,1,2659.63089687912,789.275251055086
1,104,3,316,0.5,-0.5,0.5,2,3,1,2,538,1,1,538,1,0,1.4,NaN,-0.795615820116262,-0.795615820116262,750,0,0,incongruent,1,4776.7593952911,1151.83062329366
1,104,3,317,0.5,0.5,-0.5,1,1,1,1,633,1,1,633,1,0,1.4,NaN,-0.111178418862877,-0.111178418862877,750,1,0,congruent,1,1337.34072284721,2822.79576345795
1,104,3,318,0.5,-0.5,0,4,NaN,1,4,490,1,1,490,1,0,1.6,NaN,-1.14143682285482,-1.14143682285482,750,0,0,neutral,1,1986.09987903344,1457.30562384322
1,104,3,319,0.5,-0.5,0.5,2,4,1,2,879,1,0,879,1,0,1.8,NaN,1.66115422017221,1.66115422017221,750,0,0,incongruent,1,1574.45696393432,2229.9784959468
1,104,3,320,0.5,-0.5,0,1,NaN,1,3,670,0,1,NaN,1,0,2,NaN,0.155391937414758,NaN,750,0,1,neutral,1,4170.80038322109,1005.06903879249
1,104,3,321,0.5,-0.5,-0.5,3,3,1,4,691,0,1,NaN,1,0,2,NaN,0.306688626112875,NaN,750,0,1,congruent,1,2559.97637063696,161.806722261557
1,104,3,322,0.5,-0.5,0.5,4,2,1,2,619,0,1,NaN,1,0,2,NaN,-0.212042877994955,NaN,750,1,0,incongruent,1,3734.2421896703,3105.92563196073
1,104,3,323,-0.5,-0.5,0.5,3,1,1,1,739,0,1,NaN,1,0,2,0.6,0.652509628851427,NaN,750,1,0,incongruent,0.1,4285.4620125922,1622.26049849157
1,104,3,324,0.5,0.5,0.5,2,4,1,3,597,0,1,NaN,0,0,1.8,NaN,-0.370544170916791,NaN,750,0,1,incongruent,0,458.7374151948,2613.85366192371
1,104,3,325,-0.5,-0.5,0.5,1,2,0.8,2,666,0,1,NaN,1,0,1.4,0.6,0.126573520519878,NaN,750,1,0,incongruent,0.1,10592.9033488565,1737.0531121362
1,104,3,326,-0.5,-0.5,0.5,2,3,0.8,4,769,0,0,NaN,1,0,1.2,0.8,0.868647755563023,NaN,750,0,1,incongruent,0.1,665.074775304859,3142.62462005177
1,104,3,327,0.5,-0.5,-0.5,4,4,0.8,3,526,0,1,NaN,1,0,1,NaN,-0.882071070800901,NaN,750,0,1,congruent,1,1198.85792303913,9634.05067905036
1,104,3,328,0.5,0.5,-0.5,2,2,0.8,2,613,1,1,613,1,0,1,NaN,-0.255270503337274,-0.255270503337274,750,1,0,congruent,1,2190.45936530911,1684.95082012026
1,104,3,329,0.5,0.5,0,1,NaN,0.8,1,699,1,1,699,1,0,1.2,NaN,0.364325459902633,0.364325459902633,750,0,0,neutral,1,3440.15301350827,2619.45046623578
1,104,3,330,0.5,-0.5,0.5,4,1,0.8,1,828,0,0,NaN,1,0,1.6,NaN,1.29371940476249,NaN,750,1,0,incongruent,1,3913.16172913155,5208.97346152235
1,104,3,331,-0.5,0.5,-0.5,3,3,0.8,3,525,1,1,525,1,0,1.8,0.8,-0.88927567502462,-0.88927567502462,750,1,0,congruent,0.1,436.160584157361,380.43729096337
1,104,3,333,0.5,-0.5,0.5,3,2,0.8,2,680,0,1,NaN,1,0,1.6,NaN,0.227437979651956,NaN,750,1,0,incongruent,1,1256.77621939549,1395.22872177625
1,104,3,334,0.5,-0.5,0,4,NaN,0.8,3,767,0,0,NaN,0,0,1.6,NaN,0.854238547115583,NaN,750,0,1,neutral,0,2125.28007225851,2482.50225950302
1,104,3,336,0.5,-0.5,-0.5,1,1,0.8,1,500,1,1,500,0,0,0.8,NaN,-1.06939078061762,-1.06939078061762,750,1,0,congruent,0,658.626451186492,1553.46825273794
1,104,3,337,0.5,0.5,-0.5,3,3,0.8,2,644,0,1,NaN,0,0,0.6,NaN,-0.0319277724019583,NaN,750,0,1,congruent,0,8041.26535588198,1468.1988119977
1,104,3,338,0.5,-0.5,-0.5,2,2,0.8,2,616,1,1,616,1,0,0.4,NaN,-0.233656690666114,-0.233656690666114,750,1,0,congruent,1,1971.91585531072,1254.63758180088
1,104,3,339,0.5,0.5,0,3,NaN,0.8,3,546,1,1,546,1,0,0.4,NaN,-0.737978986326503,-0.737978986326503,750,0,0,neutral,1,1026.17176175731,1588.49182114641
1,104,3,340,-0.5,0.5,0.5,1,2,0.8,2,711,0,1,NaN,0,0,0.8,0.8,0.450780710587272,NaN,750,1,0,incongruent,0,4386.68061744889,2372.80544087278
1,104,3,341,-0.5,0.5,0,4,NaN,0.6,4,580,1,1,580,1,0,0.8,0.8,-0.493022442720029,-0.493022442720029,750,0,0,neutral,0.1,831.432473169822,1246.08857808614
1,104,3,342,0.5,-0.5,-0.5,3,3,0.6,3,527,1,1,527,0,0,1,NaN,-0.874866466577181,-0.874866466577181,750,1,0,congruent,0,1452.88376562114,1270.62758426472
1,104,3,343,0.5,0.5,0,1,NaN,0.6,2,638,0,1,NaN,0,0,1,NaN,-0.0751553977442774,NaN,750,0,1,neutral,0,6343.55960976872,3104.4668199493
1,104,3,344,-0.5,0.5,-0.5,3,3,0.4,3,710,1,1,710,1,0,0.6,0.8,0.443576106363552,0.443576106363552,750,1,0,congruent,0.1,3400.69592782774,259.74947239723
1,104,3,345,-0.5,0.5,-0.5,1,1,0.6,1,459,1,1,459,1,0,0.4,0.8,-1.36477955379013,-1.36477955379013,750,1,0,congruent,0.1,983.549499165037,1339.84654830037
1,104,3,346,-0.5,-0.5,0,4,NaN,0.6,4,672,1,1,672,0,0,0.6,0.8,0.169801145862197,0.169801145862197,750,0,0,neutral,0,3519.34212891991,725.31284657423
1,104,3,347,-0.5,-0.5,-0.5,2,2,0.6,3,667,0,1,NaN,1,0,0.4,0.6,0.133778124743598,NaN,750,0,1,congruent,0.1,1375.60554287698,7310.65154110115
1,104,3,348,0.5,0.5,0.5,3,4,0.6,4,569,0,1,NaN,0,0,0.6,NaN,-0.572273089180947,NaN,750,1,0,incongruent,0,5109.79417251869,5185.48843344424
1,104,3,349,-0.5,0.5,-0.5,1,1,0.6,1,596,1,1,596,1,0,0.6,0.8,-0.377748775140511,-0.377748775140511,750,1,0,congruent,0.1,1818.42839078581,1831.36590172317
1,104,3,350,0.5,0.5,-0.5,2,2,0.6,2,870,1,0,870,0,0,0.6,NaN,1.59631278215873,1.59631278215873,750,1,0,congruent,0,1746.56133025415,2118.99548068213
1,104,3,351,-0.5,-0.5,-0.5,1,1,0.6,1,564,1,1,564,1,0,0.4,0.6,-0.608296110299546,-0.608296110299546,750,1,0,congruent,0.1,587.259389047264,1006.92569530855
1,104,3,352,0.5,0.5,0,3,NaN,0.6,3,679,1,1,679,1,0,0.6,NaN,0.220233375428236,0.220233375428236,750,0,0,neutral,1,3405.30529669127,2050.71973511768
1,104,3,353,-0.5,0.5,-0.5,4,4,0.6,4,494,1,1,494,1,0,0.8,0.8,-1.11261840595994,-1.11261840595994,750,1,0,congruent,0.1,1236.34606705862,1848.06138900744
1,104,3,354,0.5,-0.5,0,3,NaN,0.6,3,610,1,1,610,1,0,1,NaN,-0.276884316008433,-0.276884316008433,750,0,0,neutral,1,1564.4111676393,3395.63300812297
1,104,3,355,0.5,0.5,-0.5,2,2,0.6,2,549,1,1,549,1,0,1.2,NaN,-0.716365173655344,-0.716365173655344,750,1,0,congruent,1,5419.6062916009,3217.8928215652
1,104,3,356,0.5,-0.5,-0.5,4,4,0.8,4,674,1,1,674,0,0,1.6,NaN,0.184210354309637,0.184210354309637,750,1,0,congruent,0,1985.95026584337,3345.35155680375
1,104,3,357,-0.5,-0.5,0.5,1,2,0.8,2,575,0,1,NaN,1,0,1.4,0.6,-0.529045463838628,NaN,750,1,0,incongruent,0.1,1442.5301310932,2447.39737748994
1,104,3,358,-0.5,0.5,-0.5,4,4,0.8,3,571,0,1,NaN,0,0,1.2,1,-0.557863880733507,NaN,750,0,1,congruent,0,463.48054048267,1711.16888615873
1,104,3,359,-0.5,-0.5,-0.5,3,3,0.6,3,528,1,1,528,1,0,1,0.6,-0.867661862353461,-0.867661862353461,750,1,0,congruent,0.1,1315.13313472302,1445.24901388891
1,104,3,360,-0.5,-0.5,-0.5,1,1,0.6,1,610,1,1,610,0,0,0.8,0.8,-0.276884316008433,-0.276884316008433,750,1,0,congruent,0,889.132626381974,665.07929989169
1,104,3,361,0.5,0.5,-0.5,4,4,0.6,4,741,1,1,741,1,0,0.4,NaN,0.666918837298867,0.666918837298867,750,1,0,congruent,1,257.856327859122,2302.60485017498
1,104,3,362,0.5,-0.5,-0.5,3,3,0.8,3,623,1,1,623,1,0,0.8,NaN,-0.183224461100075,-0.183224461100075,750,1,0,congruent,1,1218.78951287296,2364.45641091356
1,104,3,363,-0.5,-0.5,-0.5,1,1,0.8,1,419,1,1,419,1,0,1,0.8,-1.65296372273892,-1.65296372273892,750,1,0,congruent,0.1,1086.21837233746,2424.12523294517
1,104,3,364,-0.5,-0.5,0,2,NaN,0.8,2,606,1,1,606,1,0,1.2,0.8,-0.305702732903313,-0.305702732903313,750,0,0,neutral,0.1,763.358219853685,744.519698689593
1,104,3,365,-0.5,0.5,0.5,3,2,0.8,3,407,1,1,407,1,0,1.2,0.8,-1.73941897342356,-1.73941897342356,750,0,0,incongruent,0.1,4837.80906500869,2965.58093896979
1,104,3,366,-0.5,0.5,0,2,NaN,0.8,3,602,0,1,NaN,0,0,1.4,0.8,-0.334521149798192,NaN,750,0,1,neutral,0,466.759298935912,3205.3265753247
1,104,3,367,0.5,0.5,-0.5,3,3,0.6,3,561,1,1,561,1,0,1,NaN,-0.629909922970706,-0.629909922970706,750,1,0,congruent,1,2326.92290612512,455.195333782905
1,104,3,368,-0.5,-0.5,-0.5,4,4,0.6,2,515,0,1,NaN,1,0,1,0.8,-0.961321717261819,NaN,750,0,1,congruent,0.1,3448.00252284134,3857.872584721
1,104,3,369,-0.5,-0.5,-0.5,3,3,0.6,3,533,1,1,533,0,0,1,0.8,-0.831638841234862,-0.831638841234862,750,1,0,congruent,0,3217.9190753788,2892.84682549158
1,104,3,370,0.5,-0.5,-0.5,1,1,0.6,3,536,0,1,NaN,1,0,0.8,NaN,-0.810025028563702,NaN,750,0,1,congruent,1,2529.18495165262,3642.92704091223
1,104,3,371,-0.5,-0.5,0.5,3,2,0.6,3,468,1,1,468,1,0,1,0.6,-1.29993811577665,-1.29993811577665,750,0,0,incongruent,0.1,1011.34140429395,3150.66378968452
1,104,3,372,0.5,0.5,0.5,2,1,0.6,2,713,1,1,713,1,0,1.2,NaN,0.465189919034711,0.465189919034711,750,0,0,incongruent,1,9735.38085373022,1763.85960972286
1,104,3,373,-0.5,-0.5,-0.5,4,4,0.8,4,706,1,1,706,1,0,1.2,0.8,0.414757689468672,0.414757689468672,750,1,0,congruent,0.1,1063.1277642005,7149.03968554583
1,104,3,374,0.5,-0.5,0.5,2,1,0.8,2,421,1,1,421,1,0,1.2,NaN,-1.63855451429148,-1.63855451429148,750,0,0,incongruent,1,3641.93505226769,1600.18549364983
1,104,3,375,-0.5,0.5,-0.5,3,3,0.8,3,642,1,1,642,1,0,1.6,0.6,-0.046336980849398,-0.046336980849398,750,1,0,congruent,0.1,3194.06778762397,2558.44269773738
1,104,3,377,-0.5,-0.5,0,2,NaN,0.6,3,715,0,1,NaN,1,0,1.2,0.8,0.479599127482151,NaN,750,0,1,neutral,0.1,2001.55010485038,2209.13719901541
1,104,3,378,-0.5,-0.5,-0.5,3,3,0.6,3,622,1,1,622,1,0,1,0.8,-0.190429065323795,-0.190429065323795,750,1,0,congruent,0.1,1118.07645325502,1998.22259587375
1,104,3,379,0.5,0.5,-0.5,2,2,0.6,2,448,1,1,448,1,0,1,NaN,-1.44403020025105,-1.44403020025105,750,1,0,congruent,1,1935.85656225947,355.491213793878
1,104,3,380,0.5,0.5,0,1,NaN,0.8,3,741,0,1,NaN,0,0,1,NaN,0.666918837298867,NaN,750,0,1,neutral,0,5216.09813192444,4773.25058911659
1,104,3,381,0.5,0.5,0.5,4,3,0.6,3,534,0,1,NaN,0,0,0.8,NaN,-0.824434237011142,NaN,750,1,0,incongruent,0,4733.24105571901,5793.98018998916
1,104,3,382,0.5,-0.5,0.5,2,1,0.4,2,550,1,1,550,0,0,0.8,NaN,-0.709160569431624,-0.709160569431624,750,0,0,incongruent,0,1674.74833857939,2694.15498276419
1,104,3,383,0.5,0.5,-0.5,4,4,0.4,4,587,1,1,587,1,0,0.6,NaN,-0.44259021315399,-0.44259021315399,750,1,0,congruent,1,5942.0346528541,2541.08498674163
1,104,3,384,0.5,-0.5,0.5,3,1,0.4,3,677,1,1,677,0,0,0.8,NaN,0.205824166980797,0.205824166980797,750,0,0,incongruent,0,1794.09731725349,4970.97369151901
1,104,3,385,0.5,-0.5,0,1,NaN,0.4,2,575,0,1,NaN,1,0,0.4,NaN,-0.529045463838628,NaN,750,0,1,neutral,1,1079.29439727405,3219.91650840917
1,104,3,386,-0.5,0.5,0.5,3,1,0.4,2,559,0,1,NaN,0,0,0.8,0.6,-0.644319131418145,NaN,750,0,1,incongruent,0,1279.74407266386,1695.47333016374
1,104,3,387,0.5,-0.5,0.5,1,2,0.4,2,666,0,1,NaN,0,0,0.8,NaN,0.126573520519878,NaN,750,1,0,incongruent,0,670.484692815691,3272.45864910152
1,104,3,388,-0.5,-0.5,0,3,NaN,0.4,3,421,1,1,421,0,0,0.8,0.8,-1.63855451429148,-1.63855451429148,750,0,0,neutral,0,1294.98218886611,1042.55440139944
1,104,3,389,-0.5,-0.5,-0.5,2,2,0.4,2,589,1,1,589,1,0,0.4,0.8,-0.42818100470655,-0.42818100470655,750,1,0,congruent,0.1,2090.63523101438,1610.46919797409
1,104,3,390,0.5,-0.5,0.5,1,4,0.4,3,526,0,1,NaN,0,0,0.6,NaN,-0.882071070800901,NaN,750,0,1,incongruent,0,888.832042083846,921.794923446143
1,104,3,391,0.5,-0.5,-0.5,2,2,0.4,2,691,1,1,691,1,0,0.2,NaN,0.306688626112875,0.306688626112875,750,1,0,congruent,1,6189.01149198976,529.069753777078
1,104,3,392,-0.5,0.5,0.5,4,1,0.4,1,571,0,1,NaN,0,0,0.6,0.4,-0.557863880733507,NaN,750,1,0,incongruent,0,2188.61456515771,3895.75677019681
1,104,3,393,-0.5,0.5,0,3,NaN,0.2,3,769,1,0,769,0,0,0.6,0.4,0.868647755563023,0.868647755563023,750,0,0,neutral,0,885.347000149329,7489.3696076234
1,104,3,394,-0.5,0.5,-0.5,1,1,0.2,1,578,1,1,578,1,0,0.6,0.2,-0.507431651167468,-0.507431651167468,750,1,0,congruent,0.1,6344.04479676042,1835.88399106633
1,104,3,395,-0.5,-0.5,0.5,2,3,0.4,2,561,1,1,561,1,0,0.6,0.8,-0.629909922970706,-0.629909922970706,750,0,0,incongruent,0.1,3918.01233266499,1640.69985422381
1,104,3,396,-0.5,0.5,0,1,NaN,0.4,2,665,0,1,NaN,0,0,0.8,0.4,0.119368916296159,NaN,750,0,1,neutral,0,4712.29686037461,2785.91014256873
1,104,3,397,-0.5,-0.5,0.5,4,2,0.2,3,558,0,1,NaN,0,0,0.4,0.8,-0.651523735641865,NaN,750,0,1,incongruent,0,594.372926470205,1464.74800732274
1,104,3,398,0.5,0.5,-0.5,1,1,0.2,3,498,0,1,NaN,0,0,0.4,NaN,-1.08379998906506,NaN,750,0,1,congruent,0,1245.05615985084,1639.83781421582
1,104,3,399,-0.5,0.5,0,4,NaN,0.2,4,535,1,1,535,1,0,0.4,0.2,-0.817229632787422,-0.817229632787422,750,0,0,neutral,0.1,1293.79119378396,674.022801575908
1,104,3,400,0.5,-0.5,0.5,2,3,0.4,3,689,0,1,NaN,1,0,0.4,NaN,0.292279417665435,NaN,750,1,0,incongruent,1,4164.86650083668,3127.67359158255
1,104,3,401,-0.5,0.5,-0.5,1,1,0.4,3,494,0,1,NaN,0,0,0.6,0.4,-1.11261840595994,NaN,750,0,1,congruent,0,1135.50024415369,999.694822934779
1,104,3,402,0.5,-0.5,0.5,2,3,0.4,2,645,1,1,645,0,0,0.6,NaN,-0.0247231681782384,-0.0247231681782384,750,0,0,incongruent,0,5661.80087071817,5499.87615550767
1,104,3,403,-0.5,-0.5,0,4,NaN,0.4,4,509,1,1,509,0,0,0.6,0.6,-1.00454934260414,-1.00454934260414,750,0,0,neutral,0,3444.55965616452,4230.00638369771
1,104,3,404,0.5,-0.5,-0.5,3,3,0.4,3,516,1,1,516,1,0,0.6,NaN,-0.954117113038099,-0.954117113038099,750,1,0,congruent,1,1148.66997345122,3050.4943567881
1,104,3,405,0.5,0.5,0,2,NaN,0.4,2,658,1,1,658,1,0,0.8,NaN,0.0689366867301196,0.0689366867301196,750,0,0,neutral,1,3350.62970399822,1756.49960540266
1,104,3,406,-0.5,0.5,-0.5,4,4,0.4,4,406,1,1,406,1,0,0.8,0.4,-1.74662357764728,-1.74662357764728,750,1,0,congruent,0.1,1313.41886107247,1300.25708820975
1,104,3,407,-0.5,0.5,-0.5,3,3,0.6,3,552,1,1,552,1,0,1,0.6,-0.694751360984184,-0.694751360984184,750,1,0,congruent,0.1,4951.7782231489,1652.60581209948
1,104,3,408,-0.5,0.5,0,4,NaN,0.8,4,510,1,1,510,1,0,1.2,0.6,-0.997344738380418,-0.997344738380418,750,0,0,neutral,0.1,939.547908717501,1947.24827856138
1,104,3,409,-0.5,0.5,0.5,1,3,0.8,3,612,0,1,NaN,0,0,1.4,0.8,-0.262475107560993,NaN,750,1,0,incongruent,0,1468.819061335,550.519099582132
1,104,3,410,0.5,0.5,0.5,4,1,0.8,1,966,0,0,NaN,0,0,1,NaN,2.28795478763583,NaN,750,1,0,incongruent,0,1566.92555017177,339.515344708662
1,104,3,411,-0.5,0.5,-0.5,3,3,0.6,3,524,1,1,524,1,0,0.6,0.6,-0.89648027924834,-0.89648027924834,750,1,0,congruent,0.1,3288.01754112728,697.543395928294
1,104,3,412,0.5,0.5,0,4,NaN,0.6,4,355,1,1,355,1,0,0.6,NaN,-2.11405839305699,-2.11405839305699,750,0,0,neutral,1,847.874919848642,3078.21664239255
1,104,3,413,-0.5,-0.5,-0.5,1,1,0.6,1,520,1,1,520,0,0,0.8,0.4,-0.92529869614322,-0.92529869614322,750,1,0,congruent,0,754.622992982746,1165.38940906006
1,104,3,414,-0.5,-0.5,0,2,NaN,0.6,2,702,1,1,702,1,0,0.6,0.4,0.385939272573793,0.385939272573793,750,0,0,neutral,0.1,2696.57925287792,5436.03701710309
1,104,3,415,-0.5,-0.5,-0.5,1,1,0.6,1,562,1,1,562,1,0,0.8,0.4,-0.622705318746986,-0.622705318746986,750,1,0,congruent,0.1,2614.17416641719,2510.67552456584
1,104,3,416,0.5,-0.5,0,3,NaN,0.6,3,552,1,1,552,1,0,1,NaN,-0.694751360984184,-0.694751360984184,750,0,0,neutral,1,1334.63602190725,1474.64138225406
1,104,3,419,-0.5,-0.5,0.5,2,1,0.4,3,805,0,0,NaN,0,0,0.8,0.4,1.12801350761694,NaN,750,0,1,incongruent,0,1150.54255999821,1859.94955059294
1,104,3,420,0.5,-0.5,0,3,NaN,0.4,4,440,0,1,NaN,1,0,0.6,NaN,-1.50166703404081,NaN,750,0,1,neutral,1,830.195865636036,526.123021986673
1,104,3,421,0.5,-0.5,-0.5,1,1,0.4,2,605,0,1,NaN,1,0,0.8,NaN,-0.312907337127032,NaN,750,0,1,congruent,1,3261.38138347895,2519.03803437975
1,104,3,422,-0.5,0.5,0,3,NaN,0.4,4,453,0,1,NaN,0,0,0.8,0.4,-1.40800717913245,NaN,750,0,1,neutral,0,2446.36001994411,2160.56272221117
1,104,3,423,0.5,-0.5,-0.5,4,4,0.4,3,524,0,1,NaN,1,0,0.8,NaN,-0.89648027924834,NaN,750,0,1,congruent,1,1010.18308980791,1545.71420681589
1,104,3,424,-0.5,0.5,0.5,2,1,0.4,3,758,0,0,NaN,0,0,1.2,0.2,0.789397109102104,NaN,750,0,1,incongruent,0,2246.10211990884,3582.4403758991
1,104,3,425,-0.5,0.5,0.5,3,2,0.2,2,641,0,1,NaN,0,0,1.2,0.2,-0.0535415850731178,NaN,750,1,0,incongruent,0,4722.13675956589,991.020127892397
1,104,3,426,0.5,0.5,0,4,NaN,0,4,412,1,1,412,1,0,0.8,NaN,-1.70339595230496,-1.70339595230496,750,0,0,neutral,1,2913.22362221931,1379.05155952679
1,104,3,427,-0.5,-0.5,-0.5,1,1,0.2,1,580,1,1,580,0,0,0.8,0.4,-0.493022442720029,-0.493022442720029,750,1,0,congruent,0,2202.29977425692,1635.1275449791
1,104,3,428,-0.5,-0.5,0,3,NaN,0.2,3,487,1,1,487,0,0,0.8,0.4,-1.16305063552597,-1.16305063552597,750,0,0,neutral,0,598.06966415125,716.891557682253
1,104,3,429,0.5,0.5,-0.5,1,1,0.2,3,441,0,1,NaN,0,0,0.4,NaN,-1.49446242981709,NaN,750,0,1,congruent,0,760.698066790958,1651.44128386005
1,104,3,430,-0.5,-0.5,-0.5,3,3,0.2,3,759,1,0,759,0,0,0.4,0.4,0.796601713325824,0.796601713325824,750,1,0,congruent,0,1682.01046185145,1594.05455051987
1,104,3,431,-0.5,-0.5,0,4,NaN,0.2,4,564,1,1,564,0,0,0.4,0.2,-0.608296110299546,-0.608296110299546,750,0,0,neutral,0,763.852080980607,2464.42328719061
1,104,3,432,0.5,0.5,0.5,1,2,0.2,2,674,0,1,NaN,0,0,0,NaN,0.184210354309637,NaN,750,1,0,incongruent,0,1929.29667236733,823.890058882049
1,104,3,433,-0.5,-0.5,0.5,4,1,0.2,1,590,0,1,NaN,1,0,0,0,-0.42097640048283,NaN,750,1,0,incongruent,0.1,3336.2826514542,1786.52516959057
1,104,3,434,0.5,-0.5,-0.5,2,2,0.2,2,560,1,1,560,0,0,0.2,NaN,-0.637114527194426,-0.637114527194426,750,1,0,congruent,0,4015.1432798926,1405.00589292846
1,104,3,435,-0.5,0.5,-0.5,3,3,0.2,3,460,1,1,460,1,0,0.2,0,-1.35757494956641,-1.35757494956641,750,1,0,congruent,0.1,3151.25814045722,3156.56411776768
1,104,3,436,-0.5,-0.5,-0.5,1,1,0.4,2,677,0,1,NaN,0,0,0.4,0.2,0.205824166980797,NaN,750,0,1,congruent,0,1497.18497597144,1258.57645027353
1,104,3,437,-0.5,0.5,0,3,NaN,0.4,4,497,0,1,NaN,0,0,0.4,0.2,-1.09100459328878,NaN,750,0,1,neutral,0,6525.85258185106,3190.73598309073
1,104,3,438,-0.5,-0.5,-0.5,2,2,0.4,3,664,0,1,NaN,0,0,0.4,0.2,0.112164312072439,NaN,750,0,1,congruent,0,1285.70774803197,1638.2199382855
1,104,3,439,-0.5,-0.5,-0.5,4,4,0.4,4,482,1,1,482,1,0,0.2,0.2,-1.19907365664457,-1.19907365664457,750,1,0,congruent,0.1,4041.70566875213,590.494363729864
1,104,3,440,-0.5,0.5,0.5,3,1,0.4,2,968,0,0,NaN,0,0,0.4,0.2,2.30236399608327,NaN,750,0,1,incongruent,0,416.815218118877,1479.60015533692
1,104,3,441,-0.5,-0.5,0.5,1,3,0.2,3,857,0,0,NaN,0,0,0.2,0.4,1.50265292725037,NaN,750,1,0,incongruent,0,1655.04839860464,2015.11059296063
1,104,3,442,0.5,0.5,-0.5,2,2,0.2,2,713,1,1,713,1,0,0.2,NaN,0.465189919034711,0.465189919034711,750,1,0,congruent,1,1087.06726692635,4299.76540354153
1,104,3,443,0.5,0.5,0,3,NaN,0.4,3,545,1,1,545,1,0,0.6,NaN,-0.745183590550223,-0.745183590550223,750,0,0,neutral,1,2759.76299543838,1875.06616500127
1,104,3,444,0.5,0.5,-0.5,2,2,0.6,2,763,1,0,763,0,0,1,NaN,0.825420130220704,0.825420130220704,750,1,0,congruent,0,4925.20323610367,612.430011583032
1,104,3,445,0.5,0.5,0,1,NaN,0.4,1,774,1,0,774,0,0,0.8,NaN,0.904670776681622,0.904670776681622,750,0,0,neutral,0,3914.18421091136,2511.67037626254
1,104,3,446,-0.5,0.5,-0.5,3,3,0.4,3,595,1,1,595,1,0,0.8,0.2,-0.384953379364231,-0.384953379364231,750,1,0,congruent,0.1,1010.78787709306,2476.95876253623
1,104,3,447,-0.5,0.5,0,4,NaN,0.6,2,759,0,0,NaN,0,0,1,0.4,0.796601713325824,NaN,750,0,1,neutral,0,1058.31388284257,875.976706970712
1,104,3,448,-0.5,0.5,-0.5,2,2,0.4,2,843,1,0,843,0,0,0.6,0.4,1.40178846811829,1.40178846811829,750,1,0,congruent,0,2656.16918330198,1533.72867905086
1,104,3,449,0.5,-0.5,0.5,3,1,0.2,3,569,1,1,569,0,0,0.2,NaN,-0.572273089180947,-0.572273089180947,750,0,0,incongruent,0,1360.42887578785,2440.4416961128
1,104,3,450,-0.5,-0.5,0,2,NaN,0.2,4,542,0,1,NaN,0,0,0.2,0.4,-0.766797403221383,NaN,750,0,1,neutral,0,7900.0529611159,1636.13321329328
1,104,4,452,-0.5,0.5,0,2,NaN,0.2,2,782,1,0,782,0,0,0,0.2,0.962307610471381,0.962307610471381,750,0,0,neutral,0,748.088199855031,1693.35879491834
1,104,4,453,-0.5,0.5,-0.5,4,4,0.2,4,359,1,1,359,1,0,0,0.2,-2.08523997616212,-2.08523997616212,750,1,0,congruent,0.1,720.876548638542,524.662817056994
1,104,4,454,-0.5,-0.5,0.5,3,1,0.2,1,690,0,1,NaN,0,0,0.2,0.2,0.299484021889155,NaN,750,1,0,incongruent,0,1630.24389700354,859.374710280103
1,104,4,455,0.5,0.5,-0.5,2,2,0.2,3,529,0,1,NaN,0,0,0.2,NaN,-0.860457258129741,NaN,750,0,1,congruent,0,1069.24422256436,3131.3821642089
1,104,4,456,0.5,0.5,-0.5,3,3,0.2,3,534,1,1,534,1,0,0.2,NaN,-0.824434237011142,-0.824434237011142,750,1,0,congruent,1,1441.00504970015,2744.77975699306
1,104,4,457,0.5,-0.5,-0.5,1,1,0.4,1,652,1,1,652,1,0,0.6,NaN,0.0257090613878005,0.0257090613878005,750,1,0,congruent,1,841.27030897666,518.026068643331
1,104,4,458,0.5,0.5,0.5,2,4,0.4,2,859,1,0,859,0,0,1,NaN,1.51706213569781,1.51706213569781,750,0,0,incongruent,0,3400.91645986763,5414.47197214899
1,104,4,459,-0.5,-0.5,0.5,4,3,0.4,3,547,0,1,NaN,0,0,0.8,0.2,-0.730774382102784,NaN,750,1,0,incongruent,0,1815.14937147677,1415.97562121285
1,104,4,460,0.5,-0.5,0,3,NaN,0.4,4,509,0,1,NaN,1,0,0.8,NaN,-1.00454934260414,NaN,750,0,1,neutral,1,771.362164406238,3029.23266752813
1,104,4,461,0.5,-0.5,-0.5,4,4,0.4,4,438,1,1,438,1,0,1.2,NaN,-1.51607624248825,-1.51607624248825,750,1,0,congruent,1,2895.16759705454,2736.80321224425
1,104,4,462,0.5,0.5,0,1,NaN,0.4,3,675,0,1,NaN,0,0,1.2,NaN,0.191414958533357,NaN,750,0,1,neutral,0,3414.71145790811,1833.78160163041
1,104,4,463,-0.5,0.5,0.5,2,4,0.4,3,847,0,0,NaN,0,0,0.8,0.4,1.43060688501317,NaN,750,0,1,incongruent,0,2810.52952325368,4715.03119079133
1,104,4,464,0.5,0.5,0.5,3,2,0.2,3,981,1,0,981,0,0,0.8,NaN,2.39602385099163,2.39602385099163,750,0,0,incongruent,0,1868.05172750744,1135.07202752636
1,104,4,465,-0.5,0.5,0,1,NaN,0.2,1,684,1,1,684,1,0,0.8,0.2,0.256256396546836,0.256256396546836,750,0,0,neutral,0.1,1343.36579776352,2367.32840539734
1,104,4,467,0.5,0.5,0,4,NaN,0.2,4,483,1,1,483,1,0,0.2,NaN,-1.19186905242085,-1.19186905242085,750,0,0,neutral,1,1347.17520522967,3052.53048498638
1,104,4,468,0.5,-0.5,-0.5,3,3,0.4,3,575,1,1,575,0,0,0.6,NaN,-0.529045463838628,-0.529045463838628,750,1,0,congruent,0,2152.29281404505,3616.84315983481
1,104,4,469,-0.5,0.5,0,4,NaN,0.4,3,625,0,1,NaN,0,0,0.6,0.4,-0.168815252652635,NaN,750,0,1,neutral,0,2924.87115123453,2877.939076443
1,104,4,471,-0.5,0.5,0,2,NaN,0.6,4,505,0,1,NaN,0,0,0.8,0.4,-1.03336775949902,NaN,750,0,1,neutral,0,2061.7489231949,743.877874481837
1,104,4,472,0.5,0.5,0.5,3,4,0.4,3,626,1,1,626,1,0,0.8,NaN,-0.161610648428916,-0.161610648428916,750,0,0,incongruent,1,1896.54305263951,2155.15595751794
1,104,4,473,-0.5,-0.5,0.5,4,3,0.6,3,656,0,1,NaN,1,0,0.8,0.2,0.0545274782826799,NaN,750,1,0,incongruent,0.1,1960.87612346358,987.758965894048
1,104,4,474,-0.5,-0.5,0.5,3,4,0.6,4,536,0,1,NaN,0,0,1,0.2,-0.810025028563702,NaN,750,1,0,incongruent,0,510.6717264195,4486.23925121905
1,104,4,475,-0.5,-0.5,0.5,4,1,0.6,3,556,0,1,NaN,1,0,1,0.2,-0.665932944089305,NaN,750,0,1,incongruent,0.1,798.886944700715,1370.11047363243
1,104,4,476,-0.5,0.5,0.5,1,4,0.6,3,615,0,1,NaN,0,0,0.8,0.2,-0.240861294889834,NaN,750,0,1,incongruent,0,3437.30231086184,2048.21814007224
1,104,4,477,0.5,0.5,-0.5,3,3,0.4,3,915,1,0,915,0,0,0.8,NaN,1.92051997222612,1.92051997222612,750,1,0,congruent,0,1173.90254101323,1023.47865798025
1,104,4,478,-0.5,-0.5,0.5,4,2,0.4,4,509,1,1,509,0,0,0.4,0.4,-1.00454934260414,-1.00454934260414,750,0,0,incongruent,0,1627.81447360801,2126.19995505038
1,104,4,479,0.5,0.5,-0.5,3,3,0.4,3,628,1,1,628,1,0,0.2,NaN,-0.147201439981476,-0.147201439981476,750,1,0,congruent,1,1637.17741376622,10639.1320944636
1,104,4,480,-0.5,-0.5,-0.5,1,1,0.4,1,727,1,1,727,0,0,0.6,0.4,0.566054378166789,0.566054378166789,750,1,0,congruent,0,3767.44523768933,3290.87338121376
1,104,4,481,-0.5,0.5,-0.5,4,4,0.4,3,410,0,1,NaN,0,0,0.4,0.2,-1.7178051607524,NaN,750,0,1,congruent,0,2203.2430807566,1907.39678748357
1,104,4,482,-0.5,0.5,-0.5,1,1,0.4,1,726,1,1,726,1,0,0.4,0,0.558849773943069,0.558849773943069,750,1,0,congruent,0.1,1495.10954247489,2649.97676010388
1,104,4,483,-0.5,-0.5,0,4,NaN,0.4,4,470,1,1,470,0,0,0.6,0.4,-1.28552890732921,-1.28552890732921,750,0,0,neutral,0,747.079996676968,564.555644757719
1,104,4,484,-0.5,0.5,0.5,2,1,0.4,3,467,0,1,NaN,0,0,0.6,0.2,-1.30714272000037,NaN,750,0,1,incongruent,0,991.564155404705,2018.55765952878
1,104,4,485,0.5,0.5,-0.5,4,4,0.4,4,415,1,1,415,1,0,0.2,NaN,-1.6817821396338,-1.6817821396338,750,1,0,congruent,1,1097.67068394422,2223.00322346131
1,104,4,486,0.5,0.5,0.5,3,2,0.6,3,964,1,0,964,0,0,0.6,NaN,2.27354557918839,2.27354557918839,750,0,0,incongruent,0,3061.07367397142,5063.08863168096
1,104,4,487,-0.5,-0.5,0.5,4,1,0.4,1,836,0,0,NaN,0,0,0.6,0.2,1.35135623855225,NaN,750,1,0,incongruent,0,2622.659693748,2088.19404852079
1,104,4,488,-0.5,-0.5,0.5,3,4,0.4,3,525,1,1,525,0,0,0.4,0.2,-0.88927567502462,-0.88927567502462,750,0,0,incongruent,0,1084.01169341952,1736.12835356239
1,104,4,489,0.5,0.5,0,2,NaN,0.4,1,901,0,0,NaN,0,0,0.4,NaN,1.81965551309404,NaN,750,0,1,neutral,0,3721.21915445117,1349.00117154405
1,104,4,490,0.5,-0.5,0.5,4,1,0.4,2,649,0,1,NaN,1,0,0.4,NaN,0.00409524871664096,NaN,750,0,1,incongruent,1,5088.36712346058,2336.03002847779
1,104,4,491,-0.5,-0.5,0.5,1,4,0.4,4,698,0,1,NaN,1,0,0.4,0,0.357120855678914,NaN,750,1,0,incongruent,0.1,1163.19128582452,2858.68859749932
1,104,4,492,-0.5,-0.5,-0.5,2,2,0.4,2,744,1,1,744,0,0,0.6,0.2,0.688532649970027,0.688532649970027,750,1,0,congruent,0,5907.26994099756,4783.70081364862
1,104,4,493,-0.5,0.5,0,1,NaN,0.4,1,604,1,1,604,1,0,0.6,0.2,-0.320111941350752,-0.320111941350752,750,0,0,neutral,0.1,793.700804685361,4460.76400805611
1,104,4,494,-0.5,0.5,-0.5,4,4,0.4,3,639,0,1,NaN,0,0,0.8,0.4,-0.0679507935205575,NaN,750,0,1,congruent,0,1293.85049683667,1923.62911530892
1,104,4,495,0.5,-0.5,0.5,2,3,0.4,3,534,0,1,NaN,1,0,0.8,NaN,-0.824434237011142,NaN,750,1,0,incongruent,1,2619.60902754797,4699.95996187516
1,104,4,496,-0.5,0.5,0,4,NaN,0.4,4,782,1,0,782,0,0,0.8,0.4,0.962307610471381,0.962307610471381,750,0,0,neutral,0,6490.91238656889,1840.07697506162
1,104,4,498,0.5,-0.5,0,1,NaN,0.2,1,814,1,0,814,0,0,0.6,NaN,1.19285494563042,1.19285494563042,750,0,0,neutral,0,905.576215887738,1478.60850070896
1,104,4,499,-0.5,0.5,0.5,2,3,0.2,2,747,1,1,747,1,0,0.4,0.2,0.710146462641186,0.710146462641186,750,0,0,incongruent,0.1,5868.66823920372,6262.86924909579
1,104,4,500,0.5,0.5,-0.5,4,4,0.4,4,419,1,1,419,1,0,0.6,NaN,-1.65296372273892,-1.65296372273892,750,1,0,congruent,1,826.218239908037,1089.92837486319
1,104,4,502,0.5,0.5,-0.5,3,3,0.4,3,467,1,1,467,1,0,0.6,NaN,-1.30714272000037,-1.30714272000037,750,1,0,congruent,1,1196.6206422769,4528.85744571903
1,104,4,503,0.5,-0.5,0.5,2,1,0.6,3,676,0,1,NaN,1,0,1,NaN,0.198619562757077,NaN,750,0,1,incongruent,1,301.485507480194,758.26124926994
1,104,4,504,0.5,-0.5,0,1,NaN,0.6,1,549,1,1,549,1,0,1.4,NaN,-0.716365173655344,-0.716365173655344,750,0,0,neutral,1,2723.50970455985,1482.20696462071
1,104,4,505,0.5,0.5,0.5,3,2,0.6,2,716,0,1,NaN,0,0,1.6,NaN,0.486803731705871,NaN,750,1,0,incongruent,0,2808.32219929761,710.926030390963
1,104,4,507,-0.5,-0.5,-0.5,3,3,0.6,3,637,1,1,637,1,0,1.2,0.2,-0.0823600019679972,-0.0823600019679972,750,1,0,congruent,0.1,2215.16221560889,644.758543624901
1,104,4,508,0.5,-0.5,0.5,4,2,0.6,3,572,0,1,NaN,0,0,1,NaN,-0.550659276509787,NaN,750,0,1,incongruent,0,4034.72294486687,1924.40238922533
1,104,4,509,0.5,-0.5,0.5,3,1,0.6,3,599,1,1,599,1,0,0.6,NaN,-0.356134962469352,-0.356134962469352,750,0,0,incongruent,1,1660.2038911077,1445.13263379608
1,104,4,510,-0.5,0.5,0,1,NaN,0.6,1,575,1,1,575,1,0,0.6,0.2,-0.529045463838628,-0.529045463838628,750,0,0,neutral,0.1,4652.13974849373,1320.45520188593
1,104,4,511,-0.5,-0.5,-0.5,3,3,0.6,3,635,1,1,635,1,0,0.8,0.4,-0.0967692104154369,-0.0967692104154369,750,1,0,congruent,0.1,1414.06075326146,2478.76408898778
1,104,4,512,0.5,0.5,0,2,NaN,0.6,2,666,1,1,666,1,0,1,NaN,0.126573520519878,0.126573520519878,750,0,0,neutral,1,4965.63281233547,1133.53492199686
1,104,4,513,0.5,-0.5,0.5,3,2,0.6,3,651,1,1,651,1,0,1.2,NaN,0.0185044571640807,0.0185044571640807,750,0,0,incongruent,1,2384.45538193459,227.642978481334
1,104,4,514,0.5,-0.5,0,4,NaN,0.6,4,410,1,1,410,0,0,1.6,NaN,-1.7178051607524,-1.7178051607524,750,0,0,neutral,0,985.407850427684,1324.09561399354
1,104,4,515,0.5,-0.5,0.5,1,2,0.6,3,583,0,1,NaN,1,0,1.2,NaN,-0.471408630048869,NaN,750,0,1,incongruent,1,2396.1797005884,2686.46317980141
1,104,4,516,0.5,0.5,-0.5,3,3,0.6,2,596,0,1,NaN,0,0,1.4,NaN,-0.377748775140511,NaN,750,0,1,congruent,0,2140.9056922088,858.700528362292
1,104,4,517,-0.5,0.5,-0.5,4,4,0.4,4,465,1,1,465,1,0,1.2,0.4,-1.32155192844781,-1.32155192844781,750,1,0,congruent,0.1,3926.14031118031,6481.13747502859
1,104,4,518,-0.5,0.5,0,2,NaN,0.6,3,625,0,1,NaN,0,0,1,0.6,-0.168815252652635,NaN,750,0,1,neutral,0,1066.7729908241,1919.5561489605
1,104,4,519,0.5,0.5,-0.5,1,1,0.6,1,515,1,1,515,1,0,0.6,NaN,-0.961321717261819,-0.961321717261819,750,1,0,congruent,1,1522.05702963243,1585.94207663788
1,104,4,520,-0.5,0.5,0,3,NaN,0.6,4,532,0,1,NaN,0,0,1,0.6,-0.838843445458581,NaN,750,0,1,neutral,0,935.260105384373,1940.5096115309
1,104,4,521,0.5,0.5,-0.5,1,1,0.4,1,497,1,1,497,1,0,0.6,NaN,-1.09100459328878,-1.09100459328878,750,1,0,congruent,1,1634.42279258234,2582.09947833541
1,104,4,522,-0.5,0.5,0,2,NaN,0.6,2,581,1,1,581,1,0,1,0.4,-0.485817838496309,-0.485817838496309,750,0,0,neutral,0.1,1056.29146160618,2705.05762559722
1,104,4,523,-0.5,0.5,-0.5,1,1,0.6,1,571,1,1,571,1,0,1,0.6,-0.557863880733507,-0.557863880733507,750,1,0,congruent,0.1,1070.20010627887,2599.22050971176
1,104,4,524,0.5,-0.5,0.5,3,2,0.8,2,747,0,1,NaN,1,0,1.2,NaN,0.710146462641186,NaN,750,1,0,incongruent,1,8548.46702542339,733.321889868978
1,104,4,525,-0.5,0.5,0,1,NaN,0.8,1,504,1,1,504,1,0,1.2,0.6,-1.04057236372274,-1.04057236372274,750,0,0,neutral,0.1,3080.53929591304,1393.63909267191
1,104,4,526,-0.5,-0.5,-0.5,4,4,0.8,4,561,1,1,561,1,0,1.4,0.6,-0.629909922970706,-0.629909922970706,750,1,0,congruent,0.1,602.630559172513,2324.99451998067
1,104,4,527,0.5,-0.5,0.5,3,2,0.8,2,913,0,0,NaN,1,0,1.2,NaN,1.90611076377868,NaN,750,1,0,incongruent,1,1851.10158867404,2010.35778490766
1,104,4,528,0.5,-0.5,0,4,NaN,0.8,4,509,1,1,509,1,0,1.4,NaN,-1.00454934260414,-1.00454934260414,750,0,0,neutral,1,2339.0820426524,4059.85693620816
1,104,4,529,0.5,-0.5,-0.5,1,1,0.8,1,508,1,1,508,1,0,1.6,NaN,-1.01175394682786,-1.01175394682786,750,1,0,congruent,1,631.047223999977,2162.19875546455
1,104,4,530,0.5,-0.5,0.5,4,2,0.8,3,720,0,1,NaN,1,0,1.6,NaN,0.51562214860075,NaN,750,0,1,incongruent,1,404.464035929495,3287.59807451073
1,104,4,531,-0.5,-0.5,-0.5,1,1,0.8,1,467,1,1,467,1,0,1.8,0.8,-1.30714272000037,-1.30714272000037,750,1,0,congruent,0.1,1469.0501130146,479.504327442753
1,104,4,532,-0.5,-0.5,0.5,3,2,0.8,2,674,0,1,NaN,1,0,1.8,0.8,0.184210354309637,NaN,750,1,0,incongruent,0.1,2799.99340010071,2432.90064205018
1,104,4,533,0.5,0.5,0.5,2,4,0.8,1,583,0,1,NaN,0,0,1.6,NaN,-0.471408630048869,NaN,750,0,1,incongruent,0,6669.44732969964,403.76337954094
1,104,4,534,0.5,-0.5,0.5,3,1,0.8,1,530,0,1,NaN,1,0,1.2,NaN,-0.853252653906021,NaN,750,1,0,incongruent,1,5476.06241760566,3026.28760874289
1,104,4,535,0.5,0.5,-0.5,4,4,0.8,4,454,1,1,454,1,0,1.2,NaN,-1.40080257490873,-1.40080257490873,750,1,0,congruent,1,1194.22812427304,885.739454123258
1,104,4,536,-0.5,0.5,-0.5,1,1,0.8,1,435,1,1,435,1,0,1.2,0.6,-1.53769005515941,-1.53769005515941,750,1,0,congruent,0.1,1886.49301076689,589.463742530259
1,104,4,537,0.5,-0.5,-0.5,2,2,0.8,2,528,1,1,528,0,0,1.2,NaN,-0.867661862353461,-0.867661862353461,750,1,0,congruent,0,1373.21534358743,2502.26468144741
1,104,4,538,0.5,-0.5,0,3,NaN,0.8,4,527,0,1,NaN,0,0,1,NaN,-0.874866466577181,NaN,750,0,1,neutral,0,3495.03872384012,904.878993013484
1,104,4,539,-0.5,-0.5,-0.5,2,2,0.8,2,635,1,1,635,0,0,1,1,-0.0967692104154369,-0.0967692104154369,750,1,0,congruent,0,2185.02004649661,3434.66884252087
1,104,4,540,0.5,-0.5,0.5,4,3,0.8,4,601,1,1,601,1,0,0.6,NaN,-0.341725754021912,-0.341725754021912,750,0,0,incongruent,1,2925.3456012583,635.070848566251
1,104,4,541,0.5,0.5,0.5,2,4,0.8,3,603,0,1,NaN,0,0,0.6,NaN,-0.327316545574472,NaN,750,0,1,incongruent,0,2246.66919735706,987.536972017874
1,104,4,542,0.5,0.5,0.5,1,3,0.6,1,740,1,1,740,1,0,0.4,NaN,0.659714233075147,0.659714233075147,750,0,0,incongruent,1,5893.15396862405,1077.61266818859
1,104,4,543,0.5,-0.5,0.5,3,1,0.6,1,602,0,1,NaN,1,0,0.8,NaN,-0.334521149798192,NaN,750,1,0,incongruent,1,1004.72602997177,506.997835306176
1,104,4,544,0.5,0.5,0.5,1,3,0.6,2,612,0,1,NaN,0,0,1.2,NaN,-0.262475107560993,NaN,750,0,1,incongruent,0,3529.50561456722,2215.99967418896
1,104,4,545,0.5,0.5,-0.5,2,2,0.6,2,609,1,1,609,1,0,1.2,NaN,-0.284088920232153,-0.284088920232153,750,1,0,congruent,1,3071.94027245819,2346.99835239036
1,104,4,546,-0.5,0.5,0.5,1,4,0.6,1,841,1,0,841,0,0,1.2,0.8,1.38737925967085,1.38737925967085,750,0,0,incongruent,0,3983.42806038202,4739.33049006314
1,104,4,547,0.5,0.5,-0.5,2,2,0.4,2,544,1,1,544,1,0,1.2,NaN,-0.752388194773943,-0.752388194773943,750,1,0,congruent,1,2379.97792257873,3650.97042835575
1,104,4,548,-0.5,0.5,0,4,NaN,0.6,4,399,1,1,399,1,0,1.2,0.8,-1.79705580721332,-1.79705580721332,750,0,0,neutral,0.1,1306.83445418734,1025.02691910351
1,104,4,549,0.5,0.5,-0.5,3,3,0.6,3,707,1,1,707,1,0,1,NaN,0.421962293692392,0.421962293692392,750,1,0,congruent,1,1120.55815202792,2789.07605788773
1,104,4,550,0.5,-0.5,0.5,2,4,0.8,4,500,0,1,NaN,1,0,1.4,NaN,-1.06939078061762,NaN,750,1,0,incongruent,1,580.968909700753,1073.53557190717
1,104,4,551,0.5,0.5,0.5,4,3,0.8,4,819,1,0,819,0,0,1.4,NaN,1.22887796674902,1.22887796674902,750,0,0,incongruent,0,3543.26140983139,793.068643283204
1,104,4,552,-0.5,-0.5,0.5,1,2,0.6,2,565,0,1,NaN,1,0,1.4,0.8,-0.601091506075826,NaN,750,1,0,incongruent,0.1,4641.11552304926,3115.74313816739
1,104,4,553,-0.5,-0.5,0,2,NaN,0.6,3,926,0,0,NaN,0,0,1.2,0.8,1.99977061868704,NaN,750,0,1,neutral,0,6358.59354721484,492.880130200758
1,104,4,554,0.5,0.5,-0.5,3,3,0.6,3,715,1,1,715,1,0,1,NaN,0.479599127482151,0.479599127482151,750,1,0,congruent,1,1023.71680257742,2169.58938877476
1,104,4,555,0.5,-0.5,0.5,4,1,0.8,1,501,0,1,NaN,0,0,1,NaN,-1.0621861763939,NaN,750,1,0,incongruent,0,5859.3258588151,1795.83627935013
1,104,4,557,0.5,0.5,0.5,2,4,0.8,3,542,0,1,NaN,0,0,0.8,NaN,-0.766797403221383,NaN,750,0,1,incongruent,0,977.396334671753,1183.18277033136
1,104,4,558,-0.5,0.5,0,4,NaN,0.6,4,302,1,1,302,1,0,0.6,0.8,-2.49590241691415,-2.49590241691415,750,0,0,neutral,0.1,991.814139573422,1563.01645157494
1,104,4,559,0.5,0.5,0.5,1,2,0.6,2,529,0,1,NaN,0,0,0.8,NaN,-0.860457258129741,NaN,750,1,0,incongruent,0,2275.46361029832,2539.60183580604
1,104,4,560,-0.5,-0.5,0.5,3,4,0.4,4,606,0,1,NaN,0,0,0.4,0.6,-0.305702732903313,NaN,750,1,0,incongruent,0,3009.02279811098,2672.58253713388
1,104,4,561,-0.5,0.5,0,4,NaN,0.4,4,558,1,1,558,1,0,0.4,0.8,-0.651523735641865,-0.651523735641865,750,0,0,neutral,0.1,3643.34885615866,4662.9442087322
1,104,4,562,-0.5,0.5,0.5,3,4,0.6,4,804,0,0,NaN,0,0,0.4,0.8,1.12080890339322,NaN,750,1,0,incongruent,0,3659.50253157367,2712.84787923609
1,104,4,563,0.5,-0.5,0.5,1,2,0.4,2,671,0,1,NaN,0,0,0.4,NaN,0.162596541638478,NaN,750,1,0,incongruent,0,2323.51462276555,1914.37580322857
1,104,4,564,-0.5,-0.5,0.5,4,3,0.4,4,532,1,1,532,0,0,0.2,0.4,-0.838843445458581,-0.838843445458581,750,0,0,incongruent,0,2375.13943769742,2260.32943909662
1,104,4,565,-0.5,-0.5,0.5,2,4,0.4,2,695,1,1,695,0,0,0.2,0.4,0.335507043007754,0.335507043007754,750,0,0,incongruent,0,162.294838418087,2738.79517813378
1,104,4,566,0.5,0.5,0.5,1,2,0.4,1,571,1,1,571,1,0,0.2,NaN,-0.557863880733507,-0.557863880733507,750,0,0,incongruent,1,1142.63233320096,1154.19733205881
1,104,4,567,-0.5,0.5,0,3,NaN,0.6,3,445,1,1,445,1,0,0.4,0.6,-1.46564401292221,-1.46564401292221,750,0,0,neutral,0.1,3866.33499851456,3362.33526992227
1,104,4,568,0.5,-0.5,0.5,4,3,0.6,4,465,1,1,465,0,0,0.6,NaN,-1.32155192844781,-1.32155192844781,750,0,0,incongruent,0,2791.83888143528,3736.49578264766
1,104,4,569,-0.5,-0.5,0,3,NaN,0.6,4,699,0,1,NaN,1,0,0.6,0.2,0.364325459902633,NaN,750,0,1,neutral,0.1,6671.18134327148,691.674061094528
1,104,4,570,-0.5,0.5,0.5,2,3,0.6,3,638,0,1,NaN,0,0,0.8,0.8,-0.0751553977442774,NaN,750,1,0,incongruent,0,1218.68022536031,1974.43514149757
1,104,4,571,-0.5,-0.5,-0.5,4,4,0.6,4,357,1,1,357,0,0,0.8,0.4,-2.09964918460956,-2.09964918460956,750,1,0,congruent,0,964.303068235491,591.343427301284
1,104,4,572,-0.5,0.5,0,1,NaN,0.6,1,673,1,1,673,1,0,0.4,0.6,0.177005750085917,0.177005750085917,750,0,0,neutral,0.1,1815.02678982189,1923.2641380503
1,104,4,573,-0.5,0.5,0.5,2,3,0.6,3,834,0,0,NaN,0,0,0.4,0.6,1.33694703010481,NaN,750,1,0,incongruent,0,3853.61582411422,4715.22430184133
1,104,4,574,0.5,0.5,0,1,NaN,0.6,1,588,1,1,588,1,0,0.4,NaN,-0.43538560893027,-0.43538560893027,750,0,0,neutral,1,1379.88816115103,4470.26438652955
1,104,4,575,0.5,-0.5,-0.5,2,2,0.6,2,725,1,1,725,1,0,0.6,NaN,0.55164516971935,0.55164516971935,750,1,0,congruent,1,7521.74399204359,915.489521514803
1,104,4,576,0.5,-0.5,0,1,NaN,0.6,4,484,0,1,NaN,1,0,1,NaN,-1.18466444819713,NaN,750,0,1,neutral,1,10160.1039537148,3373.57186915097
1,104,4,577,-0.5,0.5,-0.5,2,2,0.6,2,673,1,1,673,1,0,1.4,0.4,0.177005750085917,0.177005750085917,750,1,0,congruent,0.1,1190.9206642995,3724.88302794344
1,104,4,578,-0.5,-0.5,0,3,NaN,0.6,3,614,1,1,614,0,0,1.4,0.2,-0.248065899113554,-0.248065899113554,750,0,0,neutral,0,2137.39360523352,4147.11084333139
1,104,4,579,-0.5,0.5,-0.5,2,2,0.6,2,495,1,1,495,1,0,1.4,0.6,-1.10541380173622,-1.10541380173622,750,1,0,congruent,0.1,3970.45895093137,2116.86043833858
1,104,4,580,-0.5,-0.5,-0.5,3,3,0.8,3,499,1,1,499,0,0,1.2,0.2,-1.07659538484134,-1.07659538484134,750,1,0,congruent,0,2362.4029123908,1232.85706652654
1,104,4,581,-0.5,0.5,0,1,NaN,0.8,4,471,0,1,NaN,0,0,0.8,0.6,-1.27832430310549,NaN,750,0,1,neutral,0,5756.78983787684,4704.85083491503
1,104,4,582,-0.5,0.5,-0.5,3,3,0.6,3,528,1,1,528,1,0,0.4,0.6,-0.867661862353461,-0.867661862353461,750,1,0,congruent,0.1,3922.41090303618,3064.75346041611
1,104,4,583,-0.5,-0.5,-0.5,4,4,0.8,4,459,1,1,459,1,0,0.4,0.2,-1.36477955379013,-1.36477955379013,750,1,0,congruent,0.1,946.266284455658,1802.77885025826
1,104,4,584,-0.5,0.5,0.5,1,3,0.8,3,652,0,1,NaN,0,0,0.6,0.6,0.0257090613878005,NaN,750,1,0,incongruent,0,9838.62041310093,3282.02618395828
1,104,4,585,-0.5,-0.5,0,4,NaN,0.6,4,427,1,1,427,1,0,0.4,0.4,-1.59532688894917,-1.59532688894917,750,0,0,neutral,0.1,1587.36216446075,1345.67904805435
1,104,4,586,-0.5,0.5,-0.5,2,2,0.6,2,532,1,1,532,1,0,0.6,0.6,-0.838843445458581,-0.838843445458581,750,1,0,congruent,0.1,4850.93904297144,1499.61037951426
1,104,4,587,0.5,-0.5,0.5,3,4,0.6,4,989,0,0,NaN,1,0,0.8,NaN,2.45366068478139,NaN,750,1,0,incongruent,1,1424.0691079471,1306.71599485537
1,104,4,588,-0.5,-0.5,-0.5,1,1,0.6,1,919,1,0,919,0,0,1,0.4,1.949338389121,1.949338389121,750,1,0,congruent,0,942.245628007376,3281.63781815647
1,104,4,589,-0.5,0.5,-0.5,3,3,0.6,3,855,1,0,855,0,0,0.8,0.6,1.48824371880293,1.48824371880293,750,1,0,congruent,0,3851.17118706521,5773.96180675058
1,104,4,590,0.5,-0.5,-0.5,4,4,0.4,4,334,1,1,334,0,0,0.8,NaN,-2.26535508175511,-2.26535508175511,750,1,0,congruent,0,2873.93084438831,1931.66281384149
1,104,4,591,-0.5,-0.5,0.5,2,3,0.4,3,704,0,1,NaN,0,0,0.6,0.4,0.400348481021233,NaN,750,1,0,incongruent,0,597.376179703752,3531.94346920026
1,104,4,593,0.5,-0.5,-0.5,1,1,0.4,3,496,0,1,NaN,0,0,0.4,NaN,-1.0982091975125,NaN,750,0,1,congruent,0,1149.82276561154,3807.27301387881
1,104,4,595,-0.5,0.5,0,1,NaN,0.4,1,628,1,1,628,1,0,0.4,0.4,-0.147201439981476,-0.147201439981476,750,0,0,neutral,0.1,3036.40594862678,476.756181730666
1,104,4,596,-0.5,-0.5,-0.5,4,4,0.4,4,315,1,1,315,1,0,0.6,0.4,-2.40224256200579,-2.40224256200579,750,1,0,congruent,0.1,2952.82816915757,5100.19193235049
1,104,4,597,-0.5,-0.5,0.5,1,2,0.4,3,643,0,1,NaN,0,0,0.8,0.6,-0.0391323766256781,NaN,750,0,1,incongruent,0,1997.42785022028,2508.62087416389
1,104,4,598,-0.5,0.5,0.5,3,4,0.4,3,841,1,0,841,0,0,0.4,0.6,1.38737925967085,1.38737925967085,750,0,0,incongruent,0,2737.45149629291,2661.27012036592
1,104,4,599,0.5,0.5,0,4,NaN,0.4,4,557,1,1,557,1,0,0.4,NaN,-0.658728339865585,-0.658728339865585,750,0,0,neutral,1,2429.47435252575,979.236392965423
1,104,4,600,-0.5,-0.5,-0.5,3,3,0.4,3,654,1,1,654,1,0,0.8,0.4,0.0401182698352402,0.0401182698352402,750,1,0,congruent,0.1,1769.1742038745,2498.32842530974
