subid,vers,block,trial,rewlvl,efflvl,congruency,targetresp,distractorresp,rollingefflvl,resp,rt,acc,fast,accrt,isrewarded,ismiss,runavgrrgen,runavgrrcond,zrt,acczrt,rtthreshold,isdisterror,isranderror,congruence,feedback,fcz_resp_theta,fcz_resp_theta_baseline
2,104,1,3,0.5,-0.5,-0.5,1,1,0.2,1,631,1,1,631,1,0,0,NaN,-1.06407397140921,-1.06407397140921,750,1,0,congruent,1,376.676059673227,420.137595072233
2,104,1,5,0.5,0.5,-0.5,1,1,0.2,1,604,1,1,604,1,0,0.4,NaN,-1.27190904886576,-1.27190904886576,750,1,0,congruent,1,997.256731646178,424.637933065784
2,104,1,7,-0.5,0.5,0.5,3,2,0.3,2,968,0,0,NaN,0,0,0.8,0,1.53001569906693,NaN,750,1,0,incongruent,0,966.894426570612,973.78397335327
2,104,1,8,0.5,-0.5,0,2,NaN,0.3,2,982,1,0,982,1,0,0.8,NaN,1.63778203552588,1.63778203552588,750,0,0,neutral,1,931.47550680704,920.676967424581
2,104,1,9,0.5,0.5,-0.5,4,4,0.3,1,764,0,0,NaN,0,0,0.8,NaN,-0.0402937750491929,NaN,750,0,1,congruent,0,2888.55506619993,578.820879481985
2,104,1,10,0.5,-0.5,-0.5,2,2,0.3,2,996,1,0,996,1,0,0.8,NaN,1.74554837198483,1.74554837198483,750,1,0,congruent,1,535.964089217051,757.374244839905
2,104,1,11,0.5,0.5,0.5,3,4,0.3,3,501,1,1,501,1,0,0.8,NaN,-2.06476138138517,-2.06476138138517,750,0,0,incongruent,1,1062.08043799527,311.061553438085
2,104,1,12,-0.5,0.5,0.5,1,2,0.4,1,721,1,1,721,1,0,1.2,0,-0.371290379887395,-0.371290379887395,750,0,0,incongruent,0.1,439.585892763743,419.60151308781
2,104,1,13,-0.5,-0.5,0,2,NaN,0.4,2,910,1,0,910,1,0,1.4,0,1.08355516230842,1.08355516230842,750,0,0,neutral,0.1,1607.35456685683,1157.64718722078
2,104,1,14,-0.5,-0.5,-0.5,1,1,0.4,1,597,1,1,597,1,0,1.2,0.2,-1.32579221709523,-1.32579221709523,750,1,0,congruent,0.1,2243.87677191707,277.993013140375
2,104,1,17,0.5,0.5,-0.5,2,2,0.4,2,595,1,1,595,1,0,0.6,NaN,-1.34118740801794,-1.34118740801794,750,1,0,congruent,1,439.24290507816,700.064629262988
2,104,1,18,0.5,-0.5,0.5,4,3,0.6,4,960,1,0,960,0,0,0.8,NaN,1.4684349353761,1.4684349353761,750,0,0,incongruent,0,1311.99199080425,2576.3705530001
2,104,1,19,-0.5,-0.5,-0.5,2,2,0.6,2,954,1,0,954,1,0,0.6,0.4,1.42224936260798,1.42224936260798,750,1,0,congruent,0.1,619.57604727788,918.654732445945
2,104,1,20,-0.5,-0.5,0.5,1,3,0.6,1,936,1,0,936,1,0,0.6,0.6,1.28369264430362,1.28369264430362,750,0,0,incongruent,0.1,2371.26399250207,641.706266285796
2,104,1,21,-0.5,0.5,0.5,3,4,0.6,3,822,1,0,822,0,0,0.8,0.2,0.406166761709312,0.406166761709312,750,0,0,incongruent,0,944.806926619664,851.691975242926
2,104,1,23,0.5,0.5,-0.5,3,3,0.4,3,733,1,1,733,1,0,0.4,NaN,-0.278919234351153,-0.278919234351153,750,1,0,congruent,1,979.020232116979,606.463818007055
2,104,1,24,0.5,0.5,0,1,NaN,0.4,1,777,1,0,777,0,0,0.8,NaN,0.0597749659484031,0.0597749659484031,750,0,0,neutral,0,226.122394111365,143.435110011014
2,104,1,25,0.5,-0.5,-0.5,2,2,0.4,2,715,1,1,715,0,0,0.6,NaN,-0.417475952655516,-0.417475952655516,750,1,0,congruent,0,1287.07301936701,1107.81322582044
2,104,1,26,-0.5,0.5,0.5,4,3,0.4,3,873,0,0,NaN,0,0,0.4,0.2,0.798744130238343,NaN,750,1,0,incongruent,0,332.699367157299,2063.71009798069
2,104,1,27,0.5,-0.5,0.5,3,2,0.4,4,868,0,0,NaN,1,0,0.4,NaN,0.760256152931575,NaN,750,0,1,incongruent,1,865.419114552019,657.374096989944
2,104,1,28,-0.5,0.5,0,1,NaN,0.4,1,750,1,1,750,0,0,0.8,0.2,-0.148060111508142,-0.148060111508142,750,0,0,neutral,0,1445.36124886983,627.345249896866
2,104,1,29,-0.5,0.5,-0.5,2,2,0.2,2,750,1,1,750,0,0,0.4,0.2,-0.148060111508142,-0.148060111508142,750,1,0,congruent,0,544.076009599431,326.633330085507
2,104,1,30,-0.5,0.5,0.5,3,1,0.2,3,830,1,0,830,0,0,0.4,0,0.467747525400141,0.467747525400141,750,0,0,incongruent,0,443.485878449264,735.940640479346
2,104,1,31,-0.5,-0.5,0,4,NaN,0,1,627,0,1,NaN,0,0,0.4,0.8,-1.09486435325463,NaN,750,0,1,neutral,0,1784.98344425494,854.69696352306
2,104,1,32,0.5,0.5,-0.5,2,2,0,3,937,0,0,NaN,0,0,0.4,NaN,1.29139023976497,NaN,750,0,1,congruent,0,640.262430799667,898.130387650954
2,104,1,33,-0.5,-0.5,-0.5,1,1,0,1,694,1,1,694,0,0,0,0.6,-0.579125457343941,-0.579125457343941,750,1,0,congruent,0,679.630822297005,1202.43525554671
2,104,1,34,0.5,0.5,0,2,NaN,0,2,962,1,0,962,0,0,0,NaN,1.48383012629881,1.48383012629881,750,0,0,neutral,0,1018.41318616665,793.381473259102
2,104,1,35,-0.5,-0.5,-0.5,3,3,0,3,812,1,0,812,0,0,0,0.4,0.329190807095777,0.329190807095777,750,1,0,congruent,0,351.933108288716,1374.38208583612
2,104,1,36,0.5,-0.5,0,2,NaN,0,2,809,1,0,809,0,0,0,NaN,0.306098020711716,0.306098020711716,750,0,0,neutral,0,931.386878395991,944.387075482829
2,104,1,37,-0.5,-0.5,-0.5,1,1,0,1,688,1,1,688,0,0,0,0.2,-0.625311030112062,-0.625311030112062,750,1,0,congruent,0,557.95670347975,926.247705249067
2,104,1,38,-0.5,-0.5,0,3,NaN,0,2,821,0,0,NaN,0,0,0,0,0.398469166247959,NaN,750,0,1,neutral,0,708.822162878859,341.618730019704
2,104,1,39,0.5,0.5,-0.5,1,1,0,1,803,1,0,803,0,0,0,NaN,0.259912447943595,0.259912447943595,750,1,0,congruent,0,542.256268243802,330.05132788603
2,104,1,40,0.5,0.5,0.5,2,3,0,3,791,0,0,NaN,0,0,0,NaN,0.167541302407353,NaN,750,1,0,incongruent,0,2437.73441383275,382.345741775787
2,104,1,41,-0.5,0.5,0,4,NaN,0,1,784,0,0,NaN,0,0,0,0,0.113658134177878,NaN,750,0,1,neutral,0,3911.79737611787,1021.16687349834
2,104,1,42,-0.5,0.5,-0.5,1,1,0,1,477,1,1,477,1,0,0,0,-2.24950367245766,-2.24950367245766,750,1,0,congruent,0.1,220.140387604162,625.507670048763
2,104,1,43,-0.5,0.5,-0.5,4,4,0.2,3,976,0,0,NaN,0,0,0.2,0.2,1.59159646275776,NaN,750,0,1,congruent,0,3000.19195918971,766.150755240829
2,104,1,44,0.5,-0.5,0,1,NaN,0.2,1,668,1,1,668,0,0,0.2,NaN,-0.779262939339133,-0.779262939339133,750,0,0,neutral,0,316.978907883335,280.518442394915
2,104,1,45,-0.5,0.5,0.5,4,2,0.2,4,947,1,0,947,0,0,0.2,0.2,1.3683661943785,1.3683661943785,750,0,0,incongruent,0,420.111088905811,1220.65098524125
2,104,1,47,0.5,0.5,0,3,NaN,0.2,3,786,1,0,786,0,0,0.2,NaN,0.129053325100585,0.129053325100585,750,0,0,neutral,0,860.582794807025,721.260030809278
2,104,1,48,0.5,-0.5,-0.5,2,2,0.2,2,810,1,0,810,0,0,0,NaN,0.31379561617307,0.31379561617307,750,1,0,congruent,0,509.969786702115,1449.82134119256
2,104,1,51,-0.5,0.5,0,4,NaN,0,2,757,0,0,NaN,0,0,0,0.2,-0.0941769432786677,NaN,750,0,1,neutral,0,466.902063449762,836.09150703913
2,104,1,53,-0.5,-0.5,0.5,4,1,0,4,927,1,0,927,0,0,0,0,1.21441428515143,1.21441428515143,750,0,0,incongruent,0,1471.80445913435,187.93493303774
2,104,1,54,0.5,0.5,0.5,3,4,0,3,959,1,0,959,0,0,0,NaN,1.46073733991475,1.46073733991475,750,0,0,incongruent,0,1136.21881915447,494.127700001563
2,104,1,55,-0.5,0.5,0.5,4,1,0,1,908,0,0,NaN,0,0,0,0.2,1.06815997138572,NaN,750,1,0,incongruent,0,1105.54875873995,568.555572302913
2,104,1,56,0.5,-0.5,0,2,NaN,0,2,999,1,0,999,0,0,0,NaN,1.76864115836889,1.76864115836889,750,0,0,neutral,0,867.337125046907,246.121401997089
2,104,1,57,0.5,-0.5,0.5,1,4,0,3,993,0,0,NaN,0,0,0,NaN,1.72245558560077,NaN,750,0,1,incongruent,0,203.258677117374,336.460428361966
2,104,1,58,0.5,0.5,0,4,NaN,0,3,830,0,0,NaN,0,0,0,NaN,0.467747525400141,NaN,750,0,1,neutral,0,1106.08991760024,788.624455367608
2,104,1,59,-0.5,0.5,-0.5,3,3,0,3,612,1,1,612,1,0,0,0,-1.21032828517493,-1.21032828517493,750,1,0,congruent,0.1,882.236521522986,929.452983017506
2,104,1,60,0.5,0.5,0,2,NaN,0.2,2,816,1,0,816,0,0,0.2,NaN,0.359981188941191,0.359981188941191,750,0,0,neutral,0,383.100399875921,453.469714808012
2,104,1,61,0.5,0.5,-0.5,4,4,0.2,2,992,0,0,NaN,0,0,0.2,NaN,1.71475799013941,NaN,750,0,1,congruent,0,274.496798373752,413.396566243602
2,104,1,62,-0.5,0.5,-0.5,2,2,0.2,3,863,0,0,NaN,0,0,0.2,0.2,0.721768175624807,NaN,750,0,1,congruent,0,594.686122870822,688.618056762204
2,104,1,63,-0.5,0.5,0,3,NaN,0.2,3,840,1,0,840,0,0,0.2,0.2,0.544723480013676,0.544723480013676,750,0,0,neutral,0,522.866326066303,307.056140919457
2,104,1,64,0.5,-0.5,-0.5,4,4,0.2,3,746,0,1,NaN,0,0,0.2,NaN,-0.178850493353557,NaN,750,0,1,congruent,0,771.960439793355,545.057448547111
2,104,1,66,-0.5,0.5,-0.5,4,4,0.2,3,812,0,0,NaN,0,0,0.2,0.2,0.329190807095777,NaN,750,0,1,congruent,0,513.82700253929,1174.81502170744
2,104,1,67,0.5,-0.5,-0.5,3,3,0,2,731,0,1,NaN,0,0,0.2,NaN,-0.29431442527386,NaN,750,0,1,congruent,0,457.604423282912,234.079795549502
2,104,1,68,-0.5,0.5,0.5,2,4,0,3,750,0,1,NaN,0,0,0.2,0.2,-0.148060111508142,NaN,750,0,1,incongruent,0,794.087752466715,446.374595818066
2,104,1,70,0.5,-0.5,0.5,3,1,0,1,846,0,0,NaN,0,0,0.2,NaN,0.590909052781797,NaN,750,1,0,incongruent,0,2503.52729815321,1409.00987427002
2,104,1,71,-0.5,0.5,0,2,NaN,0,3,777,0,0,NaN,0,0,0,0.2,0.0597749659484031,NaN,750,0,1,neutral,0,931.668793180828,581.389437224971
2,104,1,72,-0.5,-0.5,-0.5,1,1,0,1,746,1,1,746,0,0,0,0.2,-0.178850493353557,-0.178850493353557,750,1,0,congruent,0,166.434971788286,286.846624170478
2,104,1,73,0.5,-0.5,0,4,NaN,0,3,844,0,0,NaN,0,0,0,NaN,0.57551386185909,NaN,750,0,1,neutral,0,400.172775618302,985.745414945034
2,104,1,74,-0.5,0.5,-0.5,3,3,0,4,818,0,0,NaN,0,0,0,0,0.375376379863898,NaN,750,0,1,congruent,0,738.843906929213,1064.86583436895
2,104,1,75,-0.5,-0.5,0.5,4,2,0,3,973,0,0,NaN,0,0,0,0.2,1.5685036763737,NaN,750,0,1,incongruent,0,2031.24193988442,680.479640635548
2,104,1,76,0.5,-0.5,0.5,3,1,0,1,949,0,0,NaN,0,0,0,NaN,1.38376138530121,NaN,750,1,0,incongruent,0,1685.15629197333,335.224891199714
2,104,1,78,0.5,0.5,0,3,NaN,0,3,970,1,0,970,0,0,0,NaN,1.54541088998964,1.54541088998964,750,0,0,neutral,0,516.022230042983,615.881965511885
2,104,1,79,-0.5,-0.5,-0.5,2,2,0,2,840,1,0,840,0,0,0,0.2,0.544723480013676,0.544723480013676,750,1,0,congruent,0,266.006648428705,545.731917132862
2,104,1,80,0.5,-0.5,0,1,NaN,0,1,419,1,1,419,0,0,0,NaN,-2.69596420921616,-2.69596420921616,750,0,0,neutral,0,2862.52906433908,815.719182550212
2,104,1,81,-0.5,0.5,-0.5,2,2,0,2,737,1,1,737,1,0,0,0,-0.248128852505738,-0.248128852505738,750,1,0,congruent,0.1,662.882070007931,913.457272342266
2,104,1,82,0.5,-0.5,0.5,3,4,0.2,3,692,1,1,692,0,0,0.2,NaN,-0.594520648266648,-0.594520648266648,750,0,0,incongruent,0,655.721601385252,1547.6191238549
2,104,1,83,-0.5,0.5,0.5,2,3,0.2,2,805,1,0,805,0,0,0.2,0.2,0.275307638866302,0.275307638866302,750,0,0,incongruent,0,410.610809355168,1069.11448426802
2,104,1,84,-0.5,-0.5,0,1,NaN,0.2,1,712,1,1,712,1,0,0.2,0.2,-0.440568739039577,-0.440568739039577,750,0,0,neutral,0.1,403.459117563841,1025.48730994735
2,104,1,86,0.5,-0.5,0.5,3,1,0.2,1,580,0,1,NaN,0,0,0.4,NaN,-1.45665133993824,NaN,750,1,0,incongruent,0,775.035878122416,654.251933244906
2,104,1,87,-0.5,-0.5,0.5,1,4,0.2,1,650,1,1,650,0,0,0.2,0.2,-0.917819657643496,-0.917819657643496,750,0,0,incongruent,0,532.439268671385,118.393696700243
2,104,1,88,0.5,0.5,-0.5,3,3,0.2,3,843,1,0,843,0,0,0.2,NaN,0.567816266397737,0.567816266397737,750,1,0,congruent,0,487.069330556944,153.014038307018
2,104,1,89,0.5,0.5,0.5,1,4,0.2,1,690,1,1,690,1,0,0.2,NaN,-0.609915839189355,-0.609915839189355,750,0,0,incongruent,1,719.131967216806,314.703344416879
2,104,1,90,0.5,0.5,0,2,NaN,0.4,2,839,1,0,839,0,0,0.4,NaN,0.537025884552322,0.537025884552322,750,0,0,neutral,0,743.905716235177,768.914162324394
2,104,1,93,0.5,0.5,0,1,NaN,0.2,1,762,1,0,762,0,0,0.4,NaN,-0.0556889659719,-0.0556889659719,750,0,0,neutral,0,1607.86436823978,671.4609211838
2,104,1,94,-0.5,-0.5,-0.5,4,4,0.2,3,985,0,0,NaN,0,0,0.4,0.2,1.66087482190994,NaN,750,0,1,congruent,0,300.099394331052,540.583679181594
2,104,1,97,-0.5,0.5,-0.5,4,4,0,4,724,1,1,724,1,0,0,0.2,-0.348197593503334,-0.348197593503334,750,1,0,congruent,0.1,973.564284941111,159.189505476843
2,104,1,98,-0.5,0.5,-0.5,3,3,0.2,3,812,1,0,812,0,0,0.2,0.4,0.329190807095777,0.329190807095777,750,1,0,congruent,0,1190.09551782263,525.049908311521
2,104,1,99,0.5,-0.5,0,2,NaN,0.2,2,943,1,0,943,0,0,0.2,NaN,1.33757581253309,1.33757581253309,750,0,0,neutral,0,1464.48775874106,343.931591299145
2,104,1,100,-0.5,0.5,-0.5,3,3,0.2,1,642,0,1,NaN,0,0,0.2,0.4,-0.979400421334325,NaN,750,0,1,congruent,0,629.554572569941,414.478530983168
2,104,1,101,0.5,0.5,0.5,1,4,0.2,1,667,1,1,667,1,0,0.2,NaN,-0.786960534800486,-0.786960534800486,750,0,0,incongruent,1,1284.74115378969,540.837313069795
2,104,1,102,0.5,0.5,0.5,3,1,0.4,3,934,1,0,934,0,0,0.6,NaN,1.26829745338091,1.26829745338091,750,0,0,incongruent,0,255.152769939486,1105.43507960346
2,104,1,105,-0.5,0.5,0,1,NaN,0.2,1,619,1,1,619,1,0,0.4,0.2,-1.15644511694546,-1.15644511694546,750,0,0,neutral,0.1,246.881358983914,915.896875175965
2,104,1,107,-0.5,0.5,0,2,NaN,0.4,3,807,0,0,NaN,0,0,0.2,0.2,0.290702829789009,NaN,750,0,1,neutral,0,1069.7397780252,1713.05096024905
2,104,1,110,-0.5,0.5,0,4,NaN,0.2,3,882,0,0,NaN,0,0,0.2,0.2,0.868022489390525,NaN,750,0,1,neutral,0,996.437446254387,1689.40533923465
2,104,1,112,0.5,-0.5,-0.5,1,1,0.2,1,599,1,1,599,0,0,0,NaN,-1.31039702617253,-1.31039702617253,750,1,0,congruent,0,654.510134700026,259.362671609823
2,104,1,116,-0.5,0.5,-0.5,3,3,0.2,2,826,0,0,NaN,0,0,0,0.2,0.436957143554726,NaN,750,0,1,congruent,0,245.298559397448,1646.0965746271
2,104,1,117,-0.5,-0.5,0,1,NaN,0,1,579,1,1,579,0,0,0,0,-1.4643489353996,-1.4643489353996,750,0,0,neutral,0,782.625671392822,745.942018780155
2,104,1,118,-0.5,0.5,0.5,2,4,0,3,801,0,0,NaN,0,0,0,0.2,0.244517257020888,NaN,750,0,1,incongruent,0,265.126714404381,1175.04581382101
2,104,1,119,-0.5,-0.5,0.5,1,2,0,1,888,1,0,888,0,0,0,0,0.914208062158646,0.914208062158646,750,0,0,incongruent,0,1263.08079371735,564.862798982746
2,104,1,120,0.5,-0.5,0.5,4,3,0,3,855,0,0,NaN,0,0,0,NaN,0.660187411933979,NaN,750,1,0,incongruent,0,1202.12922026562,306.743977470243
2,104,1,121,0.5,0.5,-0.5,2,2,0,2,857,1,0,857,0,0,0,NaN,0.675582602856686,0.675582602856686,750,1,0,congruent,0,2058.03976316154,261.165667203416
2,104,1,124,0.5,-0.5,0,2,NaN,0,2,858,1,0,858,0,0,0,NaN,0.68328019831804,0.68328019831804,750,0,0,neutral,0,628.067914483036,376.054840355753
2,104,1,125,-0.5,0.5,0.5,1,3,0,4,801,0,0,NaN,0,0,0,0,0.244517257020888,NaN,750,0,1,incongruent,0,2111.85374202451,354.197304616151
2,104,1,127,0.5,-0.5,0,1,NaN,0,1,589,1,1,589,0,0,0,NaN,-1.38737298078606,-1.38737298078606,750,0,0,neutral,0,846.753190553705,820.049933170605
2,104,1,128,-0.5,0.5,-0.5,2,2,0,2,813,1,0,813,0,0,0,0,0.33688840255713,0.33688840255713,750,1,0,congruent,0,913.758507766665,891.540038712109
2,104,1,129,-0.5,-0.5,0,3,NaN,0,3,884,1,0,884,0,0,0,0,0.883417680313232,0.883417680313232,750,0,0,neutral,0,535.452901373535,386.350129707253
2,104,1,131,0.5,-0.5,0,2,NaN,0,1,968,0,0,NaN,0,0,0,NaN,1.53001569906693,NaN,750,0,1,neutral,0,2126.97367851636,431.859220584428
2,104,1,133,-0.5,-0.5,-0.5,3,3,0,3,743,1,1,743,0,0,0,0,-0.201943279737617,-0.201943279737617,750,1,0,congruent,0,436.219421900712,439.6558957307
2,104,1,134,0.5,-0.5,0,4,NaN,0,2,903,0,0,NaN,0,0,0,NaN,1.02967199407895,NaN,750,0,1,neutral,0,510.821483575762,1025.20715254061
2,104,1,135,-0.5,-0.5,-0.5,1,1,0,1,735,1,1,735,0,0,0,0,-0.263524043428446,-0.263524043428446,750,1,0,congruent,0,364.59018584968,1517.93484406743
2,104,1,137,0.5,0.5,-0.5,4,4,0,3,996,0,0,NaN,0,0,0,NaN,1.74554837198483,NaN,750,0,1,congruent,0,926.300487207841,893.46844302823
2,104,1,138,-0.5,-0.5,-0.5,2,2,0,2,818,1,0,818,0,0,0,0,0.375376379863898,0.375376379863898,750,1,0,congruent,0,376.831906627843,736.999632196785
2,104,1,139,-0.5,0.5,0.5,1,4,0,1,956,1,0,956,0,0,0,0,1.43764455353069,1.43764455353069,750,0,0,incongruent,0,5730.43558238059,889.460150084695
2,104,1,141,-0.5,-0.5,-0.5,1,1,0,1,672,1,1,672,0,0,0,0,-0.748472557493718,-0.748472557493718,750,1,0,congruent,0,419.873955724974,265.446457671603
2,104,1,142,-0.5,0.5,0.5,2,4,0,2,515,1,1,515,1,0,0,0,-1.95699504492622,-1.95699504492622,750,0,0,incongruent,0.1,1408.45904031549,2009.71200993029
2,104,1,143,0.5,-0.5,0.5,4,3,0.2,4,433,1,1,433,0,0,0.2,NaN,-2.58819787275721,-2.58819787275721,750,0,0,incongruent,0,1196.05740042581,387.240782283637
2,104,1,145,-0.5,-0.5,-0.5,1,1,0.2,1,666,1,1,666,0,0,0.2,0,-0.79465813026184,-0.79465813026184,750,1,0,congruent,0,1116.73403499321,370.193787557453
2,104,1,146,0.5,-0.5,-0.5,4,4,0.2,1,886,0,0,NaN,0,0,0.2,NaN,0.898812871235939,NaN,750,0,1,congruent,0,776.50668224314,761.066519475281
2,104,1,148,-0.5,-0.5,0,4,NaN,0.2,2,849,0,0,NaN,0,0,0,0,0.614001839165858,NaN,750,0,1,neutral,0,251.183189166968,673.850961860333
2,104,1,149,0.5,-0.5,-0.5,1,1,0.2,1,681,1,1,681,0,0,0,NaN,-0.679194198341537,-0.679194198341537,750,1,0,congruent,0,753.268093461317,880.779228273563
2,104,1,150,-0.5,0.5,0,3,NaN,0.2,3,902,1,0,902,0,0,0,0.2,1.0219743986176,1.0219743986176,750,0,0,neutral,0,422.951872607602,1133.64678549809
2,104,2,152,0.5,-0.5,0,2,NaN,0.2,2,801,1,0,801,0,0,0,NaN,0.244517257020888,0.244517257020888,750,0,0,neutral,0,179.703847627369,1449.35045273367
2,104,2,153,-0.5,0.5,-0.5,3,3,0.2,3,411,1,1,411,1,0,0,0.2,-2.75754497290699,-2.75754497290699,750,1,0,congruent,0.1,271.154569732938,817.770728174301
2,104,2,154,-0.5,-0.5,-0.5,4,4,0.4,4,336,1,1,336,0,0,0.2,0,-3.33486463250851,-3.33486463250851,750,1,0,congruent,0,1665.57400007559,299.626755085694
2,104,2,155,0.5,-0.5,-0.5,2,2,0.4,2,570,1,1,570,0,0,0.2,NaN,-1.53362729455178,-1.53362729455178,750,1,0,congruent,0,172.149746147893,906.094263438692
2,104,2,156,0.5,-0.5,0.5,4,3,0.4,4,652,1,1,652,1,0,0.2,NaN,-0.902424466720789,-0.902424466720789,750,0,0,incongruent,1,639.918511307413,659.839457900576
2,104,2,157,0.5,-0.5,0,2,NaN,0.4,2,593,1,1,593,0,0,0.6,NaN,-1.35658259894065,-1.35658259894065,750,0,0,neutral,0,311.929880461945,649.704459146962
2,104,2,158,-0.5,0.5,-0.5,1,1,0.4,1,588,1,1,588,1,0,0.6,0.4,-1.39507057624742,-1.39507057624742,750,1,0,congruent,0.1,1060.10256971344,1102.11484001543
2,104,2,159,0.5,-0.5,0.5,3,4,0.4,3,835,1,0,835,0,0,0.6,NaN,0.506235502706908,0.506235502706908,750,0,0,incongruent,0,780.08462401216,2405.45151797353
2,104,2,160,0.5,-0.5,-0.5,2,2,0.4,2,754,1,0,754,1,0,0.6,NaN,-0.117269729662728,-0.117269729662728,750,1,0,congruent,1,1496.17742177183,1860.53519266915
2,104,2,161,-0.5,0.5,0,3,NaN,0.4,2,920,0,0,NaN,0,0,1,0.6,1.16053111692196,NaN,750,0,1,neutral,0,419.739734646315,134.690740809066
2,104,2,162,-0.5,-0.5,-0.5,4,4,0.4,3,863,0,0,NaN,0,0,0.6,0,0.721768175624807,NaN,750,0,1,congruent,0,1684.38136541877,927.83574931463
2,104,2,163,-0.5,-0.5,-0.5,1,1,0.4,1,686,1,1,686,0,0,0.6,0,-0.640706221034769,-0.640706221034769,750,1,0,congruent,0,762.824148341127,411.766454376838
2,104,2,165,-0.5,-0.5,0,3,NaN,0.4,3,838,1,0,838,0,0,0.4,0,0.529328289090969,0.529328289090969,750,0,0,neutral,0,537.061125239261,898.423306843096
2,104,2,168,-0.5,0.5,-0.5,3,3,0.4,3,698,1,1,698,1,0,0,0.4,-0.548335075498526,-0.548335075498526,750,1,0,congruent,0.1,2049.99797491682,578.598145496613
2,104,2,169,-0.5,-0.5,-0.5,2,2,0.4,2,667,1,1,667,0,0,0.2,0,-0.786960534800486,-0.786960534800486,750,1,0,congruent,0,736.105561227666,432.81959641746
2,104,2,170,-0.5,-0.5,-0.5,1,1,0.4,1,619,1,1,619,1,0,0.2,0,-1.15644511694546,-1.15644511694546,750,1,0,congruent,0.1,510.831175706692,1169.90030460384
2,104,2,173,0.5,0.5,0,1,NaN,0.2,1,680,1,1,680,1,0,0.4,NaN,-0.68689179380289,-0.68689179380289,750,0,0,neutral,1,364.27418333002,676.408684688297
2,104,2,174,0.5,-0.5,0.5,4,3,0.4,3,843,0,0,NaN,0,0,0.6,NaN,0.567816266397737,NaN,750,1,0,incongruent,0,403.040768696035,166.467178078388
2,104,2,175,0.5,0.5,0,1,NaN,0.4,1,619,1,1,619,1,0,0.6,NaN,-1.15644511694546,-1.15644511694546,750,0,0,neutral,1,257.72514276412,464.499227238513
2,104,2,176,0.5,-0.5,-0.5,3,3,0.6,3,765,1,0,765,1,0,0.8,NaN,-0.0325961795878394,-0.0325961795878394,750,1,0,congruent,1,398.487407470036,523.858339146244
2,104,2,177,-0.5,-0.5,-0.5,1,1,0.6,1,589,1,1,589,1,0,1.2,0.2,-1.38737298078606,-1.38737298078606,750,1,0,congruent,0.1,408.734369482621,313.845220606207
2,104,2,178,-0.5,-0.5,-0.5,2,2,0.6,2,729,1,1,729,1,0,1.4,0.4,-0.309709616196567,-0.309709616196567,750,1,0,congruent,0.1,1081.21114583902,3172.22158619276
2,104,2,179,-0.5,0.5,0.5,3,4,0.6,3,921,1,0,921,0,0,1.2,0.6,1.16822871238331,1.16822871238331,750,0,0,incongruent,0,1045.71477277669,1376.26294328425
2,104,2,181,0.5,0.5,-0.5,4,4,0.6,3,910,0,0,NaN,0,0,1.2,NaN,1.08355516230842,NaN,750,0,1,congruent,0,501.277344624786,1284.73625805978
2,104,2,182,0.5,-0.5,0,3,NaN,0.4,3,652,1,1,652,1,0,0.8,NaN,-0.902424466720789,-0.902424466720789,750,0,0,neutral,1,760.804250531456,580.666502243889
2,104,2,183,-0.5,-0.5,-0.5,2,2,0.4,2,743,1,1,743,0,0,1,0.6,-0.201943279737617,-0.201943279737617,750,1,0,congruent,0,1615.72173491609,530.436189145884
2,104,2,184,0.5,-0.5,0.5,3,1,0.4,1,755,0,0,NaN,0,0,0.8,NaN,-0.109572134201375,NaN,750,1,0,incongruent,0,832.843551232757,1220.98239376027
2,104,2,185,0.5,-0.5,0.5,4,2,0.4,2,894,0,0,NaN,1,0,0.8,NaN,0.960393634926767,NaN,750,1,0,incongruent,1,514.615950606504,1420.73523772312
2,104,2,187,0.5,-0.5,-0.5,1,1,0.4,1,744,1,1,744,0,0,0.8,NaN,-0.194245684276264,-0.194245684276264,750,1,0,congruent,0,1310.57153683335,527.148030850481
2,104,2,188,0.5,0.5,-0.5,4,4,0.4,4,827,1,0,827,0,0,0.4,NaN,0.44465473901608,0.44465473901608,750,1,0,congruent,0,1670.58224877333,697.616012303957
2,104,2,189,0.5,0.5,0,3,NaN,0.2,2,897,0,0,NaN,0,0,0.4,NaN,0.983486421310828,NaN,750,0,1,neutral,0,360.840053547283,382.765860093861
2,104,2,190,0.5,0.5,-0.5,1,1,0,1,781,1,0,781,0,0,0.4,NaN,0.0905653477938172,0.0905653477938172,750,1,0,congruent,0,541.115245383596,395.012674140728
2,104,2,192,0.5,0.5,0.5,3,1,0,1,982,0,0,NaN,0,0,0,NaN,1.63778203552588,NaN,750,1,0,incongruent,0,1209.33134283908,1360.17021756657
2,104,2,193,0.5,0.5,-0.5,2,2,0,2,690,1,1,690,1,0,0,NaN,-0.609915839189355,-0.609915839189355,750,1,0,congruent,1,434.960945404359,283.412785406265
2,104,2,194,0.5,-0.5,0.5,3,1,0.2,3,709,1,1,709,0,0,0.4,NaN,-0.463661525423637,-0.463661525423637,750,0,0,incongruent,0,790.50721598241,458.156434377851
2,104,2,196,0.5,-0.5,0.5,4,1,0.2,3,979,0,0,NaN,0,0,0.4,NaN,1.61468924914182,NaN,750,0,1,incongruent,0,906.64031262701,2265.87911054541
2,104,2,197,-0.5,0.5,0,1,NaN,0.2,1,433,1,1,433,1,0,0.4,0.4,-2.58819787275721,-2.58819787275721,750,0,0,neutral,0.1,1077.86681842714,470.349385461342
2,104,2,198,-0.5,-0.5,-0.5,2,2,0.4,2,725,1,1,725,0,0,0.6,0.6,-0.340499998041981,-0.340499998041981,750,1,0,congruent,0,359.992063310259,497.770174601431
2,104,2,201,0.5,0.5,0.5,3,1,0.4,1,616,0,1,NaN,0,0,0.2,NaN,-1.17953790332952,NaN,750,1,0,incongruent,0,540.114878430449,426.007456797879
2,104,2,202,-0.5,-0.5,-0.5,4,4,0.2,4,413,1,1,413,1,0,0.2,0.6,-2.74214978198428,-2.74214978198428,750,1,0,congruent,0.1,214.051533432584,2187.92138916357
2,104,2,203,-0.5,-0.5,-0.5,3,3,0.2,3,753,1,0,753,0,0,0.2,0.6,-0.124967325124082,-0.124967325124082,750,1,0,congruent,0,449.98309976292,1127.21002955376
2,104,2,204,-0.5,-0.5,-0.5,2,2,0.2,2,803,1,0,803,0,0,0.2,0.4,0.259912447943595,0.259912447943595,750,1,0,congruent,0,1403.37530089099,214.310763462644
2,104,2,205,-0.5,-0.5,-0.5,3,3,0.2,2,959,0,0,NaN,1,0,0.2,0.2,1.46073733991475,NaN,750,0,1,congruent,0.1,1711.6014513259,604.98289462769
2,104,2,206,0.5,-0.5,0,2,NaN,0.2,1,685,0,1,NaN,0,0,0.4,NaN,-0.648403816496122,NaN,750,0,1,neutral,0,1359.04221566378,1032.04901683717
2,104,2,207,0.5,-0.5,-0.5,4,4,0.2,2,716,0,1,NaN,0,0,0.4,NaN,-0.409778357194163,NaN,750,0,1,congruent,0,434.468134809543,593.164284298744
2,104,2,208,-0.5,0.5,0,1,NaN,0.2,1,872,1,0,872,0,0,0.2,0.2,0.791046534776989,0.791046534776989,750,0,0,neutral,0,1022.36797079024,1600.67606902382
2,104,2,210,-0.5,-0.5,-0.5,1,1,0.2,1,621,1,1,621,1,0,0.2,0.4,-1.14104992602275,-1.14104992602275,750,1,0,congruent,0.1,777.671605109522,1711.86810523476
2,104,2,211,0.5,-0.5,-0.5,2,2,0.2,2,865,1,0,865,0,0,0.2,NaN,0.737163366547514,0.737163366547514,750,1,0,congruent,0,744.510447574634,130.629477341951
2,104,2,212,0.5,0.5,0,3,NaN,0.2,3,836,1,0,836,0,0,0.2,NaN,0.513933098168262,0.513933098168262,750,0,0,neutral,0,660.9013121125,651.462655466235
2,104,2,213,0.5,-0.5,-0.5,4,4,0,2,929,0,0,NaN,0,0,0.2,NaN,1.22980947607414,NaN,750,0,1,congruent,0,1142.51010286424,422.67800940185
2,104,2,214,0.5,-0.5,0.5,1,3,0,1,674,1,1,674,0,0,0.2,NaN,-0.733077366571011,-0.733077366571011,750,0,0,incongruent,0,2640.53236243608,692.236396145365
2,104,2,215,-0.5,-0.5,-0.5,2,2,0,2,967,1,0,967,0,0,0.2,0.4,1.52231810360558,1.52231810360558,750,1,0,congruent,0,830.540425193359,330.451460978549
2,104,2,216,-0.5,-0.5,-0.5,4,4,0,4,874,1,0,874,0,0,0,0.4,0.806441725699696,0.806441725699696,750,1,0,congruent,0,695.148507131843,1297.97023167199
2,104,2,218,0.5,-0.5,-0.5,1,1,0,1,406,1,1,406,0,0,0,NaN,-2.79603295021376,-2.79603295021376,750,1,0,congruent,0,1588.99174259237,519.826209045929
2,104,2,221,0.5,0.5,0,2,NaN,0,3,961,0,0,NaN,0,0,0,NaN,1.47613253083745,NaN,750,0,1,neutral,0,3219.80332360225,574.048938136351
2,104,2,224,0.5,0.5,0.5,3,4,0,2,958,0,0,NaN,0,0,0,NaN,1.45303974445339,NaN,750,0,1,incongruent,0,672.793756270998,639.195608439649
2,104,2,227,0.5,0.5,0.5,3,1,0,1,665,0,1,NaN,0,0,0,NaN,-0.802355725723193,NaN,750,1,0,incongruent,0,1630.5381321233,751.581359822537
2,104,2,228,0.5,0.5,0,4,NaN,0,3,897,0,0,NaN,0,0,0,NaN,0.983486421310828,NaN,750,0,1,neutral,0,876.719805576113,1415.66474322757
2,104,2,229,0.5,0.5,-0.5,3,3,0,3,593,1,1,593,1,0,0,NaN,-1.35658259894065,-1.35658259894065,750,1,0,congruent,1,191.821251985933,830.796452452768
2,104,2,230,-0.5,0.5,-0.5,4,4,0.2,1,895,0,0,NaN,0,0,0.4,0.2,0.968091230388121,NaN,750,0,1,congruent,0,416.60993780784,1011.82502287253
2,104,2,231,0.5,0.5,0.5,2,3,0.2,4,799,0,0,NaN,0,0,0.4,NaN,0.229122066098181,NaN,750,0,1,incongruent,0,372.937963647419,1125.87981137551
2,104,2,232,-0.5,-0.5,0,1,NaN,0.2,1,473,1,1,473,0,0,0.4,0.2,-2.28029405430307,-2.28029405430307,750,0,0,neutral,0,1702.92836601115,1292.03103804174
2,104,2,233,-0.5,-0.5,-0.5,2,2,0.2,2,891,1,0,891,0,0,0.4,0,0.937300848542706,0.937300848542706,750,1,0,congruent,0,607.628275952017,1704.09008661444
2,104,2,234,-0.5,0.5,0.5,1,4,0.2,1,923,1,0,923,0,0,0.4,0,1.18362390330602,1.18362390330602,750,0,0,incongruent,0,1079.92940988875,1183.75929726468
2,104,2,235,-0.5,0.5,0,2,NaN,0.2,1,632,0,1,NaN,0,0,0,0,-1.05637637594786,NaN,750,0,1,neutral,0,3511.86368179863,583.989193819935
2,104,2,237,0.5,-0.5,0,2,NaN,0.2,2,666,1,1,666,0,0,0,NaN,-0.79465813026184,-0.79465813026184,750,0,0,neutral,0,835.260254898745,345.641234353225
2,104,2,238,0.5,-0.5,-0.5,3,3,0.2,3,757,1,0,757,1,0,0,NaN,-0.0941769432786677,-0.0941769432786677,750,1,0,congruent,1,715.582159690277,775.411030229513
2,104,2,239,0.5,-0.5,-0.5,1,1,0.2,1,558,1,1,558,0,0,0.4,NaN,-1.62599844008802,-1.62599844008802,750,1,0,congruent,0,611.83002289561,388.193483362328
2,104,2,240,0.5,-0.5,-0.5,2,2,0.2,2,752,1,0,752,1,0,0.4,NaN,-0.132664920585435,-0.132664920585435,750,1,0,congruent,1,1244.87524584141,797.139854126448
2,104,2,241,-0.5,0.5,0,1,NaN,0.2,1,627,1,1,627,1,0,0.8,0,-1.09486435325463,-1.09486435325463,750,0,0,neutral,0.1,322.680489292948,578.105956049107
2,104,2,242,-0.5,-0.5,0.5,3,1,0.2,3,859,1,0,859,0,0,1,0,0.690977793779393,0.690977793779393,750,0,0,incongruent,0,399.618409533765,837.357703763642
2,104,2,243,-0.5,0.5,-0.5,4,4,0.2,2,745,0,1,NaN,0,0,1,0.2,-0.18654808881491,NaN,750,0,1,congruent,0,1223.73088682413,393.454560153457
2,104,2,244,0.5,0.5,0.5,2,1,0.2,2,734,1,1,734,1,0,0.6,NaN,-0.271221638889799,-0.271221638889799,750,0,0,incongruent,1,2300.49164282296,347.516772422389
2,104,2,245,-0.5,-0.5,0,4,NaN,0.4,4,860,1,0,860,0,0,1,0,0.698675389240747,0.698675389240747,750,0,0,neutral,0,902.391416899241,484.710321991693
2,104,2,247,0.5,0.5,0.5,4,3,0.4,4,729,1,1,729,1,0,0.4,NaN,-0.309709616196567,-0.309709616196567,750,0,0,incongruent,1,660.799779415293,91.089249026747
2,104,2,248,-0.5,-0.5,0.5,1,2,0.6,2,748,0,1,NaN,1,0,0.8,0,-0.16345530243085,NaN,750,1,0,incongruent,0.1,2791.49246878626,770.422008876812
2,104,2,249,0.5,0.5,0,2,NaN,0.6,2,886,1,0,886,0,0,1,NaN,0.898812871235939,0.898812871235939,750,0,0,neutral,0,747.470288541705,487.460244153299
2,104,2,250,-0.5,-0.5,-0.5,3,3,0.4,3,940,1,0,940,0,0,0.6,0.2,1.31448302614903,1.31448302614903,750,1,0,congruent,0,237.382114521206,727.518049463723
2,104,2,251,-0.5,0.5,0,1,NaN,0.4,1,822,1,0,822,0,0,0.6,0.2,0.406166761709312,0.406166761709312,750,0,0,neutral,0,613.453898483842,834.904885000032
2,104,2,252,-0.5,0.5,-0.5,2,2,0.4,2,722,1,1,722,1,0,0.6,0.2,-0.363592784426041,-0.363592784426041,750,1,0,congruent,0.1,570.075707973865,343.705923238538
2,104,2,253,-0.5,0.5,0.5,1,4,0.4,1,744,1,1,744,1,0,0.4,0.4,-0.194245684276264,-0.194245684276264,750,0,0,incongruent,0.1,660.472807847798,545.713550989331
2,104,2,257,-0.5,-0.5,0.5,1,3,0.4,1,717,1,1,717,0,0,0.8,0.2,-0.402080761732809,-0.402080761732809,750,0,0,incongruent,0,1644.73480742071,231.68283657875
2,104,2,258,0.5,-0.5,0,2,NaN,0.4,2,556,1,1,556,1,0,0.6,NaN,-1.64139363101073,-1.64139363101073,750,0,0,neutral,1,619.437835617446,382.262118984973
2,104,2,259,-0.5,-0.5,0.5,3,4,0.4,3,750,1,1,750,0,0,0.8,0.2,-0.148060111508142,-0.148060111508142,750,0,0,incongruent,0,402.046371629062,1664.3526224556
2,104,2,260,-0.5,-0.5,0,1,NaN,0.4,1,627,1,1,627,0,0,0.8,0.2,-1.09486435325463,-1.09486435325463,750,0,0,neutral,0,791.320158066457,731.947366389018
2,104,2,261,-0.5,0.5,-0.5,3,3,0.4,3,690,1,1,690,1,0,0.4,0.4,-0.609915839189355,-0.609915839189355,750,1,0,congruent,0.1,431.769438114986,455.921990951439
2,104,2,262,-0.5,0.5,0.5,4,2,0.6,2,772,0,0,NaN,0,0,0.6,0.6,0.0212869886416354,NaN,750,1,0,incongruent,0,164.399117545104,462.850800860838
2,104,2,263,-0.5,0.5,0,3,NaN,0.4,3,648,1,1,648,1,0,0.6,0.6,-0.933214848566203,-0.933214848566203,750,0,0,neutral,0.1,426.298544741483,710.926991334842
2,104,2,264,0.5,-0.5,-0.5,1,1,0.4,2,745,0,1,NaN,0,0,0.4,NaN,-0.18654808881491,NaN,750,0,1,congruent,0,537.213658418149,383.339474680962
2,104,2,265,0.5,0.5,-0.5,2,2,0.4,3,648,0,1,NaN,0,0,0.4,NaN,-0.933214848566203,NaN,750,0,1,congruent,0,193.783478581597,570.432672054795
2,104,2,266,-0.5,-0.5,0.5,3,4,0.4,3,688,1,1,688,1,0,0.4,0.2,-0.625311030112062,-0.625311030112062,750,0,0,incongruent,0.1,520.06011519461,629.99490729123
2,104,2,268,-0.5,-0.5,0.5,1,3,0.4,3,946,0,0,NaN,1,0,0.4,0.2,1.36066859891715,NaN,750,1,0,incongruent,0.1,399.02947650883,534.970408127981
2,104,2,269,0.5,-0.5,0.5,4,2,0.4,4,953,1,0,953,1,0,0.4,NaN,1.41455176714663,1.41455176714663,750,0,0,incongruent,1,472.922323417081,694.467322669266
2,104,2,270,0.5,-0.5,0,1,NaN,0.4,3,856,0,0,NaN,0,0,0.8,NaN,0.667885007395333,NaN,750,0,1,neutral,0,1087.93178663652,462.613455421403
2,104,2,272,0.5,-0.5,0,3,NaN,0.2,3,686,1,1,686,0,0,0.6,NaN,-0.640706221034769,-0.640706221034769,750,0,0,neutral,0,1001.79031993879,235.453105134954
2,104,2,274,0.5,-0.5,0,1,NaN,0.2,1,605,1,1,605,0,0,0.4,NaN,-1.26421145340441,-1.26421145340441,750,0,0,neutral,0,254.771933414712,691.189440961337
2,104,2,275,-0.5,0.5,-0.5,2,2,0.2,2,789,1,0,789,0,0,0,0.4,0.152146111484646,0.152146111484646,750,1,0,congruent,0,639.517642939797,2367.94317565653
2,104,2,276,0.5,-0.5,-0.5,3,3,0.2,3,984,1,0,984,1,0,0,NaN,1.65317722644859,1.65317722644859,750,1,0,congruent,1,608.654515634717,1093.74477204725
2,104,2,277,-0.5,0.5,0.5,2,1,0.2,2,970,1,0,970,0,0,0.4,0.2,1.54541088998964,1.54541088998964,750,0,0,incongruent,0,2483.38171888394,1441.15130426841
2,104,2,279,0.5,-0.5,-0.5,4,4,0,3,782,0,0,NaN,0,0,0.4,NaN,0.0982629432551708,NaN,750,0,1,congruent,0,178.083153473662,389.978698470759
2,104,2,280,-0.5,0.5,0,3,NaN,0,2,729,0,1,NaN,0,0,0.4,0.2,-0.309709616196567,NaN,750,0,1,neutral,0,393.229459355157,449.498207566104
2,104,2,281,0.5,0.5,-0.5,4,4,0,2,782,0,0,NaN,0,0,0.4,NaN,0.0982629432551708,NaN,750,0,1,congruent,0,1544.35602680538,150.843784967029
2,104,2,282,-0.5,-0.5,-0.5,1,1,0,1,541,1,1,541,0,0,0,0.4,-1.75685756293103,-1.75685756293103,750,1,0,congruent,0,559.173715018724,1118.06795967125
2,104,2,283,-0.5,0.5,0,3,NaN,0,1,928,0,0,NaN,0,0,0,0,1.22211188061279,NaN,750,0,1,neutral,0,983.536772223778,468.915874173813
2,104,2,284,-0.5,-0.5,-0.5,4,4,0,4,955,1,0,955,0,0,0,0.4,1.42994695806933,1.42994695806933,750,1,0,congruent,0,861.464374488341,786.506747835967
2,104,2,285,-0.5,-0.5,0.5,1,2,0,1,773,1,0,773,0,0,0,0.4,0.0289845841029889,0.0289845841029889,750,0,0,incongruent,0,3675.76834338983,1404.6806309617
2,104,2,286,-0.5,-0.5,0.5,2,1,0,2,837,1,0,837,0,0,0,0.2,0.521630693629615,0.521630693629615,750,0,0,incongruent,0,502.826193668895,957.004466306775
2,104,2,287,0.5,-0.5,0.5,1,3,0,3,916,0,0,NaN,0,0,0,NaN,1.12974073507654,NaN,750,1,0,incongruent,0,352.135201453977,2077.77571890197
2,104,2,289,0.5,0.5,0.5,2,4,0,2,920,1,0,920,0,0,0,NaN,1.16053111692196,1.16053111692196,750,0,0,incongruent,0,709.516222356899,422.057787438221
2,104,2,290,-0.5,0.5,0,4,NaN,0,3,903,0,0,NaN,0,0,0,0,1.02967199407895,NaN,750,0,1,neutral,0,898.597963775434,312.049129568751
2,104,2,291,-0.5,0.5,-0.5,1,1,0,1,833,1,0,833,0,0,0,0,0.490840311784201,0.490840311784201,750,1,0,congruent,0,655.762014812741,749.637866348867
2,104,2,292,0.5,-0.5,0.5,4,3,0,3,881,0,0,NaN,0,0,0,NaN,0.860324893929171,NaN,750,1,0,incongruent,0,693.344741189825,1392.8650432337
2,104,2,293,-0.5,-0.5,0.5,2,1,0,2,685,1,1,685,0,0,0,0,-0.648403816496122,-0.648403816496122,750,0,0,incongruent,0,606.63610919826,529.13434977416
2,104,2,297,-0.5,-0.5,0.5,3,1,0,3,847,1,0,847,0,0,0,0,0.598606648243151,0.598606648243151,750,0,0,incongruent,0,1033.22842090298,479.361712334753
2,104,2,298,-0.5,0.5,0,2,NaN,0,2,645,1,1,645,1,0,0,0,-0.956307634950264,-0.956307634950264,750,0,0,neutral,0.1,1199.6920938738,275.444462550589
2,104,2,300,0.5,-0.5,0,3,NaN,0.2,3,702,1,1,702,0,0,0.2,NaN,-0.517544693653112,-0.517544693653112,750,0,0,neutral,0,312.974034830147,258.208950188299
2,104,3,302,-0.5,-0.5,-0.5,3,3,0.2,3,660,1,1,660,1,0,0.2,0,-0.840843703029961,-0.840843703029961,750,1,0,congruent,0.1,274.011494938467,1177.75568053764
2,104,3,303,-0.5,-0.5,-0.5,2,2,0.2,2,680,1,1,680,0,0,0.4,0.2,-0.68689179380289,-0.68689179380289,750,1,0,congruent,0,153.670234367058,1624.98551911293
2,104,3,304,0.5,0.5,-0.5,4,4,0.2,3,817,0,0,NaN,0,0,0.2,NaN,0.367678784402545,NaN,750,0,1,congruent,0,1144.54869433896,619.772390916377
2,104,3,305,0.5,0.5,0.5,1,2,0.2,2,782,0,0,NaN,0,0,0.2,NaN,0.0982629432551708,NaN,750,1,0,incongruent,0,419.044811374702,315.867864678084
2,104,3,306,0.5,0.5,-0.5,3,3,0.2,3,721,1,1,721,1,0,0.2,NaN,-0.371290379887395,-0.371290379887395,750,1,0,congruent,1,443.74875560185,446.915439183082
2,104,3,307,0.5,-0.5,0,2,NaN,0.4,2,645,1,1,645,0,0,0.6,NaN,-0.956307634950264,-0.956307634950264,750,0,0,neutral,0,476.812646125516,651.018100393279
2,104,3,308,0.5,0.5,-0.5,3,3,0.4,3,736,1,1,736,1,0,0.4,NaN,-0.255826447967092,-0.255826447967092,750,1,0,congruent,1,977.954611649922,745.624417093681
2,104,3,309,0.5,0.5,0.5,4,1,0.6,1,834,0,0,NaN,0,0,0.8,NaN,0.498537907245555,NaN,750,1,0,incongruent,0,914.72374354394,601.767028140003
2,104,3,310,-0.5,0.5,0.5,2,3,0.4,2,830,1,0,830,0,0,0.8,0.2,0.467747525400141,0.467747525400141,750,0,0,incongruent,0,510.36283208191,1169.05906891818
2,104,3,311,-0.5,0.5,0.5,3,4,0.4,3,748,1,1,748,1,0,0.8,0.2,-0.16345530243085,-0.16345530243085,750,0,0,incongruent,0.1,484.298814054929,429.86171908274
2,104,3,312,-0.5,-0.5,0,4,NaN,0.6,2,755,0,0,NaN,0,0,0.6,0.2,-0.109572134201375,NaN,750,0,1,neutral,0,711.256459547306,320.068782908753
2,104,3,313,0.5,-0.5,0.5,1,2,0.6,1,972,1,0,972,1,0,0.6,NaN,1.56080608091234,1.56080608091234,750,0,0,incongruent,1,771.498707530123,501.412675661465
2,104,3,314,0.5,-0.5,0,2,NaN,0.6,2,835,1,0,835,1,0,0.6,NaN,0.506235502706908,0.506235502706908,750,0,0,neutral,1,281.552892956879,2001.78516761
2,104,3,315,0.5,0.5,-0.5,4,4,0.6,2,756,0,0,NaN,0,0,1,NaN,-0.101874538740021,NaN,750,0,1,congruent,0,1499.43744262762,1314.23928967623
2,104,3,316,0.5,0.5,-0.5,2,2,0.4,2,763,1,0,763,0,0,1,NaN,-0.0479913705105465,-0.0479913705105465,750,1,0,congruent,0,973.004282440847,1557.68496282906
2,104,3,317,-0.5,-0.5,0,1,NaN,0.2,2,800,0,0,NaN,0,0,0.8,0.2,0.236819661559534,NaN,750,0,1,neutral,0,994.047266802638,189.858431451573
2,104,3,319,-0.5,0.5,-0.5,1,1,0.2,1,766,1,0,766,0,0,0.4,0.4,-0.0248985841264858,-0.0248985841264858,750,1,0,congruent,0,837.677937440308,490.472940224209
2,104,3,320,-0.5,0.5,-0.5,3,3,0.2,2,816,0,0,NaN,0,0,0,0.4,0.359981188941191,NaN,750,0,1,congruent,0,455.534071630525,1141.67212035962
2,104,3,321,-0.5,0.5,0.5,4,2,0,3,768,0,0,NaN,0,0,0,0.2,-0.00950339320377876,NaN,750,0,1,incongruent,0,1148.12041833108,217.688797987914
2,104,3,322,-0.5,-0.5,0.5,1,3,0,1,711,1,1,711,0,0,0,0.2,-0.44826633450093,-0.44826633450093,750,0,0,incongruent,0,648.734037184344,710.409588439457
2,104,3,323,0.5,-0.5,0.5,2,4,0,2,900,1,0,900,0,0,0,NaN,1.00657920769489,1.00657920769489,750,0,0,incongruent,0,1154.25084865403,723.505937135915
2,104,3,324,-0.5,0.5,0,3,NaN,0,3,750,1,1,750,0,0,0,0.2,-0.148060111508142,-0.148060111508142,750,0,0,neutral,0,1586.65966401456,217.905835098091
2,104,3,325,0.5,0.5,-0.5,2,2,0,2,709,1,1,709,1,0,0,NaN,-0.463661525423637,-0.463661525423637,750,1,0,congruent,1,772.169772157743,1184.20085376326
2,104,3,326,-0.5,-0.5,-0.5,1,1,0.2,1,592,1,1,592,1,0,0.4,0.2,-1.364280194402,-1.364280194402,750,1,0,congruent,0.1,430.07165548583,170.843489752236
2,104,3,327,-0.5,-0.5,-0.5,4,4,0.2,2,769,0,0,NaN,0,0,0.6,0.2,-0.00180579774242522,NaN,750,0,1,congruent,0,905.806523528766,1312.40750533662
2,104,3,328,0.5,0.5,-0.5,3,3,0.2,1,790,0,0,NaN,0,0,0.6,NaN,0.159843706945999,NaN,750,0,1,congruent,0,470.255626963145,609.199576212761
2,104,3,329,-0.5,0.5,0,4,NaN,0.2,3,848,0,0,NaN,0,0,0.6,0,0.606304243704504,NaN,750,0,1,neutral,0,2706.53756674878,181.395421916422
2,104,3,332,-0.5,-0.5,0,1,NaN,0.2,1,850,1,0,850,0,0,0,0.2,0.621699434627211,0.621699434627211,750,0,0,neutral,0,279.167974463371,402.600342623101
2,104,3,333,-0.5,0.5,-0.5,3,3,0.2,3,777,1,0,777,0,0,0,0,0.0597749659484031,0.0597749659484031,750,1,0,congruent,0,803.792659070876,195.258365779263
2,104,3,334,0.5,0.5,-0.5,2,2,0,2,558,1,1,558,1,0,0,NaN,-1.62599844008802,-1.62599844008802,750,1,0,congruent,1,923.249717329764,444.82046557351
2,104,3,335,-0.5,0.5,-0.5,3,3,0.2,3,935,1,0,935,0,0,0.4,0,1.27599504884226,1.27599504884226,750,1,0,congruent,0,1122.71819335925,1257.18103539006
2,104,3,336,-0.5,-0.5,0.5,2,1,0.2,2,743,1,1,743,1,0,0.4,0.2,-0.201943279737617,-0.201943279737617,750,0,0,incongruent,0.1,1563.85508192669,156.356745102551
2,104,3,337,0.5,-0.5,-0.5,3,3,0.2,3,813,1,0,813,0,0,0.6,NaN,0.33688840255713,0.33688840255713,750,1,0,congruent,0,1563.60107590706,636.158744001788
2,104,3,338,-0.5,0.5,0,4,NaN,0.2,3,836,0,0,NaN,0,0,0.6,0,0.513933098168262,NaN,750,0,1,neutral,0,1120.08450812205,588.979310400484
2,104,3,339,0.5,0.5,-0.5,3,3,0.2,3,916,1,0,916,0,0,0.6,NaN,1.12974073507654,1.12974073507654,750,1,0,congruent,0,134.961176850425,475.239771759748
2,104,3,340,0.5,-0.5,0.5,1,2,0.2,2,672,0,1,NaN,0,0,0.2,NaN,-0.748472557493718,NaN,750,1,0,incongruent,0,1320.32573592686,664.644157711743
2,104,3,341,-0.5,0.5,-0.5,3,3,0.2,2,850,0,0,NaN,0,0,0.2,0,0.621699434627211,NaN,750,0,1,congruent,0,292.42598331984,460.250089622191
2,104,3,342,0.5,-0.5,-0.5,2,2,0.2,2,798,1,0,798,1,0,0,NaN,0.221424470636827,0.221424470636827,750,1,0,congruent,1,1280.48051657598,546.293956220774
2,104,3,343,-0.5,-0.5,0.5,1,4,0.2,3,753,0,0,NaN,0,0,0.4,0.4,-0.124967325124082,NaN,750,0,1,incongruent,0,1591.84120443091,2196.2927102256
2,104,3,344,0.5,-0.5,0,2,NaN,0.2,2,777,1,0,777,1,0,0.4,NaN,0.0597749659484031,0.0597749659484031,750,0,0,neutral,1,175.393654885002,299.150107890339
2,104,3,346,0.5,0.5,0.5,2,1,0,2,799,1,0,799,0,0,0.8,NaN,0.229122066098181,0.229122066098181,750,0,0,incongruent,0,951.352710582395,999.032561396753
2,104,3,347,-0.5,0.5,0,1,NaN,0,2,925,0,0,NaN,0,0,0.8,0,1.19901909422873,NaN,750,0,1,neutral,0,311.56893091803,154.719458696625
2,104,3,348,-0.5,-0.5,-0.5,3,3,0,3,831,1,0,831,0,0,0.4,0.4,0.475445120861494,0.475445120861494,750,1,0,congruent,0,2767.61683356085,441.32239142514
2,104,3,349,-0.5,0.5,0,2,NaN,0,2,894,1,0,894,0,0,0.4,0,0.960393634926767,0.960393634926767,750,0,0,neutral,0,1178.4796674265,1207.55740629091
2,104,3,350,0.5,0.5,-0.5,1,1,0,2,887,0,0,NaN,0,0,0,NaN,0.906510466697292,NaN,750,0,1,congruent,0,356.340401905841,817.385288794866
2,104,3,351,-0.5,-0.5,0,4,NaN,0,4,912,1,0,912,0,0,0,0.2,1.09895035323113,1.09895035323113,750,0,0,neutral,0,369.945764900768,386.515932157645
2,104,3,352,0.5,0.5,0.5,3,4,0,3,790,1,0,790,0,0,0,NaN,0.159843706945999,0.159843706945999,750,0,0,incongruent,0,791.343759543531,1358.44100092457
2,104,3,353,0.5,-0.5,0,2,NaN,0,2,683,1,1,683,0,0,0,NaN,-0.663799007418829,-0.663799007418829,750,0,0,neutral,0,912.609108783445,1094.76815675926
2,104,3,354,-0.5,0.5,-0.5,4,4,0,4,581,1,1,581,1,0,0,0,-1.44895374447689,-1.44895374447689,750,1,0,congruent,0.1,1539.78792982979,1086.31377473972
2,104,3,355,-0.5,0.5,0,2,NaN,0.2,2,662,1,1,662,1,0,0.2,0.2,-0.825448512107254,-0.825448512107254,750,0,0,neutral,0.1,1099.16567397739,348.43683828376
2,104,3,356,-0.5,0.5,0.5,1,2,0.4,1,463,1,1,463,1,0,0.4,0.4,-2.35727000891661,-2.35727000891661,750,0,0,incongruent,0.1,1623.41385673412,751.192763762718
2,104,3,357,0.5,0.5,0.5,3,1,0.6,3,937,1,0,937,0,0,0.6,NaN,1.29139023976497,1.29139023976497,750,0,0,incongruent,0,477.355298038572,699.129147608607
2,104,3,358,-0.5,-0.5,-0.5,4,4,0.6,4,933,1,0,933,0,0,0.6,0.2,1.26059985791955,1.26059985791955,750,1,0,congruent,0,615.524981347384,542.514152884151
2,104,3,359,0.5,-0.5,0,3,NaN,0.6,3,893,1,0,893,1,0,0.6,NaN,0.952696039465413,0.952696039465413,750,0,0,neutral,1,1309.50947677303,605.00429024855
2,104,3,360,0.5,-0.5,0.5,2,1,0.6,2,938,1,0,938,0,0,0.8,NaN,1.29908783522632,1.29908783522632,750,0,0,incongruent,0,1011.28757652264,383.498412319011
2,104,3,361,-0.5,-0.5,0,4,NaN,0.6,4,818,1,0,818,0,0,0.6,0.2,0.375376379863898,0.375376379863898,750,0,0,neutral,0,787.775757370603,251.681406117539
2,104,3,362,-0.5,0.5,0.5,3,1,0.6,3,729,1,1,729,1,0,0.4,0.6,-0.309709616196567,-0.309709616196567,750,0,0,incongruent,0.1,2070.82762960351,867.914973048725
2,104,3,363,0.5,0.5,-0.5,2,2,0.8,1,820,0,0,NaN,0,0,0.6,NaN,0.390771570786605,NaN,750,0,1,congruent,0,551.7459099561,354.651306816893
2,104,3,364,-0.5,0.5,-0.5,3,3,0.6,3,712,1,1,712,1,0,0.6,0.8,-0.440568739039577,-0.440568739039577,750,1,0,congruent,0.1,1784.4166545153,222.783641707498
2,104,3,365,-0.5,0.5,0,1,NaN,0.6,2,713,0,1,NaN,0,0,0.4,1,-0.432871143578223,NaN,750,0,1,neutral,0,176.607544073694,482.090338123754
2,104,3,366,-0.5,-0.5,0.5,4,3,0.4,1,740,0,1,NaN,0,0,0.4,0,-0.225036066121678,NaN,750,0,1,incongruent,0,249.653935340529,1262.57443533052
2,104,3,367,-0.5,-0.5,0.5,3,4,0.4,2,830,0,0,NaN,0,0,0.4,0,0.467747525400141,NaN,750,0,1,incongruent,0,1222.638745801,783.413212799038
2,104,3,368,0.5,-0.5,0,4,NaN,0.4,2,871,0,0,NaN,1,0,0.2,NaN,0.783348939315636,NaN,750,0,1,neutral,1,1059.31277652673,607.596031005215
2,104,3,369,-0.5,-0.5,0.5,3,4,0.4,3,696,1,1,696,0,0,0.6,0,-0.563730266421233,-0.563730266421233,750,0,0,incongruent,0,506.973672215644,283.24119357738
2,104,3,370,-0.5,-0.5,0,1,NaN,0.4,1,744,1,1,744,1,0,0.4,0,-0.194245684276264,-0.194245684276264,750,0,0,neutral,0.1,448.712380026562,801.740970516604
2,104,3,373,-0.5,0.5,-0.5,3,3,0.2,3,761,1,0,761,0,0,0.6,0.6,-0.0633865614332535,-0.0633865614332535,750,1,0,congruent,0,162.147964719127,250.029375269896
2,104,3,374,0.5,-0.5,0,1,NaN,0.2,1,635,1,1,635,1,0,0.2,NaN,-1.0332835895638,-1.0332835895638,750,0,0,neutral,1,1565.30543317514,771.799896774243
2,104,3,375,0.5,-0.5,-0.5,4,4,0.2,3,945,0,0,NaN,0,0,0.6,NaN,1.3529710034558,NaN,750,0,1,congruent,0,985.356191308245,395.53688056244
2,104,3,376,-0.5,0.5,-0.5,3,3,0.2,4,954,0,0,NaN,0,0,0.4,0.4,1.42224936260798,NaN,750,0,1,congruent,0,1139.76753223521,981.731654015889
2,104,3,377,-0.5,0.5,-0.5,2,2,0,2,654,1,1,654,1,0,0.4,0.2,-0.887029275798082,-0.887029275798082,750,1,0,congruent,0.1,238.043470333785,582.796020942429
2,104,3,378,-0.5,0.5,0.5,1,4,0.2,1,979,1,0,979,0,0,0.6,0.2,1.61468924914182,1.61468924914182,750,0,0,incongruent,0,541.133243496245,585.592652530406
2,104,3,379,-0.5,0.5,0,2,NaN,0.2,2,929,1,0,929,0,0,0.6,0.2,1.22980947607414,1.22980947607414,750,0,0,neutral,0,661.436736162813,1708.4136790656
2,104,3,380,-0.5,0.5,-0.5,1,1,0.2,1,644,1,1,644,1,0,0.2,0.2,-0.964005230411617,-0.964005230411617,750,1,0,congruent,0.1,825.690669177282,327.026911213005
2,104,3,381,-0.5,-0.5,0,3,NaN,0.4,3,776,1,0,776,0,0,0.4,0.2,0.0520773704870495,0.0520773704870495,750,0,0,neutral,0,1297.65631965632,1023.80044111786
2,104,3,382,0.5,0.5,-0.5,4,4,0.4,2,794,0,0,NaN,0,0,0.4,NaN,0.190634088791413,NaN,750,0,1,congruent,0,474.60596910417,1360.99466723627
2,104,3,383,-0.5,-0.5,0.5,2,3,0.4,3,818,0,0,NaN,0,0,0.2,0.2,0.375376379863898,NaN,750,1,0,incongruent,0,1586.22083705134,216.009830523705
2,104,3,384,-0.5,0.5,0,4,NaN,0.4,3,808,0,0,NaN,0,0,0.2,0.4,0.298400425250363,NaN,750,0,1,neutral,0,1331.95150195992,357.916529074243
2,104,3,385,-0.5,0.5,-0.5,1,1,0.2,1,631,1,1,631,1,0,0.2,0.4,-1.06407397140921,-1.06407397140921,750,1,0,congruent,0.1,1550.49496441986,642.662578101294
2,104,3,386,0.5,0.5,0.5,3,4,0.4,2,802,0,0,NaN,0,0,0.2,NaN,0.252214852482242,NaN,750,0,1,incongruent,0,1099.45804011595,139.323214249033
2,104,3,387,0.5,0.5,-0.5,2,2,0.4,2,823,1,0,823,0,0,0.2,NaN,0.413864357170666,0.413864357170666,750,1,0,congruent,0,603.498970757707,918.447239496511
2,104,3,388,-0.5,-0.5,0,4,NaN,0.2,3,758,0,0,NaN,0,0,0.2,0.2,-0.0864793478173141,NaN,750,0,1,neutral,0,337.87474087328,1797.90680534371
2,104,3,389,-0.5,-0.5,-0.5,3,3,0.2,3,632,1,1,632,0,0,0.2,0.2,-1.05637637594786,-1.05637637594786,750,1,0,congruent,0,421.428364413565,320.131976435721
2,104,3,390,-0.5,-0.5,-0.5,2,2,0.2,2,674,1,1,674,0,0,0.2,0.2,-0.733077366571011,-0.733077366571011,750,1,0,congruent,0,854.750829637739,524.941452507556
2,104,3,391,-0.5,0.5,0.5,4,3,0.2,4,689,1,1,689,1,0,0,0.4,-0.617613434650708,-0.617613434650708,750,0,0,incongruent,0.1,822.149551266058,1034.7573302405
2,104,3,392,-0.5,-0.5,-0.5,1,1,0.4,1,657,1,1,657,0,0,0.2,0,-0.863936489414021,-0.863936489414021,750,1,0,congruent,0,732.920306057181,714.615411026834
2,104,3,393,0.5,-0.5,0.5,3,2,0.4,2,982,0,0,NaN,0,0,0.2,NaN,1.63778203552588,NaN,750,1,0,incongruent,0,1254.20275183691,529.576723914271
2,104,3,394,-0.5,-0.5,0,4,NaN,0.4,4,402,1,1,402,0,0,0.2,0,-2.82682333205917,-2.82682333205917,750,0,0,neutral,0,534.881972927017,1417.5727979875
2,104,3,395,-0.5,0.5,-0.5,2,2,0.4,2,842,1,0,842,0,0,0.2,0.6,0.560118670936383,0.560118670936383,750,1,0,congruent,0,1619.97886479452,691.828191771412
2,104,3,397,0.5,0.5,-0.5,1,1,0.2,1,412,1,1,412,1,0,0,NaN,-2.74984737744564,-2.74984737744564,750,1,0,congruent,1,579.578013231263,525.253116933839
2,104,3,398,-0.5,0.5,-0.5,4,4,0.4,4,421,1,1,421,1,0,0.4,0.4,-2.68056901829346,-2.68056901829346,750,1,0,congruent,0.1,900.229488738803,101.793005430052
2,104,3,399,0.5,-0.5,0,3,NaN,0.6,2,644,0,1,NaN,0,0,0.6,NaN,-0.964005230411617,NaN,750,0,1,neutral,0,1264.20212529176,1972.58907391132
2,104,3,400,-0.5,0.5,-0.5,2,2,0.6,2,531,1,1,531,1,0,0.6,0.6,-1.83383351754457,-1.83383351754457,750,1,0,congruent,0.1,1770.42048233202,431.900110104194
2,104,3,402,-0.5,-0.5,0,2,NaN,0.6,2,790,1,0,790,0,0,1.2,0,0.159843706945999,0.159843706945999,750,0,0,neutral,0,1150.67589129319,1370.17319461568
2,104,3,403,-0.5,0.5,-0.5,4,4,0.6,3,916,0,0,NaN,0,0,0.8,0.6,1.12974073507654,NaN,750,0,1,congruent,0,343.898230828948,191.333708632912
2,104,3,405,0.5,0.5,0.5,1,2,0.6,1,747,1,1,747,1,0,0.8,NaN,-0.171152897892203,-0.171152897892203,750,0,0,incongruent,1,3422.54100015979,673.16426795148
2,104,3,406,0.5,0.5,-0.5,3,3,0.8,3,781,1,0,781,0,0,1,NaN,0.0905653477938172,0.0905653477938172,750,1,0,congruent,0,224.296348469869,510.160626700685
2,104,3,407,-0.5,0.5,0.5,4,1,0.6,4,769,1,0,769,0,0,0.6,0.4,-0.00180579774242522,-0.00180579774242522,750,0,0,incongruent,0,725.187070509436,722.830284726672
2,104,3,408,0.5,0.5,0,2,NaN,0.4,2,810,1,0,810,0,0,0.6,NaN,0.31379561617307,0.31379561617307,750,0,0,neutral,0,1008.91278195595,682.780918287899
2,104,3,409,0.5,-0.5,0.5,1,2,0.2,1,855,1,0,855,0,0,0.6,NaN,0.660187411933979,0.660187411933979,750,0,0,incongruent,0,577.252912973561,943.28271716122
2,104,3,410,0.5,-0.5,-0.5,3,3,0.2,3,742,1,1,742,0,0,0.4,NaN,-0.209640875198971,-0.209640875198971,750,1,0,congruent,0,522.708305898821,1027.28759260887
2,104,3,411,-0.5,0.5,-0.5,2,2,0.2,2,735,1,1,735,1,0,0,0.4,-0.263524043428446,-0.263524043428446,750,1,0,congruent,0.1,538.831511602107,388.625509874108
2,104,3,412,0.5,-0.5,-0.5,4,4,0.4,1,713,0,1,NaN,1,0,0.2,NaN,-0.432871143578223,NaN,750,0,1,congruent,1,206.547328405593,1210.81115421279
2,104,3,413,-0.5,-0.5,-0.5,3,3,0.4,3,673,1,1,673,1,0,0.6,0.2,-0.740774962032365,-0.740774962032365,750,1,0,congruent,0.1,1368.94840142063,415.598667524103
2,104,3,414,-0.5,0.5,0.5,4,1,0.4,2,897,0,0,NaN,0,0,0.8,0.6,0.983486421310828,NaN,750,0,1,incongruent,0,826.390719548535,111.620792099299
2,104,3,415,-0.5,0.5,0.5,1,3,0.2,1,637,1,1,637,1,0,0.8,0.4,-1.01788839864109,-1.01788839864109,750,0,0,incongruent,0.1,701.848606243073,595.025292076293
2,104,3,416,-0.5,0.5,-0.5,2,2,0.4,2,828,1,0,828,0,0,1,0.4,0.452352334477434,0.452352334477434,750,1,0,congruent,0,606.37335001003,399.24627469906
2,104,3,417,0.5,0.5,0,1,NaN,0.4,1,614,1,1,614,1,0,0.8,NaN,-1.19493309425222,-1.19493309425222,750,0,0,neutral,1,220.4946480773,1217.65389990178
2,104,3,418,-0.5,-0.5,-0.5,3,3,0.6,3,838,1,0,838,1,0,0.8,0.4,0.529328289090969,0.529328289090969,750,1,0,congruent,0.1,1012.94649817472,390.79323378564
2,104,3,419,0.5,-0.5,0.5,1,2,0.6,1,903,1,0,903,1,0,0.8,NaN,1.02967199407895,1.02967199407895,750,0,0,incongruent,1,463.988617606223,380.504299582558
2,104,3,420,0.5,-0.5,0,2,NaN,0.6,3,720,0,1,NaN,1,0,1.2,NaN,-0.378987975348749,NaN,750,0,1,neutral,1,303.008707993607,659.913253491622
2,104,3,421,-0.5,-0.5,-0.5,4,4,0.6,3,770,0,0,NaN,1,0,1.4,0.6,0.00589179771892831,NaN,750,0,1,congruent,0.1,1097.21452873322,389.762977520218
2,104,3,423,-0.5,0.5,0,1,NaN,0.6,1,633,1,1,633,1,0,1.2,0.4,-1.04867878048651,-1.04867878048651,750,0,0,neutral,0.1,175.567349097785,662.166820024804
2,104,3,424,-0.5,0.5,-0.5,4,4,0.6,3,805,0,0,NaN,0,0,1.2,0.6,0.275307638866302,NaN,750,0,1,congruent,0,1416.97740542641,248.139884579023
2,104,3,425,-0.5,0.5,-0.5,2,2,0.6,2,867,1,0,867,0,0,0.8,0.4,0.752558557470221,0.752558557470221,750,1,0,congruent,0,2175.5401217429,1139.1896395339
2,104,3,426,-0.5,0.5,0.5,1,3,0.4,1,957,1,0,957,0,0,0.4,0.4,1.44534214899204,1.44534214899204,750,0,0,incongruent,0,558.914654040994,116.861059976049
2,104,3,427,0.5,-0.5,0,3,NaN,0.4,4,758,0,0,NaN,1,0,0.2,NaN,-0.0864793478173141,NaN,750,0,1,neutral,1,301.59670444644,1446.87629212395
2,104,3,428,0.5,0.5,0.5,1,2,0.4,1,828,1,0,828,0,0,0.6,NaN,0.452352334477434,0.452352334477434,750,0,0,incongruent,0,337.573562521815,931.049396963038
2,104,3,429,-0.5,-0.5,0,3,NaN,0.2,3,889,1,0,889,0,0,0.4,0.8,0.921905657619999,0.921905657619999,750,0,0,neutral,0,546.996343550763,477.893809081102
2,104,3,430,-0.5,-0.5,-0.5,2,2,0.2,2,820,1,0,820,1,0,0.4,0.6,0.390771570786605,0.390771570786605,750,1,0,congruent,0.1,453.613768003495,764.878566229999
2,104,3,432,-0.5,0.5,-0.5,1,1,0,1,762,1,0,762,0,0,0.6,0.2,-0.0556889659719,-0.0556889659719,750,1,0,congruent,0,615.816110176362,689.834706242047
2,104,3,433,-0.5,0.5,0.5,2,4,0,2,880,1,0,880,0,0,0.2,0,0.852627298467817,0.852627298467817,750,0,0,incongruent,0,216.009827278873,245.836880147363
2,104,3,434,0.5,0.5,0,3,NaN,0,3,822,1,0,822,0,0,0.2,NaN,0.406166761709312,0.406166761709312,750,0,0,neutral,0,836.512855202757,3205.39323258119
2,104,3,435,0.5,-0.5,0.5,4,2,0,1,582,0,1,NaN,0,0,0.2,NaN,-1.44125614901554,NaN,750,0,1,incongruent,0,797.287432525955,310.738479920466
2,104,3,436,0.5,0.5,-0.5,3,3,0,3,814,1,0,814,0,0,0,NaN,0.344585998018484,0.344585998018484,750,1,0,congruent,0,320.340191249509,858.594412914991
2,104,3,437,0.5,-0.5,0.5,1,2,0,1,797,1,0,797,0,0,0,NaN,0.213726875175474,0.213726875175474,750,0,0,incongruent,0,533.784739909106,1201.19018310131
2,104,3,438,0.5,-0.5,0,3,NaN,0,2,823,0,0,NaN,0,0,0,NaN,0.413864357170666,NaN,750,0,1,neutral,0,1612.47955220568,647.614186123569
2,104,3,439,0.5,0.5,0.5,1,4,0,1,713,1,1,713,1,0,0,NaN,-0.432871143578223,-0.432871143578223,750,0,0,incongruent,1,1674.11754985173,810.326053648621
2,104,3,440,0.5,0.5,0.5,2,3,0.2,1,834,0,0,NaN,0,0,0.4,NaN,0.498537907245555,NaN,750,0,1,incongruent,0,995.188644753586,1018.79360627466
2,104,3,441,-0.5,0.5,0.5,3,2,0.2,3,844,1,0,844,0,0,0.4,0,0.57551386185909,0.57551386185909,750,0,0,incongruent,0,526.685055707487,257.036139981911
2,104,3,442,-0.5,-0.5,0,4,NaN,0.2,3,806,0,0,NaN,1,0,0.4,0.6,0.283005234327656,NaN,750,0,1,neutral,0.1,637.570731848326,1101.95775397912
2,104,3,443,0.5,-0.5,-0.5,3,3,0.2,2,767,0,0,NaN,0,0,0.6,NaN,-0.0172009886651323,NaN,750,0,1,congruent,0,978.979225163466,228.982058956979
2,104,3,444,0.5,0.5,0.5,1,2,0.2,1,711,1,1,711,1,0,0.6,NaN,-0.44826633450093,-0.44826633450093,750,0,0,incongruent,1,217.608454044424,907.60818783035
2,104,3,445,0.5,-0.5,0,4,NaN,0.4,4,822,1,0,822,1,0,0.6,NaN,0.406166761709312,0.406166761709312,750,0,0,neutral,1,972.908658388593,500.668810528562
2,104,3,446,0.5,-0.5,-0.5,2,2,0.4,2,922,1,0,922,1,0,1,NaN,1.17592630784467,1.17592630784467,750,1,0,congruent,1,1501.18802031513,275.722506803683
2,104,3,447,-0.5,-0.5,0.5,1,3,0.4,1,896,1,0,896,0,0,1.4,0.6,0.975788825849474,0.975788825849474,750,0,0,incongruent,0,593.173069914042,627.683069336938
2,104,3,449,-0.5,-0.5,0.5,3,2,0.4,3,953,1,0,953,1,0,1.2,0.4,1.41455176714663,1.41455176714663,750,0,0,incongruent,0.1,140.263147911873,291.880302649106
2,104,4,451,0.5,-0.5,-0.5,3,3,0.4,3,964,1,0,964,0,0,1,NaN,1.49922531722151,1.49922531722151,750,1,0,congruent,0,485.4290818077,645.75382254583
2,104,4,452,0.5,-0.5,0,4,NaN,0.4,2,834,0,0,NaN,0,0,0.6,NaN,0.498537907245555,NaN,750,0,1,neutral,0,632.88547130141,905.688150858176
2,104,4,453,0.5,-0.5,-0.5,3,3,0.4,3,700,1,1,700,1,0,0.6,NaN,-0.532939884575819,-0.532939884575819,750,1,0,congruent,1,989.047460367909,572.186891706082
2,104,4,454,0.5,0.5,0.5,1,4,0.4,1,790,1,0,790,0,0,1,NaN,0.159843706945999,0.159843706945999,750,0,0,incongruent,0,591.055774570223,187.825413304576
2,104,4,455,-0.5,-0.5,-0.5,2,2,0.2,2,904,1,0,904,0,0,0.8,0.6,1.0373695895403,1.0373695895403,750,1,0,congruent,0,360.539240873333,436.483031726224
2,104,4,456,-0.5,-0.5,0,4,NaN,0.2,3,762,0,0,NaN,0,0,0.4,0.6,-0.0556889659719,NaN,750,0,1,neutral,0,424.04461820849,1407.53351618484
2,104,4,457,0.5,0.5,0.5,1,2,0.2,1,479,1,1,479,1,0,0.4,NaN,-2.23410848153495,-2.23410848153495,750,0,0,incongruent,1,311.615906149676,345.07021707424
2,104,4,458,0.5,0.5,-0.5,3,3,0.4,2,532,0,1,NaN,0,0,0.8,NaN,-1.82613592208321,NaN,750,0,1,congruent,0,722.340859612611,491.54524362803
2,104,4,459,0.5,-0.5,0,2,NaN,0.4,3,669,0,1,NaN,0,0,0.4,NaN,-0.771565343877779,NaN,750,0,1,neutral,0,886.908750222686,562.047385210777
2,104,4,460,0.5,-0.5,-0.5,3,3,0.4,3,726,1,1,726,1,0,0.4,NaN,-0.332802402580627,-0.332802402580627,750,1,0,congruent,1,915.417366787808,914.547025213583
2,104,4,461,-0.5,0.5,-0.5,4,4,0.4,4,764,1,0,764,0,0,0.8,0,-0.0402937750491929,-0.0402937750491929,750,1,0,congruent,0,331.10146428951,146.295147436193
2,104,4,462,0.5,-0.5,-0.5,1,1,0.2,1,576,1,1,576,1,0,0.8,NaN,-1.48744172178366,-1.48744172178366,750,1,0,congruent,1,925.635386905548,250.216106384838
2,104,4,463,0.5,-0.5,-0.5,4,4,0.2,4,538,1,1,538,0,0,0.8,NaN,-1.77995034931509,-1.77995034931509,750,1,0,congruent,0,917.088072629627,396.244381768011
2,104,4,465,-0.5,0.5,-0.5,2,2,0.2,3,792,0,0,NaN,0,0,1,0,0.175238897868706,NaN,750,0,1,congruent,0,397.239909673327,790.149613376316
2,104,4,466,0.5,0.5,0,1,NaN,0.2,1,598,1,1,598,1,0,0.6,NaN,-1.31809462163388,-1.31809462163388,750,0,0,neutral,1,1012.61634746698,158.919155800497
2,104,4,467,0.5,0.5,-0.5,2,2,0.4,2,777,1,0,777,0,0,1,NaN,0.0597749659484031,0.0597749659484031,750,1,0,congruent,0,788.092204023321,234.441336683938
2,104,4,468,-0.5,0.5,0,3,NaN,0.2,3,656,1,1,656,1,0,0.6,0,-0.871634084875375,-0.871634084875375,750,0,0,neutral,0.1,482.235181939171,651.144440373402
2,104,4,469,0.5,0.5,0.5,4,1,0.4,1,670,0,1,NaN,0,0,0.8,NaN,-0.763867748416425,NaN,750,1,0,incongruent,0,3141.85080217818,573.612302062842
2,104,4,470,-0.5,-0.5,-0.5,3,3,0.4,3,689,1,1,689,0,0,0.6,0.4,-0.617613434650708,-0.617613434650708,750,1,0,congruent,0,557.2701216977,435.88367508206
2,104,4,471,0.5,0.5,0.5,2,4,0.4,2,826,1,0,826,0,0,0.6,NaN,0.436957143554726,0.436957143554726,750,0,0,incongruent,0,977.438261082437,694.6859329123
2,104,4,472,0.5,0.5,-0.5,3,3,0.4,3,734,1,1,734,1,0,0.2,NaN,-0.271221638889799,-0.271221638889799,750,1,0,congruent,1,1022.18077208776,1687.28240891778
2,104,4,473,-0.5,-0.5,-0.5,4,4,0.4,1,795,0,0,NaN,1,0,0.6,0.4,0.198331684252767,NaN,750,0,1,congruent,0.1,1959.0273394969,1015.66123659766
2,104,4,474,-0.5,0.5,0,3,NaN,0.4,3,932,1,0,932,0,0,0.6,0.2,1.2529022624582,1.2529022624582,750,0,0,neutral,0,397.649440818648,1204.58736715677
2,104,4,475,0.5,0.5,0.5,4,3,0.4,2,883,0,0,NaN,0,0,0.6,NaN,0.875720084851878,NaN,750,0,1,incongruent,0,2251.71182700569,1250.72968445774
2,104,4,476,0.5,-0.5,-0.5,1,1,0.2,1,608,1,1,608,0,0,0.6,NaN,-1.24111866702034,-1.24111866702034,750,1,0,congruent,0,1399.43040385945,330.076223498278
2,104,4,477,-0.5,0.5,0,3,NaN,0.2,3,765,1,0,765,0,0,0.6,0.2,-0.0325961795878394,-0.0325961795878394,750,0,0,neutral,0,654.412582300944,1222.01427668333
2,104,4,478,-0.5,0.5,-0.5,2,2,0.2,2,863,1,0,863,0,0,0.2,0.2,0.721768175624807,0.721768175624807,750,1,0,congruent,0,1223.57122163812,184.683616374642
2,104,4,479,-0.5,-0.5,0,3,NaN,0.2,3,818,1,0,818,0,0,0,0.4,0.375376379863898,0.375376379863898,750,0,0,neutral,0,1816.42715840904,394.440963022048
2,104,4,482,-0.5,0.5,-0.5,2,2,0,3,697,0,1,NaN,0,0,0,0.2,-0.55603267095988,NaN,750,0,1,congruent,0,659.828452941961,336.226726769923
2,104,4,483,0.5,-0.5,0,4,NaN,0,4,678,1,1,678,0,0,0,NaN,-0.702286984725597,-0.702286984725597,750,0,0,neutral,0,1051.26203702062,1555.43276063334
2,104,4,484,-0.5,0.5,-0.5,3,3,0,3,903,1,0,903,0,0,0,0.2,1.02967199407895,1.02967199407895,750,1,0,congruent,0,1006.66119079545,582.876808137404
2,104,4,485,0.5,0.5,0.5,1,4,0,1,725,1,1,725,1,0,0,NaN,-0.340499998041981,-0.340499998041981,750,0,0,incongruent,1,1798.05660157178,155.112204897371
2,104,4,486,-0.5,-0.5,-0.5,2,2,0.2,2,729,1,1,729,1,0,0.4,0.4,-0.309709616196567,-0.309709616196567,750,1,0,congruent,0.1,401.577950280691,329.906350179849
2,104,4,487,0.5,-0.5,0.5,4,1,0.2,1,906,0,0,NaN,0,0,0.6,NaN,1.05276478046301,NaN,750,1,0,incongruent,0,1075.00180052422,1426.5219535635
2,104,4,489,0.5,-0.5,0,4,NaN,0.2,4,888,1,0,888,0,0,1,NaN,0.914208062158646,0.914208062158646,750,0,0,neutral,0,590.22074993259,1287.20990694033
2,104,4,490,0.5,-0.5,-0.5,1,1,0.2,1,681,1,1,681,0,0,1,NaN,-0.679194198341537,-0.679194198341537,750,1,0,congruent,0,1048.004449384,1309.0868396902
2,104,4,492,0.5,-0.5,-0.5,1,1,0.2,1,709,1,1,709,1,0,0.4,NaN,-0.463661525423637,-0.463661525423637,750,1,0,congruent,1,1033.8909793726,568.485401167107
2,104,4,493,0.5,0.5,0,2,NaN,0.2,3,814,0,0,NaN,0,0,0.8,NaN,0.344585998018484,NaN,750,0,1,neutral,0,228.556404898794,873.67357705163
2,104,4,494,0.5,0.5,0.5,1,4,0.2,1,681,1,1,681,1,0,0.4,NaN,-0.679194198341537,-0.679194198341537,750,0,0,incongruent,1,470.993656973465,295.879922248803
2,104,4,495,-0.5,-0.5,-0.5,2,2,0.4,2,960,1,0,960,1,0,0.8,0.4,1.4684349353761,1.4684349353761,750,1,0,congruent,0.1,806.687104045475,2362.99146267001
2,104,4,498,0.5,-0.5,-0.5,2,2,0.4,3,960,0,0,NaN,0,0,0.8,NaN,1.4684349353761,NaN,750,0,1,congruent,0,987.605729840759,190.310453499618
2,104,4,500,0.5,0.5,0.5,1,2,0.4,1,645,1,1,645,1,0,0.4,NaN,-0.956307634950264,-0.956307634950264,750,0,0,incongruent,1,867.839557396128,540.096525835883
2,104,4,501,-0.5,-0.5,0,3,NaN,0.6,3,753,1,0,753,1,0,0.6,0.6,-0.124967325124082,-0.124967325124082,750,0,0,neutral,0.1,920.29935699625,265.394819985663
2,104,4,502,-0.5,-0.5,-0.5,4,4,0.6,1,708,0,1,NaN,0,0,0.6,0.8,-0.471359120884991,NaN,750,0,1,congruent,0,800.989737430706,657.834205562337
2,104,4,503,0.5,0.5,0.5,2,3,0.6,2,752,1,0,752,0,0,0.6,NaN,-0.132664920585435,-0.132664920585435,750,0,0,incongruent,0,1814.68803424899,664.133317619494
2,104,4,504,0.5,-0.5,0.5,4,2,0.4,3,765,0,0,NaN,0,0,0.6,NaN,-0.0325961795878394,NaN,750,0,1,incongruent,0,536.219402070143,286.327083469331
2,104,4,505,0.5,0.5,-0.5,3,3,0.4,3,779,1,0,779,0,0,0.6,NaN,0.0751701568711102,0.0751701568711102,750,1,0,congruent,0,579.157896132965,542.121797717784
2,104,4,506,-0.5,-0.5,0.5,2,1,0.4,1,821,0,0,NaN,0,0,0.2,0.6,0.398469166247959,NaN,750,1,0,incongruent,0,1863.6134772339,1780.7458189471
2,104,4,507,0.5,-0.5,0.5,4,2,0.4,2,862,0,0,NaN,1,0,0,NaN,0.714070580163454,NaN,750,1,0,incongruent,1,813.316625440255,393.800691713813
2,104,4,508,-0.5,0.5,0.5,2,4,0.4,1,945,0,0,NaN,0,0,0.4,0,1.3529710034558,NaN,750,0,1,incongruent,0,382.486490595439,2103.52010565414
2,104,4,509,-0.5,0.5,0.5,3,1,0.2,4,964,0,0,NaN,0,0,0.4,0,1.49922531722151,NaN,750,0,1,incongruent,0,532.007108696676,746.232257121265
2,104,4,510,-0.5,0.5,0.5,2,3,0.2,3,810,0,0,NaN,0,0,0.4,0,0.31379561617307,NaN,750,1,0,incongruent,0,488.067280415851,491.698192222441
2,104,4,511,0.5,0.5,-0.5,4,4,0,2,650,0,1,NaN,0,0,0.4,NaN,-0.917819657643496,NaN,750,0,1,congruent,0,1477.32641503187,960.698023981873
2,104,4,513,-0.5,-0.5,-0.5,4,4,0,4,520,1,1,520,0,0,0,0.6,-1.91850706761946,-1.91850706761946,750,1,0,congruent,0,722.002934379006,369.92449418623
2,104,4,514,-0.5,-0.5,-0.5,2,2,0,3,282,0,1,NaN,0,0,0,0.4,-3.7505347874216,NaN,750,0,1,congruent,0,781.850889315058,669.704261342053
2,104,4,515,-0.5,-0.5,0,3,NaN,0,3,963,1,0,963,0,0,0,0.2,1.49152772176016,1.49152772176016,750,0,0,neutral,0,288.228416649356,492.512012029054
2,104,4,516,-0.5,-0.5,-0.5,4,4,0,2,675,0,1,NaN,0,0,0,0,-0.725379771109658,NaN,750,0,1,congruent,0,771.846523021763,189.540115634604
2,104,4,517,0.5,0.5,0,3,NaN,0,3,671,1,1,671,1,0,0,NaN,-0.756170152955072,-0.756170152955072,750,0,0,neutral,1,665.761849807135,359.413701197373
2,104,4,519,-0.5,-0.5,0.5,4,2,0.2,2,407,0,1,NaN,0,0,0.4,0,-2.78833535475241,NaN,750,1,0,incongruent,0,749.993888591545,704.746136915226
2,104,4,520,-0.5,0.5,0.5,3,4,0.2,3,462,1,1,462,1,0,0.4,0,-2.36496760437796,-2.36496760437796,750,0,0,incongruent,0.1,1076.67441350761,192.494861136107
2,104,4,521,0.5,-0.5,0.5,4,2,0.4,3,632,0,1,NaN,0,0,0.6,NaN,-1.05637637594786,NaN,750,0,1,incongruent,0,433.648355138855,1105.99880124569
2,104,4,522,0.5,0.5,0,3,NaN,0.4,3,966,1,0,966,0,0,0.6,NaN,1.51462050814422,1.51462050814422,750,0,0,neutral,0,782.511058373767,2099.80068432757
2,104,4,523,-0.5,-0.5,-0.5,2,2,0.4,2,987,1,0,987,0,0,0.2,0,1.67627001283265,1.67627001283265,750,1,0,congruent,0,885.786119556628,1154.92224810463
2,104,4,524,-0.5,-0.5,-0.5,4,4,0.4,2,781,0,0,NaN,1,0,0.2,0,0.0905653477938172,NaN,750,0,1,congruent,0.1,820.645928374195,2715.81318813814
2,104,4,527,0.5,-0.5,-0.5,3,3,0.4,3,803,1,0,803,0,0,0.2,NaN,0.259912447943595,0.259912447943595,750,1,0,congruent,0,708.073880981863,584.225730685906
2,104,4,529,0.5,-0.5,0,4,NaN,0.4,4,858,1,0,858,0,0,0.6,NaN,0.68328019831804,0.68328019831804,750,0,0,neutral,0,835.535520478869,345.440467412469
2,104,4,530,-0.5,0.5,0.5,2,3,0.4,2,723,1,1,723,1,0,0.4,0.2,-0.355895188964688,-0.355895188964688,750,0,0,incongruent,0.1,778.083902186754,957.693947402925
2,104,4,533,0.5,0.5,-0.5,4,4,0.6,4,669,1,1,669,1,0,1.2,NaN,-0.771565343877779,-0.771565343877779,750,1,0,congruent,1,1473.98534960269,394.102342389186
2,104,4,534,0.5,-0.5,-0.5,2,2,0.6,2,714,1,1,714,0,0,1.2,NaN,-0.42517354811687,-0.42517354811687,750,1,0,congruent,0,1239.87568491034,571.514254761676
2,104,4,535,0.5,-0.5,0,3,NaN,0.6,3,784,1,0,784,1,0,1.2,NaN,0.113658134177878,0.113658134177878,750,0,0,neutral,1,1128.28170077694,412.217193689573
2,104,4,536,-0.5,-0.5,0.5,4,3,0.6,1,826,0,0,NaN,1,0,1.4,0.4,0.436957143554726,NaN,750,0,1,incongruent,0.1,281.365441684355,498.451840146257
2,104,4,537,-0.5,0.5,-0.5,1,1,0.6,4,844,0,0,NaN,0,0,1.4,0.4,0.57551386185909,NaN,750,0,1,congruent,0,922.352769327571,317.448131531597
2,104,4,538,-0.5,-0.5,0,4,NaN,0.4,3,670,0,1,NaN,0,0,1,0.6,-0.763867748416425,NaN,750,0,1,neutral,0,231.090360889887,1278.12987498396
2,104,4,539,0.5,-0.5,-0.5,2,2,0.4,2,734,1,1,734,1,0,0.6,NaN,-0.271221638889799,-0.271221638889799,750,1,0,congruent,1,974.376392757435,289.011878678178
2,104,4,540,-0.5,-0.5,-0.5,1,1,0.4,1,711,1,1,711,1,0,1,0.6,-0.44826633450093,-0.44826633450093,750,1,0,congruent,0.1,641.785641221226,172.220549952578
2,104,4,541,-0.5,-0.5,0.5,4,3,0.4,3,860,0,0,NaN,0,0,0.8,0.6,0.698675389240747,NaN,750,1,0,incongruent,0,756.468442794755,159.394450065062
2,104,4,542,0.5,-0.5,0,2,NaN,0.4,2,871,1,0,871,1,0,0.6,NaN,0.783348939315636,0.783348939315636,750,0,0,neutral,1,717.852386104303,441.520053151955
2,104,4,543,-0.5,-0.5,0.5,3,4,0.4,3,822,1,0,822,1,0,1,0.6,0.406166761709312,0.406166761709312,750,0,0,incongruent,0.1,198.828784410079,455.231156553258
2,104,4,544,-0.5,-0.5,0,2,NaN,0.4,2,875,1,0,875,1,0,1.2,0.6,0.81413932116105,0.81413932116105,750,0,0,neutral,0.1,552.324694350598,392.442453666546
2,104,4,545,-0.5,0.5,-0.5,1,1,0.4,1,595,1,1,595,1,0,1,0.4,-1.34118740801794,-1.34118740801794,750,1,0,congruent,0.1,276.315728210401,913.906856959447
2,104,4,546,-0.5,0.5,0,3,NaN,0.6,3,869,1,0,869,0,0,1,0.6,0.767953748392929,0.767953748392929,750,0,0,neutral,0,469.480551900302,811.033789519464
2,104,4,547,0.5,0.5,0.5,4,2,0.6,2,928,0,0,NaN,0,0,1,NaN,1.22211188061279,NaN,750,1,0,incongruent,0,1005.25285927624,323.020185245056
2,104,4,548,0.5,-0.5,0,1,NaN,0.4,1,885,1,0,885,0,0,0.6,NaN,0.891115275774585,0.891115275774585,750,0,0,neutral,0,593.259613422218,410.59113922786
2,104,4,549,-0.5,0.5,-0.5,2,2,0.4,3,747,0,1,NaN,0,0,0.4,0.4,-0.171152897892203,NaN,750,0,1,congruent,0,1044.47119810921,1377.08920781387
2,104,4,550,0.5,0.5,-0.5,1,1,0.2,1,542,1,1,542,1,0,0.2,NaN,-1.74915996746968,-1.74915996746968,750,1,0,congruent,1,618.216549621107,268.786246311128
2,104,4,551,-0.5,0.5,0.5,2,3,0.4,2,743,1,1,743,1,0,0.4,0.4,-0.201943279737617,-0.201943279737617,750,0,0,incongruent,0.1,1098.78166513244,998.194886604289
2,104,4,552,-0.5,-0.5,0,1,NaN,0.4,1,549,1,1,549,0,0,0.6,0.6,-1.6952767992402,-1.6952767992402,750,0,0,neutral,0,671.872630289927,700.860368543107
2,104,4,553,0.5,0.5,-0.5,3,3,0.4,3,893,1,0,893,0,0,0.6,NaN,0.952696039465413,0.952696039465413,750,1,0,congruent,0,1752.83582924817,488.619378111035
2,104,4,554,-0.5,-0.5,0.5,2,1,0.4,2,794,1,0,794,0,0,0.6,0.6,0.190634088791413,0.190634088791413,750,0,0,incongruent,0,192.893306968693,203.198639825086
2,104,4,555,-0.5,0.5,0,1,NaN,0.4,1,601,1,1,601,1,0,0.6,0.4,-1.29500183524982,-1.29500183524982,750,0,0,neutral,0.1,655.694021754406,348.515805272479
2,104,4,556,-0.5,-0.5,-0.5,2,2,0.6,3,672,0,1,NaN,1,0,0.4,0.4,-0.748472557493718,NaN,750,0,1,congruent,0.1,371.315723720823,783.42288521319
2,104,4,557,-0.5,0.5,0,3,NaN,0.6,3,843,1,0,843,0,0,0.4,0.6,0.567816266397737,0.567816266397737,750,0,0,neutral,0,295.957019214825,1149.51884243821
2,104,4,558,-0.5,0.5,-0.5,2,2,0.6,2,749,1,1,749,1,0,0.4,0.4,-0.155757706969496,-0.155757706969496,750,1,0,congruent,0.1,1718.86125225223,363.896402075476
2,104,4,559,-0.5,-0.5,-0.5,4,4,0.6,3,838,0,0,NaN,1,0,0.6,0.6,0.529328289090969,NaN,750,0,1,congruent,0.1,550.776661040045,353.23588491888
2,104,4,560,0.5,0.5,-0.5,3,3,0.6,3,763,1,0,763,0,0,0.8,NaN,-0.0479913705105465,-0.0479913705105465,750,1,0,congruent,0,757.699223322966,915.93425600313
2,104,4,561,-0.5,-0.5,-0.5,1,1,0.4,1,581,1,1,581,0,0,0.6,0.6,-1.44895374447689,-1.44895374447689,750,1,0,congruent,0,902.188526700671,188.339025608419
2,104,4,562,-0.5,-0.5,0,3,NaN,0.4,3,759,1,0,759,0,0,0.4,0.4,-0.0787817523559606,-0.0787817523559606,750,0,0,neutral,0,707.11256065417,799.515042543444
2,104,4,564,-0.5,0.5,0.5,2,3,0.4,2,748,1,1,748,1,0,0.2,0.6,-0.16345530243085,-0.16345530243085,750,0,0,incongruent,0.1,1182.07274483459,321.582396985145
2,104,4,565,0.5,0.5,0,4,NaN,0.4,3,608,0,1,NaN,0,0,0.2,NaN,-1.24111866702034,NaN,750,0,1,neutral,0,659.755634624246,498.577184910185
2,104,4,566,-0.5,0.5,-0.5,3,3,0.4,3,894,1,0,894,0,0,0.2,0.8,0.960393634926767,0.960393634926767,750,1,0,congruent,0,405.709209542966,294.740187690045
2,104,4,567,0.5,-0.5,-0.5,2,2,0.2,2,913,1,0,913,0,0,0.2,NaN,1.10664794869248,1.10664794869248,750,1,0,congruent,0,386.324169618373,185.510635292436
2,104,4,568,-0.5,-0.5,0.5,3,1,0.2,3,602,1,1,602,0,0,0.2,0.4,-1.28730423978847,-1.28730423978847,750,0,0,incongruent,0,2572.91523462097,1245.49626088958
2,104,4,569,0.5,0.5,-0.5,4,4,0.2,1,634,0,1,NaN,0,0,0.2,NaN,-1.04098118502515,NaN,750,0,1,congruent,0,267.077332245941,918.243552257308
2,104,4,570,0.5,0.5,0.5,3,1,0.2,2,653,0,1,NaN,0,0,0,NaN,-0.894726871259436,NaN,750,0,1,incongruent,0,324.085310253833,549.682603446
2,104,4,571,-0.5,0.5,-0.5,4,4,0.2,4,850,1,0,850,0,0,0,0.6,0.621699434627211,0.621699434627211,750,1,0,congruent,0,1803.29269443694,303.186882424217
2,104,4,572,-0.5,0.5,0,3,NaN,0,1,660,0,1,NaN,0,0,0,0.4,-0.840843703029961,NaN,750,0,1,neutral,0,267.255216318029,1723.75041618247
2,104,4,573,0.5,-0.5,0.5,1,3,0,2,793,0,0,NaN,0,0,0,NaN,0.18293649333006,NaN,750,0,1,incongruent,0,1170.58447687382,781.002984058499
2,104,4,574,-0.5,-0.5,0,3,NaN,0,3,731,1,1,731,0,0,0,0.4,-0.29431442527386,-0.29431442527386,750,0,0,neutral,0,186.093139782269,367.974497586956
2,104,4,575,-0.5,-0.5,-0.5,1,1,0,1,799,1,0,799,0,0,0,0.2,0.229122066098181,0.229122066098181,750,1,0,congruent,0,404.317988609854,388.201499807935
2,104,4,576,0.5,-0.5,0,4,NaN,0,4,785,1,0,785,0,0,0,NaN,0.121355729639231,0.121355729639231,750,0,0,neutral,0,1356.5889351506,1887.01235458383
2,104,4,577,-0.5,-0.5,-0.5,2,2,0,3,765,0,0,NaN,0,0,0,0,-0.0325961795878394,NaN,750,0,1,congruent,0,446.569159726313,439.423991263674
2,104,4,578,0.5,0.5,0,1,NaN,0,1,948,1,0,948,0,0,0,NaN,1.37606378983986,1.37606378983986,750,0,0,neutral,0,306.418114603714,176.762445732362
2,104,4,579,0.5,-0.5,-0.5,4,4,0,2,679,0,1,NaN,0,0,0,NaN,-0.694589389264244,NaN,750,0,1,congruent,0,1571.31181295914,720.740176720387
2,104,4,580,0.5,0.5,0.5,1,2,0,1,755,1,0,755,0,0,0,NaN,-0.109572134201375,-0.109572134201375,750,0,0,incongruent,0,230.038349267028,388.943292168476
2,104,4,582,-0.5,0.5,-0.5,3,3,0,3,812,1,0,812,0,0,0,0.4,0.329190807095777,0.329190807095777,750,1,0,congruent,0,272.698725525655,1211.06237406462
2,104,4,583,-0.5,-0.5,0.5,4,2,0,4,858,1,0,858,0,0,0,0,0.68328019831804,0.68328019831804,750,0,0,incongruent,0,195.926613889342,80.9653263718003
2,104,4,584,-0.5,0.5,-0.5,3,3,0,2,976,0,0,NaN,0,0,0,0.2,1.59159646275776,NaN,750,0,1,congruent,0,789.538695851978,909.394947725608
2,104,4,585,-0.5,0.5,0,4,NaN,0,1,712,0,1,NaN,0,0,0,0,-0.440568739039577,NaN,750,0,1,neutral,0,1085.31613270173,344.088542773581
2,104,4,586,0.5,-0.5,-0.5,2,2,0,3,946,0,0,NaN,0,0,0,NaN,1.36066859891715,NaN,750,0,1,congruent,0,305.059241198689,743.653886423622
2,104,4,587,-0.5,0.5,0,1,NaN,0,1,849,1,0,849,0,0,0,0,0.614001839165858,0.614001839165858,750,0,0,neutral,0,774.484847024378,702.325639745901
2,104,4,588,-0.5,-0.5,0.5,4,3,0,2,692,0,1,NaN,0,0,0,0,-0.594520648266648,NaN,750,0,1,incongruent,0,1356.32862287634,481.51853760821
2,104,4,589,-0.5,-0.5,-0.5,2,2,0,2,659,1,1,659,0,0,0,0,-0.848541298491314,-0.848541298491314,750,1,0,congruent,0,635.768144614695,565.521328468693
2,104,4,590,0.5,-0.5,0.5,3,1,0,1,888,0,0,NaN,0,0,0,NaN,0.914208062158646,NaN,750,1,0,incongruent,0,575.452280058661,622.414446597631
2,104,4,591,0.5,0.5,0.5,2,4,0,3,774,0,0,NaN,0,0,0,NaN,0.0366821795643425,NaN,750,0,1,incongruent,0,1269.39691326959,320.35502147634
2,104,4,592,0.5,-0.5,0.5,4,3,0,4,853,1,0,853,0,0,0,NaN,0.644792221011272,0.644792221011272,750,0,0,incongruent,0,1407.21486980499,1003.59026166888
2,104,4,594,0.5,0.5,0.5,1,3,0,1,639,1,1,639,1,0,0,NaN,-1.00249320771839,-1.00249320771839,750,0,0,incongruent,1,1017.79306955197,224.452485218505
2,104,4,595,-0.5,-0.5,-0.5,2,2,0.2,3,836,0,0,NaN,0,0,0.4,0,0.513933098168262,NaN,750,0,1,congruent,0,272.316735047913,508.652343507888
2,104,4,597,0.5,-0.5,-0.5,2,2,0.2,1,768,0,0,NaN,0,0,0.4,NaN,-0.00950339320377876,NaN,750,0,1,congruent,0,1368.53932943441,1449.50158960022
2,104,4,598,-0.5,0.5,-0.5,1,1,0.2,1,614,1,1,614,1,0,0.4,0,-1.19493309425222,-1.19493309425222,750,1,0,congruent,0.1,528.437283597816,198.012774331478
2,104,4,599,-0.5,0.5,0,2,NaN,0.4,2,719,1,1,719,1,0,0.6,0.2,-0.386685570810102,-0.386685570810102,750,0,0,neutral,0.1,684.704575941137,585.038399443293
2,104,4,600,-0.5,0.5,-0.5,3,3,0.6,3,620,1,1,620,1,0,0.4,0.4,-1.1487475214841,-1.1487475214841,750,1,0,congruent,0.1,206.252266450267,1202.33010998777
