subid,vers,block,trial,rewlvl,efflvl,congruency,targetresp,distractorresp,rollingefflvl,resp,rt,acc,fast,accrt,isrewarded,ismiss,runavgrrgen,runavgrrcond,zrt,acczrt,rtthreshold,isdisterror,isranderror,congruence,feedback,fcz_resp_theta,fcz_resp_theta_baseline
3,104,1,1,0.5,0.5,0,4,NaN,0.4,4,592,1,1,592,1,0,0,NaN,-0.743321199844042,-0.743321199844042,750,0,0,neutral,1,2786.43672731446,1305.84853443702
3,104,1,2,0.5,0.5,-0.5,2,2,0.4,2,787,1,0,787,0,0,0.4,NaN,0.771712192238202,0.771712192238202,750,1,0,congruent,0,4760.93828558165,3382.05650282521
3,104,1,3,-0.5,0.5,0.5,1,3,0.4,3,650,0,1,NaN,0,0,0.4,0,-0.292695883224708,NaN,750,1,0,incongruent,0,7590.20734125445,13596.1263740011
3,104,1,4,-0.5,-0.5,0.5,3,4,0.3,3,772,1,0,772,0,0,0.4,0,0.65517116207803,0.65517116207803,750,0,0,incongruent,0,2389.96648382426,10387.7866446327
3,104,1,6,-0.5,0.5,-0.5,4,4,0.2,4,739,1,1,739,1,0,0.4,0,0.39878089572565,0.39878089572565,750,1,0,congruent,0.1,8881.9501791541,14295.5028597336
3,104,1,7,-0.5,-0.5,0.5,2,1,0.4,2,746,1,1,746,1,0,0.2,0,0.453166709800397,0.453166709800397,750,0,0,incongruent,0.1,2751.34402951296,3218.63952003959
3,104,1,8,-0.5,-0.5,0.5,1,2,0.4,1,672,1,1,672,0,0,0.4,0.2,-0.121769038989788,-0.121769038989788,750,0,0,incongruent,0,3024.19351478849,17528.7766242196
3,104,1,9,0.5,-0.5,-0.5,4,4,0.4,4,699,1,1,699,1,0,0.4,NaN,0.0880048152985226,0.0880048152985226,750,1,0,congruent,1,2295.23797217346,8103.35093525192
3,104,1,10,0.5,-0.5,0,2,NaN,0.4,2,764,1,0,764,0,0,0.8,NaN,0.593015945992604,0.593015945992604,750,0,0,neutral,0,16848.6638871352,2962.63498971405
3,104,1,11,-0.5,-0.5,0.5,4,1,0.4,4,707,1,1,707,0,0,0.8,0.2,0.150160031383948,0.150160031383948,750,0,0,incongruent,0,8623.80320694204,13614.091646103
3,104,1,12,-0.5,0.5,0,1,NaN,0.4,1,740,1,1,740,1,0,0.6,0.2,0.406550297736328,0.406550297736328,750,0,0,neutral,0.1,4332.73593309628,6364.73564942859
3,104,1,14,-0.5,0.5,0,1,NaN,0.4,1,921,1,0,921,0,0,0.6,0.4,1.81281206166908,1.81281206166908,750,0,0,neutral,0,2021.39629718567,14551.8672512798
3,104,1,15,0.5,-0.5,-0.5,3,3,0.4,3,735,1,1,735,1,0,0.2,NaN,0.367703287682937,0.367703287682937,750,1,0,congruent,1,4531.99822328571,4840.31321949986
3,104,1,16,0.5,0.5,0.5,4,2,0.4,4,678,1,1,678,1,0,0.6,NaN,-0.0751526269257191,-0.0751526269257191,750,0,0,incongruent,1,3781.29905698641,14827.2283872833
3,104,1,17,-0.5,-0.5,0,2,NaN,0.6,2,804,1,0,804,1,0,1,0.2,0.903792026419731,0.903792026419731,750,0,0,neutral,0.1,8589.36238480781,8309.10276569926
3,104,1,18,0.5,-0.5,-0.5,4,4,0.6,4,759,1,0,759,1,0,1,NaN,0.554168935939213,0.554168935939213,750,1,0,congruent,1,4039.13617829373,13344.1195052748
3,104,1,19,0.5,-0.5,-0.5,3,3,0.6,3,597,1,1,597,1,0,1.4,NaN,-0.704474189790651,-0.704474189790651,750,1,0,congruent,1,2907.99741141521,8021.51380656413
3,104,1,21,-0.5,-0.5,-0.5,1,1,0.6,1,645,1,1,645,1,0,1.4,0.2,-0.331542893278099,-0.331542893278099,750,1,0,congruent,0.1,7609.0918458283,4083.71779445236
3,104,1,22,-0.5,-0.5,-0.5,2,2,0.6,2,566,1,1,566,1,0,1.2,0.4,-0.945325652121675,-0.945325652121675,750,1,0,congruent,0.1,4520.38095746024,5585.94392126028
3,104,1,23,0.5,0.5,0,3,NaN,0.6,3,672,1,1,672,1,0,1.2,NaN,-0.121769038989788,-0.121769038989788,750,0,0,neutral,1,4888.74521070667,2451.54847956218
3,104,1,24,0.5,-0.5,-0.5,2,2,0.8,2,785,1,0,785,1,0,1.2,NaN,0.756173388216846,0.756173388216846,750,1,0,congruent,1,8899.99890851732,7532.39391598693
3,104,1,25,0.5,0.5,0.5,1,4,0.8,4,659,0,1,NaN,0,0,1.2,NaN,-0.222771265128604,NaN,750,1,0,incongruent,0,9942.60925603409,1609.6700043501
3,104,1,26,-0.5,-0.5,0.5,3,1,0.6,3,692,1,1,692,1,0,1.2,0.6,0.0336190012237754,0.0336190012237754,750,0,0,incongruent,0.1,11900.5034186314,10654.7350034052
3,104,1,27,0.5,-0.5,0,2,NaN,0.6,2,818,1,0,818,0,0,1.2,NaN,1.01256365456923,1.01256365456923,750,0,0,neutral,0,4083.92030761873,9171.50384878247
3,104,1,28,0.5,-0.5,-0.5,4,4,0.6,4,962,1,0,962,1,0,1,NaN,2.13135754410688,2.13135754410688,750,1,0,congruent,1,3034.42752462204,5978.67090855775
3,104,1,29,0.5,0.5,0,2,NaN,0.6,2,866,1,0,866,0,0,1,NaN,1.38549495108178,1.38549495108178,750,0,0,neutral,0,3168.90679339868,6028.61290049338
3,104,1,31,-0.5,-0.5,-0.5,4,4,0.4,4,649,1,1,649,0,0,0.6,0.8,-0.300465285235386,-0.300465285235386,750,1,0,congruent,0,16514.876232421,19855.8134487798
3,104,1,32,0.5,-0.5,-0.5,3,3,0.4,3,581,1,1,581,1,0,0.4,NaN,-0.828784621961502,-0.828784621961502,750,1,0,congruent,1,4884.59649545362,9590.99706188707
3,104,1,33,0.5,0.5,-0.5,1,1,0.4,1,714,1,1,714,1,0,0.8,NaN,0.204545845458695,0.204545845458695,750,1,0,congruent,1,1008.6397012983,2086.97021784402
3,104,1,34,-0.5,-0.5,0,2,NaN,0.4,2,628,1,1,628,0,0,0.8,0.6,-0.463622727459628,-0.463622727459628,750,0,0,neutral,0,3274.7080312843,98778.2926598887
3,104,1,35,-0.5,-0.5,0.5,3,1,0.4,3,763,1,0,763,0,0,0.8,0.6,0.585246543981926,0.585246543981926,750,0,0,incongruent,0,2397.30814785965,1151.20423847058
3,104,1,36,-0.5,-0.5,0.5,2,4,0.4,4,765,0,0,NaN,0,0,0.8,0.4,0.600785348003282,NaN,750,1,0,incongruent,0,14331.4896654873,11927.5615489664
3,104,1,37,-0.5,0.5,0.5,3,2,0.4,3,918,1,0,918,0,0,0.8,0.4,1.78950385563704,1.78950385563704,750,0,0,incongruent,0,2452.03737219732,1874.26942592791
3,104,1,38,0.5,0.5,0.5,4,1,0.2,4,898,1,0,898,0,0,0.4,NaN,1.63411581542348,1.63411581542348,750,0,0,incongruent,0,2089.46341322978,8384.11002970349
3,104,1,39,0.5,0.5,0,2,NaN,0.2,2,715,1,1,715,1,0,0,NaN,0.212315247469373,0.212315247469373,750,0,0,neutral,1,4419.29016951648,21970.519360976
3,104,1,40,-0.5,-0.5,-0.5,4,4,0.4,4,671,1,1,671,1,0,0.4,0.2,-0.129538441000466,-0.129538441000466,750,1,0,congruent,0.1,12298.3568489451,3096.87959102536
3,104,1,41,-0.5,-0.5,-0.5,2,2,0.4,1,555,0,1,NaN,1,0,0.6,0.2,-1.03078907423913,NaN,750,0,1,congruent,0.1,10507.7731206637,2905.97073447617
3,104,1,42,0.5,0.5,0.5,4,1,0.4,4,731,1,1,731,1,0,0.8,NaN,0.336625679640224,0.336625679640224,750,0,0,incongruent,1,7285.08955282051,3838.67367117789
3,104,1,44,-0.5,0.5,0,4,NaN,0.6,4,505,1,1,505,1,0,1.6,0.4,-1.41925917477304,-1.41925917477304,750,0,0,neutral,0.1,7666.32648012958,5642.56952706282
3,104,1,45,0.5,-0.5,-0.5,2,2,0.6,2,823,1,0,823,1,0,1.4,NaN,1.05141066462262,1.05141066462262,750,1,0,congruent,1,14727.025628039,19066.9210885508
3,104,1,46,0.5,0.5,0.5,1,3,0.6,1,988,1,0,988,0,0,1.6,NaN,2.33336199638452,2.33336199638452,750,0,0,incongruent,0,1553.23016775583,5798.98944602257
3,104,1,48,0.5,0.5,0,3,NaN,0.6,3,639,1,1,639,1,0,1,NaN,-0.378159305342168,-0.378159305342168,750,0,0,neutral,1,8966.96285867121,3397.3328411318
3,104,1,49,-0.5,0.5,-0.5,2,2,0.6,2,683,1,1,683,1,0,1,0.6,-0.0363056168723282,-0.0363056168723282,750,1,0,congruent,0.1,3727.45431103488,5060.9535997127
3,104,1,51,-0.5,0.5,-0.5,2,2,0.6,1,801,0,0,NaN,0,0,0.6,0.6,0.880483820387697,NaN,750,0,1,congruent,0,12453.3163364064,3026.5742400214
3,104,1,53,0.5,0.5,-0.5,4,4,0.4,4,778,1,0,778,0,0,0.8,NaN,0.701787574142099,0.701787574142099,750,1,0,congruent,0,3606.00431713473,15401.8878855458
3,104,1,54,-0.5,0.5,-0.5,2,2,0.4,2,757,1,0,757,0,0,0.4,0.4,0.538630131917857,0.538630131917857,750,1,0,congruent,0,4075.3796379796,3653.51613730348
3,104,1,56,0.5,0.5,-0.5,2,2,0.2,2,748,1,1,748,1,0,0.2,NaN,0.468705513821753,0.468705513821753,750,1,0,congruent,1,13565.890561071,4874.08725928422
3,104,1,58,-0.5,0.5,-0.5,1,1,0.2,1,909,1,0,909,0,0,0.4,0.2,1.71957923754094,1.71957923754094,750,1,0,congruent,0,2916.46820702946,1847.18230029989
3,104,1,59,0.5,-0.5,0.5,2,3,0.2,2,748,1,1,748,0,0,0.4,NaN,0.468705513821753,0.468705513821753,750,0,0,incongruent,0,3887.21664056071,12282.4416416184
3,104,1,60,0.5,0.5,0.5,3,4,0.2,3,723,1,1,723,1,0,0.4,NaN,0.274470463554799,0.274470463554799,750,0,0,incongruent,1,4526.4401495144,2653.23240161848
3,104,1,61,0.5,0.5,0,1,NaN,0.4,1,500,1,1,500,1,0,0.8,NaN,-1.45810618482643,-1.45810618482643,750,0,0,neutral,1,2352.97382535775,4546.68370606233
3,104,1,62,0.5,0.5,-0.5,2,2,0.6,2,470,1,1,470,1,0,0.8,NaN,-1.69118824514678,-1.69118824514678,750,1,0,congruent,1,3594.9510673975,2169.05293384152
3,104,1,63,0.5,0.5,0.5,3,1,0.6,3,641,1,1,641,1,0,1.2,NaN,-0.362620501320812,-0.362620501320812,750,0,0,incongruent,1,6992.67122899773,6552.87714308656
3,104,1,64,0.5,0.5,0,1,NaN,0.8,1,616,1,1,616,1,0,1.6,NaN,-0.556855551587766,-0.556855551587766,750,0,0,neutral,1,2479.09184010063,6529.57842711298
3,104,1,65,0.5,-0.5,-0.5,3,3,1,3,527,1,1,527,1,0,2,NaN,-1.24833233053812,-1.24833233053812,750,1,0,congruent,1,5334.05875233338,2719.41093495934
3,104,1,66,-0.5,0.5,-0.5,2,2,1,2,528,1,1,528,1,0,2,0,-1.24056292852745,-1.24056292852745,750,1,0,congruent,0.1,4688.70640366731,6653.55328024881
3,104,1,67,-0.5,0.5,0.5,3,4,1,3,728,1,1,728,1,0,1.8,0.2,0.31331747360819,0.31331747360819,750,0,0,incongruent,0.1,10864.0536252678,1400.98148472188
3,104,1,68,-0.5,0.5,0.5,4,1,1,4,897,1,0,897,0,0,1.6,0.4,1.6263464134128,1.6263464134128,750,0,0,incongruent,0,4207.03959186958,6132.88008014892
3,104,1,69,-0.5,-0.5,0.5,3,4,0.8,3,658,1,1,658,1,0,1.2,0.6,-0.230540667139283,-0.230540667139283,750,0,0,incongruent,0.1,740.042963229103,3479.70516240466
3,104,1,70,0.5,0.5,0,1,NaN,0.8,1,547,1,1,547,1,0,1,NaN,-1.09294429032456,-1.09294429032456,750,0,0,neutral,1,10628.7386893779,8025.95202465778
3,104,1,71,0.5,-0.5,-0.5,4,4,0.8,4,956,1,0,956,1,0,1,NaN,2.08474113204281,2.08474113204281,750,1,0,congruent,1,5720.23243077833,4717.24746682018
3,104,1,73,-0.5,-0.5,-0.5,1,1,0.8,1,648,1,1,648,1,0,1.2,1,-0.308234687246064,-0.308234687246064,750,1,0,congruent,0.1,1624.75879509871,5670.60848261327
3,104,1,74,0.5,-0.5,-0.5,4,4,0.8,4,778,1,0,778,1,0,1.4,NaN,0.701787574142099,0.701787574142099,750,1,0,congruent,1,5783.25052737171,7673.22724240507
3,104,1,75,0.5,-0.5,-0.5,2,2,0.8,3,623,0,1,NaN,0,0,1.6,NaN,-0.502469737513019,NaN,750,0,1,congruent,0,12930.8170473941,1905.66178149066
3,104,1,76,0.5,0.5,0.5,3,4,0.8,3,611,1,1,611,1,0,1.2,NaN,-0.595702561641157,-0.595702561641157,750,0,0,incongruent,1,1819.67245752834,3432.49231704094
3,104,1,77,-0.5,0.5,-0.5,2,2,0.8,2,784,1,0,784,0,0,1.2,0.4,0.748403986206168,0.748403986206168,750,1,0,congruent,0,8134.91045239334,16375.3726206611
3,104,1,78,-0.5,-0.5,0,1,NaN,0.6,1,518,1,1,518,0,0,1,1,-1.31825694863423,-1.31825694863423,750,0,0,neutral,0,10926.1043247152,4481.43458617779
3,104,1,79,0.5,-0.5,-0.5,2,2,0.6,2,537,1,1,537,0,0,0.8,NaN,-1.17063831043134,-1.17063831043134,750,1,0,congruent,0,7268.90716284883,3710.75440907645
3,104,1,80,0.5,-0.5,0,4,NaN,0.6,4,578,1,1,578,1,0,0.4,NaN,-0.852092827993537,-0.852092827993537,750,0,0,neutral,1,17815.0347788153,40211.1186446528
3,104,1,81,0.5,-0.5,-0.5,3,3,0.6,3,516,1,1,516,1,0,0.8,NaN,-1.33379575265558,-1.33379575265558,750,1,0,congruent,1,1403.93124243903,3812.54709685945
3,104,1,82,-0.5,0.5,-0.5,2,2,0.6,2,636,1,1,636,1,0,0.8,0.4,-0.401467511374203,-0.401467511374203,750,1,0,congruent,0.1,6043.77811312216,4228.20271750451
3,104,1,84,-0.5,0.5,-0.5,2,2,0.6,2,525,1,1,525,1,0,1,0.6,-1.26387113455948,-1.26387113455948,750,1,0,congruent,0.1,3540.87304153772,2041.42336897619
3,104,1,85,-0.5,0.5,0.5,3,4,0.8,3,465,1,1,465,1,0,1.2,0.6,-1.73003525520017,-1.73003525520017,750,0,0,incongruent,0.1,6438.29838510976,913.386341857235
3,104,1,86,-0.5,0.5,0.5,1,3,0.8,1,522,1,1,522,1,0,1,0.6,-1.28717934059151,-1.28717934059151,750,0,0,incongruent,0.1,7871.82675913387,2674.45826889009
3,104,1,88,0.5,0.5,-0.5,1,1,0.8,1,779,1,0,779,0,0,0.8,NaN,0.709556976152777,0.709556976152777,750,1,0,congruent,0,2749.95610280824,8254.00116346484
3,104,1,89,-0.5,-0.5,0,4,NaN,0.8,4,999,1,0,999,1,0,0.8,0.6,2.41882541850198,2.41882541850198,750,0,0,neutral,0.1,3926.76997317978,9355.96947423851
3,104,1,90,0.5,0.5,0.5,3,1,0.8,3,600,1,1,600,1,0,0.8,NaN,-0.681165983758617,-0.681165983758617,750,0,0,incongruent,1,2373.11063346163,4392.18049729448
3,104,1,91,0.5,-0.5,0.5,1,4,0.8,2,921,0,0,NaN,0,0,1,NaN,1.81281206166908,NaN,750,0,1,incongruent,0,3141.68204389988,2767.82732419179
3,104,1,92,-0.5,-0.5,0,3,NaN,0.8,3,984,1,0,984,1,0,0.8,0.6,2.3022843883418,2.3022843883418,750,0,0,neutral,0.1,4578.41992326665,4826.86523473158
3,104,1,93,0.5,-0.5,-0.5,2,2,0.8,2,733,1,1,733,1,0,0.8,NaN,0.352164483661581,0.352164483661581,750,1,0,congruent,1,6581.52242554415,1564.35088821753
3,104,1,94,-0.5,-0.5,-0.5,1,1,0.8,1,585,1,1,585,1,0,1.2,0.6,-0.79770701391879,-0.79770701391879,750,1,0,congruent,0.1,4061.24386367642,2299.23152778781
3,104,1,96,0.5,-0.5,0.5,1,4,0.8,1,766,1,0,766,1,0,1.2,NaN,0.60855475001396,0.60855475001396,750,0,0,incongruent,1,14734.2799461877,1709.6156067864
3,104,1,98,-0.5,-0.5,0.5,3,2,0.6,3,479,1,1,479,1,0,1.4,0.8,-1.62126362705068,-1.62126362705068,750,0,0,incongruent,0.1,7404.02283905903,5168.13162533395
3,104,1,99,-0.5,-0.5,-0.5,1,1,0.6,1,855,1,0,855,1,0,1.2,1,1.30003152896432,1.30003152896432,750,1,0,congruent,0.1,3942.00085084216,9253.05265995957
3,104,1,100,0.5,0.5,-0.5,2,2,0.6,2,898,1,0,898,0,0,1.2,NaN,1.63411581542348,1.63411581542348,750,1,0,congruent,0,5556.714971043,1645.32615143556
3,104,1,103,0.5,0.5,0.5,2,1,0.4,2,853,1,0,853,0,0,0.6,NaN,1.28449272494296,1.28449272494296,750,0,0,incongruent,0,10757.1689639555,4193.8111897256
3,104,1,104,0.5,0.5,0.5,1,2,0.4,1,649,1,1,649,1,0,0.4,NaN,-0.300465285235386,-0.300465285235386,750,0,0,incongruent,1,2175.748159824,3652.29588251728
3,104,1,105,-0.5,0.5,-0.5,3,3,0.4,3,542,1,1,542,1,0,0.6,0.8,-1.13179130037795,-1.13179130037795,750,1,0,congruent,0.1,11620.0721529675,3597.88645846217
3,104,1,106,-0.5,0.5,-0.5,4,4,0.4,4,708,1,1,708,1,0,0.8,0.8,0.157929433394626,0.157929433394626,750,1,0,congruent,0.1,362.846189213398,13755.0933755576
3,104,1,107,-0.5,0.5,0.5,3,2,0.6,3,732,1,1,732,1,0,0.8,0.8,0.344395081650902,0.344395081650902,750,0,0,incongruent,0.1,3474.88123763387,1869.35725957261
3,104,1,108,-0.5,0.5,0.5,4,3,0.8,4,767,1,0,767,0,0,1,0.8,0.616324152024639,0.616324152024639,750,0,0,incongruent,0,4557.72456333593,11015.900291251
3,104,1,109,0.5,-0.5,0,1,NaN,0.8,1,966,1,0,966,1,0,1,NaN,2.1624351521496,2.1624351521496,750,0,0,neutral,1,2981.95492341543,2271.59720014195
3,104,1,110,-0.5,-0.5,-0.5,3,3,0.8,3,588,1,1,588,0,0,1,1,-0.774398807886755,-0.774398807886755,750,1,0,congruent,0,7247.03106675225,6856.07492960374
3,104,1,112,0.5,0.5,0,3,NaN,0.8,3,626,1,1,626,1,0,0.8,NaN,-0.479161531480984,-0.479161531480984,750,0,0,neutral,1,5472.18515915206,16262.741789383
3,104,1,113,-0.5,0.5,-0.5,2,2,0.8,2,716,1,1,716,1,0,1,0.6,0.220084649480052,0.220084649480052,750,1,0,congruent,0.1,5063.91735505073,4650.10529109445
3,104,1,114,0.5,-0.5,0,4,NaN,0.8,4,734,1,1,734,1,0,1.2,NaN,0.359933885672259,0.359933885672259,750,0,0,neutral,1,7050.7591748579,5510.9114280201
3,104,1,115,0.5,-0.5,-0.5,1,1,0.8,1,609,1,1,609,1,0,1.2,NaN,-0.611241365662513,-0.611241365662513,750,1,0,congruent,1,1297.92864370915,5358.23496407796
3,104,1,117,0.5,-0.5,0.5,2,1,0.8,2,868,1,0,868,1,0,1.6,NaN,1.40103375510313,1.40103375510313,750,0,0,incongruent,1,2708.38822105488,5289.6385671771
3,104,1,118,0.5,0.5,0.5,3,4,0.8,3,703,1,1,703,1,0,1.6,NaN,0.119082423341235,0.119082423341235,750,0,0,incongruent,1,5749.98512354343,1565.83300063515
3,104,1,120,0.5,0.5,0,3,NaN,0.6,4,659,0,1,NaN,0,0,1.4,NaN,-0.222771265128604,NaN,750,0,1,neutral,0,2463.52530736702,4733.68087113077
3,104,1,121,0.5,-0.5,0.5,2,3,0.6,2,483,1,1,483,0,0,1,NaN,-1.59018601900796,-1.59018601900796,750,0,0,incongruent,0,6470.47485526267,3034.87624174286
3,104,1,122,-0.5,0.5,-0.5,4,4,0.6,4,525,1,1,525,1,0,0.8,0.6,-1.26387113455948,-1.26387113455948,750,1,0,congruent,0.1,874.193634529758,3020.43682112432
3,104,1,123,-0.5,-0.5,0.5,3,1,0.6,3,650,1,1,650,0,0,0.6,0.8,-0.292695883224708,-0.292695883224708,750,0,0,incongruent,0,5016.73045190199,5781.63094811397
3,104,1,124,-0.5,0.5,0.5,2,3,0.6,2,532,1,1,532,1,0,0.2,0.6,-1.20948532048473,-1.20948532048473,750,0,0,incongruent,0.1,1683.8313736208,5105.40225951063
3,104,1,125,-0.5,0.5,0.5,3,4,0.6,3,636,1,1,636,1,0,0.4,0.6,-0.401467511374203,-0.401467511374203,750,0,0,incongruent,0.1,7798.63282247388,2915.86240041752
3,104,1,126,-0.5,0.5,-0.5,2,2,0.6,2,621,1,1,621,1,0,0.6,0.8,-0.518008541534375,-0.518008541534375,750,1,0,congruent,0.1,4351.54456807802,6694.75489995457
3,104,1,127,-0.5,0.5,0,4,NaN,0.8,4,852,1,0,852,0,0,0.8,0.8,1.27672332293228,1.27672332293228,750,0,0,neutral,0,4944.00524832076,9203.13364837948
3,104,1,128,-0.5,-0.5,0.5,3,1,0.8,3,523,1,1,523,1,0,0.6,0.6,-1.27940993858084,-1.27940993858084,750,0,0,incongruent,0.1,6671.4064346491,1761.89457545587
3,104,1,129,-0.5,0.5,0.5,4,3,0.8,4,841,1,0,841,0,0,0.8,0.8,1.19125990081482,1.19125990081482,750,0,0,incongruent,0,3447.06297394376,11768.2281956351
3,104,1,130,0.5,-0.5,0,1,NaN,0.6,1,690,1,1,690,0,0,0.6,NaN,0.0180801972024191,0.0180801972024191,750,0,0,neutral,0,3982.57577260893,12139.195878519
3,104,1,133,0.5,-0.5,-0.5,1,1,0.6,1,564,1,1,564,0,0,0.8,NaN,-0.960864456143031,-0.960864456143031,750,1,0,congruent,0,4338.83369553997,1942.42673333191
3,104,1,135,-0.5,-0.5,0,1,NaN,0.4,1,608,1,1,608,0,0,0.6,0.8,-0.619010767673191,-0.619010767673191,750,0,0,neutral,0,2341.59449012107,4455.10577373891
3,104,1,136,0.5,-0.5,-0.5,2,2,0.4,2,503,1,1,503,0,0,0.6,NaN,-1.4347979787944,-1.4347979787944,750,1,0,congruent,0,7279.45259219041,1576.58363035922
3,104,1,137,0.5,0.5,-0.5,4,4,0.4,4,546,1,1,546,1,0,0.2,NaN,-1.10071369233524,-1.10071369233524,750,1,0,congruent,1,8498.71128815953,4384.08292552471
3,104,1,138,-0.5,-0.5,-0.5,2,2,0.4,2,573,1,1,573,0,0,0.4,0.6,-0.890939838046928,-0.890939838046928,750,1,0,congruent,0,1018.33874065904,7443.05297956298
3,104,1,139,0.5,-0.5,0.5,4,3,0.4,3,865,0,0,NaN,1,0,0.4,NaN,1.3777255490711,NaN,750,1,0,incongruent,1,16191.1185703322,4976.23156908133
3,104,1,140,0.5,0.5,0,3,NaN,0.4,3,745,1,1,745,1,0,0.8,NaN,0.445397307789719,0.445397307789719,750,0,0,neutral,1,1434.1700884575,4668.78139107454
3,104,1,144,0.5,-0.5,-0.5,2,2,0.4,2,527,1,1,527,1,0,1.2,NaN,-1.24833233053812,-1.24833233053812,750,1,0,congruent,1,5759.29076639662,4080.13047148895
3,104,1,145,0.5,0.5,0.5,4,3,0.4,4,725,1,1,725,1,0,1.2,NaN,0.290009267576155,0.290009267576155,750,0,0,incongruent,1,2774.79419094058,26425.0495001403
3,104,1,146,0.5,0.5,0,3,NaN,0.6,3,693,1,1,693,1,0,1.2,NaN,0.0413884032344536,0.0413884032344536,750,0,0,neutral,1,41910.8851014664,9490.87751010341
3,104,1,147,0.5,0.5,-0.5,2,2,0.8,2,551,1,1,551,1,0,1.6,NaN,-1.06186668228185,-1.06186668228185,750,1,0,congruent,1,5112.95581642446,9624.57857255387
3,104,1,148,0.5,0.5,-0.5,3,3,0.8,3,653,1,1,653,1,0,1.6,NaN,-0.269387677192673,-0.269387677192673,750,1,0,congruent,1,4687.57154863264,1471.18113933781
3,104,1,150,-0.5,0.5,-0.5,3,3,1,3,891,1,0,891,0,0,2,0.6,1.57973000134873,1.57973000134873,750,1,0,congruent,0,5003.34251024588,4887.23785954616
3,104,2,151,-0.5,0.5,-0.5,1,1,0.8,1,414,1,1,414,1,0,1.6,0.4,-2.12627475774476,-2.12627475774476,750,1,0,congruent,0.1,1588.82243785128,1803.72517674826
3,104,2,152,0.5,-0.5,-0.5,2,2,0.8,2,616,1,1,616,0,0,1.4,NaN,-0.556855551587766,-0.556855551587766,750,1,0,congruent,0,4446.43361196772,4677.60900757323
3,104,2,153,0.5,0.5,-0.5,1,1,0.8,1,617,1,1,617,1,0,1,NaN,-0.549086149577088,-0.549086149577088,750,1,0,congruent,1,1417.75697953087,11695.832874367
3,104,2,154,0.5,0.5,-0.5,2,2,0.8,2,674,1,1,674,1,0,1,NaN,-0.106230234968432,-0.106230234968432,750,1,0,congruent,1,5759.73352586899,9101.58488601713
3,104,2,155,-0.5,-0.5,0.5,1,4,0.8,2,646,0,1,NaN,0,0,1,0.4,-0.323773491267421,NaN,750,0,1,incongruent,0,9403.71886893045,4788.30355796545
3,104,2,156,-0.5,-0.5,0.5,2,3,0.8,2,771,1,0,771,1,0,1,0.2,0.647401760067351,0.647401760067351,750,0,0,incongruent,0.1,8333.37936488647,3671.25422067412
3,104,2,157,0.5,0.5,-0.5,1,1,0.8,1,507,1,1,507,1,0,1,NaN,-1.40372037075169,-1.40372037075169,750,1,0,congruent,1,5888.86903739052,2043.58882677947
3,104,2,158,0.5,-0.5,-0.5,3,3,0.8,3,715,1,1,715,1,0,1.4,NaN,0.212315247469373,0.212315247469373,750,1,0,congruent,1,5051.6598777504,3655.08462437734
3,104,2,160,-0.5,-0.5,-0.5,1,1,1,1,850,1,0,850,1,0,1.2,0.2,1.26118451891093,1.26118451891093,750,1,0,congruent,0.1,8674.22675391895,9146.98949175806
3,104,2,161,0.5,-0.5,0,2,NaN,1,2,571,1,1,571,1,0,1.4,NaN,-0.906478642068284,-0.906478642068284,750,0,0,neutral,1,5410.1850256447,2580.80751027863
3,104,2,162,-0.5,0.5,-0.5,4,4,1,4,534,1,1,534,1,0,1.6,0.4,-1.19394651646338,-1.19394651646338,750,1,0,congruent,0.1,903.668549165745,8159.54264236019
3,104,2,163,-0.5,0.5,0.5,1,2,1,1,985,1,0,985,0,0,1.4,0.6,2.31005379035248,2.31005379035248,750,0,0,incongruent,0,8939.1503635404,3304.25222745829
3,104,2,165,0.5,-0.5,0,3,NaN,0.8,3,670,1,1,670,0,0,0.8,NaN,-0.137307843011144,-0.137307843011144,750,0,0,neutral,0,35352.1907394256,13808.5879358328
3,104,2,166,0.5,0.5,-0.5,1,1,0.8,1,489,1,1,489,1,0,0.6,NaN,-1.54356960694389,-1.54356960694389,750,1,0,congruent,1,1328.48878362224,1178.7184588307
3,104,2,168,-0.5,0.5,0.5,3,4,0.6,3,653,1,1,653,1,0,0.4,0.6,-0.269387677192673,-0.269387677192673,750,0,0,incongruent,0.1,1891.50263455634,4396.54142299266
3,104,2,169,-0.5,0.5,0.5,4,3,0.6,4,787,1,0,787,0,0,0.6,0.8,0.771712192238202,0.771712192238202,750,0,0,incongruent,0,9691.16173702548,4798.97575912102
3,104,2,170,-0.5,0.5,-0.5,2,2,0.4,2,731,1,1,731,1,0,0.6,0.6,0.336625679640224,0.336625679640224,750,1,0,congruent,0.1,2266.39791257667,22005.5589490544
3,104,2,171,-0.5,-0.5,0.5,1,3,0.6,1,773,1,0,773,1,0,0.8,0.4,0.662940564088708,0.662940564088708,750,0,0,incongruent,0.1,4496.83059814766,7183.8762080311
3,104,2,172,-0.5,-0.5,0,4,NaN,0.6,4,787,1,0,787,0,0,0.6,0.6,0.771712192238202,0.771712192238202,750,0,0,neutral,0,3549.88378163969,3497.78151282927
3,104,2,173,0.5,0.5,-0.5,2,2,0.6,2,870,1,0,870,0,0,0.6,NaN,1.41657255912449,1.41657255912449,750,1,0,congruent,0,1276.99237388433,8598.15670627417
3,104,2,175,-0.5,-0.5,-0.5,4,4,0.4,4,893,1,0,893,1,0,0.8,0.6,1.59526880537009,1.59526880537009,750,1,0,congruent,0.1,1245.43954599196,6283.37504823438
3,104,2,176,-0.5,0.5,-0.5,2,2,0.4,2,552,1,1,552,1,0,0.8,0.6,-1.05409728027117,-1.05409728027117,750,1,0,congruent,0.1,5734.25045619963,1720.70759306963
3,104,2,177,0.5,0.5,0.5,3,4,0.6,3,546,1,1,546,1,0,0.8,NaN,-1.10071369233524,-1.10071369233524,750,0,0,incongruent,1,2011.41524879595,4107.94585842331
3,104,2,178,0.5,0.5,-0.5,2,2,0.6,1,541,0,1,NaN,0,0,1.2,NaN,-1.13956070238863,NaN,750,0,1,congruent,0,14794.1149444394,6246.29160733684
3,104,2,179,0.5,0.5,0,4,NaN,0.6,4,749,1,1,749,1,0,1.2,NaN,0.476474915832431,0.476474915832431,750,0,0,neutral,1,19401.3479618123,23546.9642303859
3,104,2,181,-0.5,-0.5,0.5,2,4,0.6,2,970,1,0,970,0,0,1,0.8,2.19351276019231,2.19351276019231,750,0,0,incongruent,0,5779.72334046114,2845.40765107643
3,104,2,182,0.5,0.5,0,1,NaN,0.6,1,519,1,1,519,1,0,0.8,NaN,-1.31048754662355,-1.31048754662355,750,0,0,neutral,1,4566.07396139061,4239.39017330122
3,104,2,183,-0.5,-0.5,-0.5,4,4,0.6,4,587,1,1,587,0,0,0.8,0.6,-0.782168209897433,-0.782168209897433,750,1,0,congruent,0,4414.40205266041,7302.60858321586
3,104,2,184,-0.5,0.5,0,1,NaN,0.6,1,735,1,1,735,1,0,0.8,0.6,0.367703287682937,0.367703287682937,750,0,0,neutral,0.1,1577.09715624106,11330.5627301976
3,104,2,185,0.5,0.5,-0.5,3,3,0.6,3,535,1,1,535,1,0,0.6,NaN,-1.1861771144527,-1.1861771144527,750,1,0,congruent,1,13085.5934385608,2318.44037835591
3,104,2,186,0.5,0.5,0.5,2,1,0.8,2,517,1,1,517,1,0,1,NaN,-1.32602635064491,-1.32602635064491,750,0,0,incongruent,1,4682.18491316573,4078.98917425339
3,104,2,188,-0.5,0.5,0,2,NaN,0.8,2,955,1,0,955,0,0,1.2,0.8,2.07697173003214,2.07697173003214,750,0,0,neutral,0,12942.5615566614,8402.0560842939
3,104,2,190,0.5,-0.5,-0.5,2,2,0.6,2,658,1,1,658,1,0,1,NaN,-0.230540667139283,-0.230540667139283,750,1,0,congruent,1,10667.37824094,15797.3431241499
3,104,2,191,0.5,-0.5,0.5,3,4,0.6,3,589,1,1,589,1,0,1,NaN,-0.766629405876077,-0.766629405876077,750,0,0,incongruent,1,8055.18741583949,5982.27634037359
3,104,2,193,-0.5,0.5,-0.5,1,1,0.4,1,852,1,0,852,0,0,0.8,0.4,1.27672332293228,1.27672332293228,750,1,0,congruent,0,10130.1027909371,3000.73688595099
3,104,2,196,0.5,0.5,0.5,3,2,0.2,3,503,1,1,503,1,0,0.4,NaN,-1.4347979787944,-1.4347979787944,750,0,0,incongruent,1,15852.6336223808,4777.38125181172
3,104,2,197,-0.5,-0.5,0,2,NaN,0.2,2,688,1,1,688,0,0,0.4,0.4,0.0025413931810627,0.0025413931810627,750,0,0,neutral,0,9510.50237715179,11049.7940348255
3,104,2,198,-0.5,0.5,-0.5,4,4,0.2,4,518,1,1,518,1,0,0.4,0.2,-1.31825694863423,-1.31825694863423,750,1,0,congruent,0.1,3831.39562951641,4592.93404906002
3,104,2,199,0.5,0.5,0.5,1,2,0.4,1,949,1,0,949,0,0,0.6,NaN,2.03035531796807,2.03035531796807,750,0,0,incongruent,0,8363.00350207243,1767.60305975531
3,104,2,200,-0.5,-0.5,0,3,NaN,0.4,3,573,1,1,573,0,0,0.6,0.2,-0.890939838046928,-0.890939838046928,750,0,0,neutral,0,11612.455620016,3611.26315000532
3,104,2,201,0.5,0.5,-0.5,1,1,0.4,1,464,1,1,464,1,0,0.6,NaN,-1.73780465721085,-1.73780465721085,750,1,0,congruent,1,1596.70129311414,1480.84639851325
3,104,2,202,0.5,0.5,0.5,4,3,0.6,3,761,0,0,NaN,0,0,0.6,NaN,0.56970773996057,NaN,750,1,0,incongruent,0,7055.30180605817,21721.5974687268
3,104,2,203,-0.5,-0.5,-0.5,2,2,0.6,2,831,1,0,831,1,0,0.6,0.2,1.11356588070804,1.11356588070804,750,1,0,congruent,0.1,5460.46258740449,3577.28846394126
3,104,2,204,0.5,0.5,0,3,NaN,0.6,4,718,0,1,NaN,0,0,0.6,NaN,0.235623453501408,NaN,750,0,1,neutral,0,8916.29011879082,2362.2345813403
3,104,2,205,0.5,-0.5,-0.5,2,2,0.4,2,900,1,0,900,0,0,0.6,NaN,1.64965461944484,1.64965461944484,750,1,0,congruent,0,10642.0273149837,17944.1407555172
3,104,2,207,0.5,0.5,-0.5,2,2,0.4,2,518,1,1,518,1,0,0.2,NaN,-1.31825694863423,-1.31825694863423,750,1,0,congruent,1,2683.66910644924,5008.11210370165
3,104,2,208,-0.5,0.5,0,3,NaN,0.4,3,466,1,1,466,1,0,0.6,0.2,-1.72226585318949,-1.72226585318949,750,0,0,neutral,0.1,2000.03056359387,10318.9857481555
3,104,2,209,-0.5,0.5,-0.5,1,1,0.6,1,545,1,1,545,1,0,0.6,0.4,-1.10848309434592,-1.10848309434592,750,1,0,congruent,0.1,2738.6605716086,1866.02375934554
3,104,2,210,-0.5,0.5,0.5,3,4,0.6,3,769,1,0,769,0,0,0.8,0.6,0.631862956045995,0.631862956045995,750,0,0,incongruent,0,2896.64466341804,1597.95296797441
3,104,2,212,-0.5,0.5,-0.5,2,2,0.6,1,817,0,0,NaN,0,0,0.8,0.6,1.00479425255855,NaN,750,0,1,congruent,0,1049.3054930417,3818.49924738156
3,104,2,213,0.5,0.5,0,4,NaN,0.4,4,506,1,1,506,1,0,0.4,NaN,-1.41148977276237,-1.41148977276237,750,0,0,neutral,1,1766.73841819508,3127.99500126276
3,104,2,214,-0.5,-0.5,-0.5,2,2,0.4,2,795,1,0,795,0,0,0.6,0.2,0.833867408323628,0.833867408323628,750,1,0,congruent,0,5722.34126406178,5593.59791447881
3,104,2,215,-0.5,0.5,0,1,NaN,0.4,1,445,1,1,445,1,0,0.4,0.4,-1.88542329541373,-1.88542329541373,750,0,0,neutral,0.1,2379.41282883776,6527.19074356064
3,104,2,216,0.5,0.5,0.5,2,3,0.4,2,687,1,1,687,1,0,0.6,NaN,-0.00522800882961548,-0.00522800882961548,750,0,0,incongruent,1,3406.35312329762,6364.73444483925
3,104,2,217,-0.5,0.5,0.5,4,2,0.6,4,807,1,0,807,0,0,1,0.4,0.927100232451766,0.927100232451766,750,0,0,incongruent,0,4393.61109600903,11155.2478843805
3,104,2,218,-0.5,0.5,0,1,NaN,0.6,1,659,1,1,659,1,0,1,0.2,-0.222771265128604,-0.222771265128604,750,0,0,neutral,0.1,3032.59235141118,2007.68556977045
3,104,2,219,0.5,0.5,-0.5,4,4,0.8,4,733,1,1,733,1,0,0.8,NaN,0.352164483661581,0.352164483661581,750,1,0,congruent,1,2442.32855217125,2489.24065774071
3,104,2,220,-0.5,-0.5,-0.5,1,1,0.8,1,618,1,1,618,1,0,1.2,0.2,-0.54131674756641,-0.54131674756641,750,1,0,congruent,0.1,20121.9251696567,2969.26116331258
3,104,2,221,0.5,0.5,-0.5,4,4,0.8,4,583,1,1,583,1,0,1.2,NaN,-0.813245817940146,-0.813245817940146,750,1,0,congruent,1,2793.87732653144,5902.97941814755
3,104,2,222,0.5,-0.5,0,2,NaN,0.8,2,838,1,0,838,1,0,1.2,NaN,1.16795169478279,1.16795169478279,750,0,0,neutral,1,12798.7070162641,20094.8938068251
3,104,2,224,0.5,-0.5,0,4,NaN,0.6,4,904,1,0,904,0,0,1.4,NaN,1.68073222748755,1.68073222748755,750,0,0,neutral,0,18173.6693241067,8529.55993272376
3,104,2,226,-0.5,0.5,0.5,2,4,0.6,2,668,1,1,668,1,0,0.8,0.4,-0.152846647032501,-0.152846647032501,750,0,0,incongruent,0.1,4150.99800245662,1897.8268652743
3,104,2,227,0.5,0.5,-0.5,3,3,0.6,3,522,1,1,522,1,0,0.6,NaN,-1.28717934059151,-1.28717934059151,750,1,0,congruent,1,2971.89479378419,1960.51187242681
3,104,2,228,0.5,0.5,-0.5,1,1,0.6,1,548,1,1,548,1,0,0.6,NaN,-1.08517488831388,-1.08517488831388,750,1,0,congruent,1,9131.9339753218,2882.21703861479
3,104,2,229,-0.5,0.5,0.5,3,4,0.6,3,583,1,1,583,1,0,1,0.6,-0.813245817940146,-0.813245817940146,750,0,0,incongruent,0.1,12528.8303764395,1834.20018965719
3,104,2,230,0.5,0.5,0,1,NaN,0.8,1,620,1,1,620,1,0,1.2,NaN,-0.525777943545053,-0.525777943545053,750,0,0,neutral,1,2435.62203854904,13861.0818261381
3,104,2,232,-0.5,0.5,-0.5,3,3,1,3,568,1,1,568,1,0,1.8,0.6,-0.929786848100319,-0.929786848100319,750,1,0,congruent,0.1,6718.47704280057,5062.50374050048
3,104,2,233,0.5,0.5,0.5,2,4,1,2,875,1,0,875,0,0,1.6,NaN,1.45541956917788,1.45541956917788,750,0,0,incongruent,0,8953.28013752511,4954.37693924705
3,104,2,234,0.5,0.5,0,3,NaN,0.8,3,670,1,1,670,1,0,1.2,NaN,-0.137307843011144,-0.137307843011144,750,0,0,neutral,1,20488.6693708844,5014.07160738351
3,104,2,235,-0.5,0.5,-0.5,1,1,0.8,1,542,1,1,542,1,0,1.4,0.8,-1.13179130037795,-1.13179130037795,750,1,0,congruent,0.1,5542.00134079922,1283.57898310858
3,104,2,236,-0.5,-0.5,0.5,2,4,0.8,2,837,1,0,837,1,0,1.2,0.4,1.16018229277211,1.16018229277211,750,0,0,incongruent,0.1,3530.65774341454,9248.91249327865
3,104,2,237,-0.5,0.5,0,1,NaN,0.8,1,446,1,1,446,1,0,1,0.8,-1.87765389340306,-1.87765389340306,750,0,0,neutral,0.1,3988.17508943499,3689.27284148531
3,104,2,238,-0.5,-0.5,-0.5,2,2,0.8,2,878,1,0,878,1,0,1,0.6,1.47872777520992,1.47872777520992,750,1,0,congruent,0.1,7345.49378584932,14242.4639968663
3,104,2,239,-0.5,0.5,0,3,NaN,0.8,3,628,1,1,628,1,0,1.2,1,-0.463622727459628,-0.463622727459628,750,0,0,neutral,0.1,5244.71617840583,4112.71492671902
3,104,2,240,0.5,-0.5,-0.5,1,1,0.8,2,908,0,0,NaN,1,0,1,NaN,1.71180983553026,NaN,750,0,1,congruent,1,2075.35430127731,3362.05808591949
3,104,2,241,-0.5,0.5,-0.5,4,4,0.8,4,739,1,1,739,1,0,1.2,1,0.39878089572565,0.39878089572565,750,1,0,congruent,0.1,5434.5690190185,1901.79891570573
3,104,2,242,-0.5,-0.5,0,1,NaN,1,1,715,1,1,715,1,0,1.2,0.6,0.212315247469373,0.212315247469373,750,0,0,neutral,0.1,6845.68768668377,5361.52465317832
3,104,2,244,-0.5,0.5,0,3,NaN,0.8,3,493,1,1,493,1,0,1,1,-1.51249199890118,-1.51249199890118,750,0,0,neutral,0.1,7618.69576714988,2321.68659753418
3,104,2,245,-0.5,0.5,-0.5,2,2,0.8,2,701,1,1,701,1,0,1,1,0.103543619319879,0.103543619319879,750,1,0,congruent,0.1,27541.4193635591,18640.9391190192
3,104,2,246,-0.5,0.5,0,4,NaN,0.8,4,726,1,1,726,1,0,0.8,1,0.297778669586833,0.297778669586833,750,0,0,neutral,0.1,11536.2476493765,7631.480403372
3,104,2,247,0.5,-0.5,-0.5,1,1,0.8,2,476,0,1,NaN,1,0,0.8,NaN,-1.64457183308271,NaN,750,0,1,congruent,1,3987.4020541276,4273.33666749401
3,104,2,249,0.5,-0.5,0,3,NaN,0.6,3,701,1,1,701,0,0,1,NaN,0.103543619319879,0.103543619319879,750,0,0,neutral,0,1290.35343882299,2312.10683741307
3,104,2,250,0.5,-0.5,-0.5,1,1,0.6,1,572,1,1,572,0,0,0.8,NaN,-0.898709240057606,-0.898709240057606,750,1,0,congruent,0,4851.8056857707,9481.66457302214
3,104,2,251,0.5,0.5,0,4,NaN,0.6,4,682,1,1,682,1,0,0.6,NaN,-0.0440750188830064,-0.0440750188830064,750,0,0,neutral,1,3935.32983204733,3162.17945499427
3,104,2,252,0.5,-0.5,-0.5,2,2,0.8,2,700,1,1,700,1,0,0.8,NaN,0.0957742173092008,0.0957742173092008,750,1,0,congruent,1,7744.15059175198,2890.67548424509
3,104,2,255,-0.5,-0.5,0,1,NaN,0.6,1,568,1,1,568,0,0,1.2,0.8,-0.929786848100319,-0.929786848100319,750,0,0,neutral,0,3888.09189862674,2629.87677388135
3,104,2,256,0.5,-0.5,-0.5,3,3,0.6,3,603,1,1,603,1,0,1.2,NaN,-0.657857777726582,-0.657857777726582,750,1,0,congruent,1,17479.9344026961,3775.47596830402
3,104,2,258,0.5,-0.5,0,2,NaN,0.4,4,748,0,1,NaN,1,0,0.8,NaN,0.468705513821753,NaN,750,0,1,neutral,1,2128.36411674287,5900.00960799886
3,104,2,259,-0.5,0.5,-0.5,1,1,0.4,1,613,1,1,613,1,0,0.8,0.8,-0.580163757619801,-0.580163757619801,750,1,0,congruent,0.1,7414.51616542643,14052.5408374896
3,104,2,260,-0.5,-0.5,0.5,2,4,0.4,3,666,0,1,NaN,0,0,1,0.8,-0.168385451053857,NaN,750,0,1,incongruent,0,5131.36501773326,6719.97271860412
3,104,2,261,-0.5,0.5,-0.5,3,3,0.4,3,584,1,1,584,1,0,1,0.8,-0.805476415929468,-0.805476415929468,750,1,0,congruent,0.1,1791.99736161369,6994.30902711473
3,104,2,262,0.5,-0.5,0.5,4,1,0.6,4,661,1,1,661,1,0,0.8,NaN,-0.207232461107248,-0.207232461107248,750,0,0,incongruent,1,4020.47881303055,5030.98535818863
3,104,2,263,-0.5,-0.5,-0.5,2,2,0.6,2,824,1,0,824,1,0,1.2,0.6,1.05918006663329,1.05918006663329,750,1,0,congruent,0.1,4173.36617011709,3749.25651960762
3,104,2,264,-0.5,-0.5,0,1,NaN,0.6,1,522,1,1,522,1,0,1,0.6,-1.28717934059151,-1.28717934059151,750,0,0,neutral,0.1,3835.12817283166,2255.49078494803
3,104,2,265,-0.5,-0.5,-0.5,3,3,0.6,3,656,1,1,656,1,0,1,0.6,-0.246079471160639,-0.246079471160639,750,1,0,congruent,0.1,4863.19865153889,5171.19316130073
3,104,2,266,0.5,-0.5,0,4,NaN,0.6,4,599,1,1,599,0,0,1.2,NaN,-0.688935385769295,-0.688935385769295,750,0,0,neutral,0,6945.85842471842,11314.8168222757
3,104,2,267,0.5,0.5,-0.5,3,3,0.6,3,525,1,1,525,1,0,1,NaN,-1.26387113455948,-1.26387113455948,750,1,0,congruent,1,4649.28858918778,7088.55877706252
3,104,2,268,-0.5,0.5,0.5,2,1,0.6,3,766,0,0,NaN,0,0,1,0.8,0.60855475001396,NaN,750,0,1,incongruent,0,9001.65581695352,3689.5058648405
3,104,2,269,-0.5,0.5,0,4,NaN,0.6,4,645,1,1,645,1,0,0.8,0.6,-0.331542893278099,-0.331542893278099,750,0,0,neutral,0.1,4510.69225092702,9201.78571657325
3,104,2,270,-0.5,0.5,-0.5,1,1,0.8,1,620,1,1,620,1,0,0.8,0.6,-0.525777943545053,-0.525777943545053,750,1,0,congruent,0.1,3524.66282542609,10556.2820760936
3,104,2,271,-0.5,0.5,0,3,NaN,0.8,4,544,0,1,NaN,0,0,0.8,0.8,-1.11625249635659,NaN,750,0,1,neutral,0,16152.5968598136,14280.0734414287
3,104,2,272,0.5,-0.5,-0.5,2,2,0.6,2,712,1,1,712,0,0,0.8,NaN,0.189007041437339,0.189007041437339,750,1,0,congruent,0,13499.4602927471,8744.71895253268
3,104,2,273,0.5,0.5,0,1,NaN,0.6,1,639,1,1,639,1,0,0.4,NaN,-0.378159305342168,-0.378159305342168,750,0,0,neutral,1,5117.59192876664,2765.50595254394
3,104,2,274,-0.5,-0.5,0.5,4,1,0.6,4,689,1,1,689,1,0,0.8,0.6,0.0103107951917409,0.0103107951917409,750,0,0,incongruent,0.1,6213.16127487992,9224.82540925507
3,104,2,275,-0.5,0.5,-0.5,3,3,0.6,3,716,1,1,716,1,0,0.8,0.6,0.220084649480052,0.220084649480052,750,1,0,congruent,0.1,13182.0737897129,2577.41863067589
3,104,2,276,0.5,0.5,0.5,1,2,0.8,2,775,0,0,NaN,0,0,0.8,NaN,0.678479368110064,NaN,750,1,0,incongruent,0,11313.3086110185,864.662145061348
3,104,2,278,-0.5,-0.5,0.5,3,2,0.4,3,798,1,0,798,0,0,0.8,0.8,0.857175614355662,0.857175614355662,750,0,0,incongruent,0,6657.61667959267,414.198336281107
3,104,2,279,0.5,0.5,-0.5,1,1,0.4,1,732,1,1,732,1,0,0.4,NaN,0.344395081650902,0.344395081650902,750,1,0,congruent,1,3377.00453498908,10676.4424399729
3,104,2,280,0.5,0.5,-0.5,3,3,0.6,3,546,1,1,546,1,0,0.6,NaN,-1.10071369233524,-1.10071369233524,750,1,0,congruent,1,1700.57205328512,8871.86027319367
3,104,2,281,0.5,-0.5,0.5,2,1,0.6,2,950,1,0,950,1,0,0.8,NaN,2.03812471997874,2.03812471997874,750,0,0,incongruent,1,3416.02019976816,2092.81668141545
3,104,2,282,-0.5,0.5,0.5,4,2,0.6,4,853,1,0,853,0,0,1.2,0.6,1.28449272494296,1.28449272494296,750,0,0,incongruent,0,5226.99492247237,7158.20229407442
3,104,2,283,0.5,0.5,-0.5,3,3,0.4,3,499,1,1,499,1,0,1.2,NaN,-1.46587558683711,-1.46587558683711,750,1,0,congruent,1,8634.807315893,1449.03008506008
3,104,2,284,-0.5,0.5,-0.5,2,2,0.6,2,695,1,1,695,1,0,1.6,0.4,0.0569272072558099,0.0569272072558099,750,1,0,congruent,0.1,10029.7050742668,8934.68323394273
3,104,2,287,0.5,-0.5,-0.5,3,3,0.6,3,769,1,0,769,1,0,0.6,NaN,0.631862956045995,0.631862956045995,750,1,0,congruent,1,1978.10262948239,3155.19429320936
3,104,2,289,-0.5,-0.5,0,2,NaN,0.6,2,640,1,1,640,1,0,1,0.6,-0.37038990333149,-0.37038990333149,750,0,0,neutral,0.1,1350.09807677837,4284.50153687911
3,104,2,290,0.5,0.5,-0.5,1,1,0.6,1,541,1,1,541,1,0,1,NaN,-1.13956070238863,-1.13956070238863,750,1,0,congruent,1,5019.43186008788,12654.3177127037
3,104,2,291,0.5,0.5,0.5,3,2,0.6,2,720,0,1,NaN,0,0,1.4,NaN,0.251162257522764,NaN,750,1,0,incongruent,0,5204.20716533675,1133.8429490637
3,104,2,292,0.5,0.5,-0.5,1,1,0.6,1,551,1,1,551,1,0,1.4,NaN,-1.06186668228185,-1.06186668228185,750,1,0,congruent,1,4660.46952402259,8161.4123872486
3,104,2,293,-0.5,-0.5,-0.5,4,4,0.6,4,542,1,1,542,1,0,1.4,0.6,-1.13179130037795,-1.13179130037795,750,1,0,congruent,0.1,10745.2038117377,9040.98142600381
3,104,2,295,-0.5,0.5,-0.5,4,4,0.4,4,528,1,1,528,1,0,1,0.2,-1.24056292852745,-1.24056292852745,750,1,0,congruent,0.1,4608.47264071599,2511.36582274781
3,104,2,296,-0.5,0.5,0,1,NaN,0.6,1,566,1,1,566,1,0,0.8,0.4,-0.945325652121675,-0.945325652121675,750,0,0,neutral,0.1,5952.89704543847,8091.45036685543
3,104,2,297,-0.5,-0.5,-0.5,4,4,0.6,4,881,1,0,881,0,0,1,0.6,1.50203598124195,1.50203598124195,750,1,0,congruent,0,7366.46681221953,2922.16359474023
3,104,2,298,0.5,-0.5,0.5,1,3,0.6,1,959,1,0,959,0,0,0.6,NaN,2.10804933807485,2.10804933807485,750,0,0,incongruent,0,1042.14358827431,1887.16833588287
3,104,2,300,0.5,0.5,-0.5,4,4,0.8,4,640,1,1,640,1,0,0.6,NaN,-0.37038990333149,-0.37038990333149,750,1,0,congruent,1,6060.79988549006,2668.5778700409
3,104,3,301,0.5,0.5,-0.5,1,1,0.8,1,457,1,1,457,1,0,0.8,NaN,-1.7921904712856,-1.7921904712856,750,1,0,congruent,1,4042.23263162631,6699.95422436223
3,104,3,302,-0.5,0.5,0,2,NaN,1,1,686,0,1,NaN,0,0,1,0.6,-0.0129974108402937,NaN,750,0,1,neutral,0,9385.47005316571,11779.9727158693
3,104,3,303,-0.5,0.5,-0.5,4,4,0.8,4,754,1,0,754,0,0,1,0.6,0.515321925885822,0.515321925885822,750,1,0,congruent,0,4877.27059325682,10230.3721291495
3,104,3,304,0.5,-0.5,0.5,3,1,0.6,3,690,1,1,690,1,0,1,NaN,0.0180801972024191,0.0180801972024191,750,0,0,incongruent,1,11118.6127475907,8164.83701304081
3,104,3,305,0.5,-0.5,0,1,NaN,0.6,2,700,0,1,NaN,1,0,1.2,NaN,0.0957742173092008,NaN,750,0,1,neutral,1,8344.01247875714,6166.45432315797
3,104,3,306,-0.5,-0.5,-0.5,2,2,0.6,2,588,1,1,588,1,0,1.2,0.4,-0.774398807886755,-0.774398807886755,750,1,0,congruent,0.1,3238.77175953793,3386.70314630447
3,104,3,307,-0.5,0.5,0,4,NaN,0.6,4,746,1,1,746,1,0,1,0.6,0.453166709800397,0.453166709800397,750,0,0,neutral,0.1,3263.6182163894,6678.51989466853
3,104,3,308,-0.5,-0.5,-0.5,3,3,0.6,3,560,1,1,560,0,0,1.2,0.6,-0.991942064185744,-0.991942064185744,750,1,0,congruent,0,2528.41083987362,5521.68677845017
3,104,3,310,-0.5,0.5,0.5,3,2,0.4,3,923,1,0,923,0,0,0.8,0.6,1.82835086569043,1.82835086569043,750,0,0,incongruent,0,5587.19275912509,1976.84598443848
3,104,3,312,0.5,0.5,0.5,2,3,0.2,2,931,1,0,931,0,0,0.2,NaN,1.89050608177586,1.89050608177586,750,0,0,incongruent,0,2769.22443706651,2814.12838953388
3,104,3,313,0.5,0.5,0.5,3,1,0.2,1,727,0,1,NaN,0,0,0,NaN,0.305548071597512,NaN,750,1,0,incongruent,0,7382.66158443489,1513.91286600406
3,104,3,314,-0.5,0.5,0.5,4,3,0.2,4,993,1,0,993,0,0,0,0.4,2.37220900643791,2.37220900643791,750,0,0,incongruent,0,5221.23175977208,5353.48544943442
3,104,3,315,0.5,0.5,0.5,3,2,0,3,719,1,1,719,1,0,0,NaN,0.243392855512086,0.243392855512086,750,0,0,incongruent,1,1703.25511699915,2890.12208690375
3,104,3,316,-0.5,0.5,-0.5,1,1,0.2,1,662,1,1,662,1,0,0.4,0.2,-0.19946305909657,-0.19946305909657,750,1,0,congruent,0.1,5935.89531948005,13931.9484180315
3,104,3,317,-0.5,0.5,0,3,NaN,0.4,3,618,1,1,618,1,0,0.6,0.4,-0.54131674756641,-0.54131674756641,750,0,0,neutral,0.1,6211.35914873661,6171.67056480802
3,104,3,318,0.5,0.5,0.5,4,3,0.6,4,913,1,0,913,0,0,0.8,NaN,1.75065684558365,1.75065684558365,750,0,0,incongruent,0,3282.68977493773,9710.55009723355
3,104,3,320,0.5,0.5,0,2,NaN,0.6,2,725,1,1,725,1,0,0.8,NaN,0.290009267576155,0.290009267576155,750,0,0,neutral,1,3281.16148003533,3668.47510273739
3,104,3,323,-0.5,0.5,-0.5,4,4,0.6,4,596,1,1,596,1,0,0.8,0.6,-0.71224359180133,-0.71224359180133,750,1,0,congruent,0.1,5306.002464164,5864.6256714588
3,104,3,324,0.5,0.5,0.5,3,1,0.6,3,645,1,1,645,1,0,1,NaN,-0.331542893278099,-0.331542893278099,750,0,0,incongruent,1,36664.7875373616,1349.48729576137
3,104,3,325,0.5,-0.5,0,1,NaN,0.6,1,794,1,0,794,0,0,1.4,NaN,0.826098006312949,0.826098006312949,750,0,0,neutral,0,4149.90695900759,4923.35578631412
3,104,3,328,-0.5,-0.5,0.5,4,2,0.6,4,755,1,0,755,1,0,0.8,0.4,0.5230913278965,0.5230913278965,750,0,0,incongruent,0.1,13988.8080222029,1966.59086865457
3,104,3,329,-0.5,-0.5,0,2,NaN,0.6,2,784,1,0,784,0,0,0.8,0.4,0.748403986206168,0.748403986206168,750,0,0,neutral,0,4438.01874601961,3639.7406951044
3,104,3,330,0.5,0.5,-0.5,4,4,0.6,4,904,1,0,904,0,0,0.4,NaN,1.68073222748755,1.68073222748755,750,1,0,congruent,0,12066.6554858801,1966.21841935784
3,104,3,331,0.5,0.5,0,2,NaN,0.4,2,601,1,1,601,1,0,0.4,NaN,-0.673396581747939,-0.673396581747939,750,0,0,neutral,1,4627.38178120387,8913.03785625865
3,104,3,332,0.5,0.5,0.5,1,3,0.6,1,675,1,1,675,1,0,0.8,NaN,-0.0984608329577536,-0.0984608329577536,750,0,0,incongruent,1,3089.92565748111,3644.09599231246
3,104,3,333,0.5,0.5,0,3,NaN,0.6,3,455,1,1,455,1,0,1,NaN,-1.80772927530695,-1.80772927530695,750,0,0,neutral,1,4308.93166567089,8395.83402713049
3,104,3,334,-0.5,0.5,0.5,2,1,0.6,2,951,1,0,951,0,0,1.2,0.6,2.04589412198942,2.04589412198942,750,0,0,incongruent,0,4592.16356094079,4306.6488815872
3,104,3,336,0.5,0.5,-0.5,4,4,0.8,4,700,1,1,700,1,0,1.4,NaN,0.0957742173092008,0.0957742173092008,750,1,0,congruent,1,3135.32475757846,13563.0807539623
3,104,3,337,-0.5,-0.5,0.5,3,1,0.8,3,767,1,0,767,1,0,1.4,0.4,0.616324152024639,0.616324152024639,750,0,0,incongruent,0.1,15684.9461964138,6481.03193149307
3,104,3,338,-0.5,-0.5,-0.5,4,4,0.8,4,634,1,1,634,0,0,1.2,0.6,-0.417006315395559,-0.417006315395559,750,1,0,congruent,0,6358.31151620344,4403.21643700332
3,104,3,339,0.5,0.5,0.5,2,1,0.8,2,871,1,0,871,0,0,0.8,NaN,1.42434196113517,1.42434196113517,750,0,0,incongruent,0,2989.73060846455,6082.51562624343
3,104,3,340,0.5,0.5,0,1,NaN,0.6,1,603,1,1,603,1,0,0.8,NaN,-0.657857777726582,-0.657857777726582,750,0,0,neutral,1,6731.58839701819,3753.06761472812
3,104,3,341,-0.5,0.5,-0.5,2,2,0.6,3,823,0,0,NaN,0,0,1,0.6,1.05141066462262,NaN,750,0,1,congruent,0,6540.74420276728,5541.49303065083
3,104,3,342,0.5,0.5,0,1,NaN,0.6,1,730,1,1,730,1,0,0.6,NaN,0.328856277629546,0.328856277629546,750,0,0,neutral,1,6796.83057227217,12881.5678906672
3,104,3,343,0.5,0.5,0.5,4,1,0.6,4,663,1,1,663,1,0,0.8,NaN,-0.191693657085892,-0.191693657085892,750,0,0,incongruent,1,8133.78142019804,7467.2227027525
3,104,3,344,-0.5,-0.5,0,1,NaN,0.6,1,585,1,1,585,1,0,1.2,0.6,-0.79770701391879,-0.79770701391879,750,0,0,neutral,0.1,4398.21404733977,14713.1106599888
3,104,3,345,0.5,-0.5,-0.5,2,2,0.6,3,744,0,1,NaN,1,0,1.4,NaN,0.437627905779041,NaN,750,0,1,congruent,1,1916.21374901884,1240.50879203665
3,104,3,346,0.5,-0.5,0,3,NaN,0.6,3,614,1,1,614,1,0,1.4,NaN,-0.572394355609122,-0.572394355609122,750,0,0,neutral,1,4306.75989102673,7576.9164873999
3,104,3,347,-0.5,-0.5,-0.5,1,1,0.6,1,804,1,0,804,1,0,1.8,0.6,0.903792026419731,0.903792026419731,750,1,0,congruent,0.1,1279.79544110646,8320.27441080591
3,104,3,348,-0.5,0.5,0,3,NaN,0.6,3,730,1,1,730,1,0,1.6,0.4,0.328856277629546,0.328856277629546,750,0,0,neutral,0.1,2218.33190320382,6225.99575201682
3,104,3,349,-0.5,0.5,0.5,2,4,0.8,2,636,1,1,636,1,0,1.4,0.4,-0.401467511374203,-0.401467511374203,750,0,0,incongruent,0.1,6039.54752725224,4114.38661093289
3,104,3,350,-0.5,-0.5,0.5,4,3,0.8,4,658,1,1,658,1,0,1.4,0.6,-0.230540667139283,-0.230540667139283,750,0,0,incongruent,0.1,6613.41012607739,4407.15192084805
3,104,3,351,0.5,0.5,0,1,NaN,0.8,1,662,1,1,662,1,0,1.2,NaN,-0.19946305909657,-0.19946305909657,750,0,0,neutral,1,5127.33917538404,10667.4077661579
3,104,3,353,0.5,0.5,-0.5,1,1,1,1,689,1,1,689,1,0,1.2,NaN,0.0103107951917409,0.0103107951917409,750,1,0,congruent,1,4797.21992265276,13342.439195098
3,104,3,354,0.5,0.5,-0.5,3,3,1,3,611,1,1,611,1,0,1.4,NaN,-0.595702561641157,-0.595702561641157,750,1,0,congruent,1,1089.35266468015,4768.66884300434
3,104,3,356,-0.5,-0.5,0,3,NaN,1,3,512,1,1,512,1,0,1.8,0.8,-1.3648733606983,-1.3648733606983,750,0,0,neutral,0.1,2090.51501426056,2772.91111447124
3,104,3,358,0.5,0.5,0.5,3,1,1,3,826,1,0,826,0,0,1.6,NaN,1.07471887065465,1.07471887065465,750,0,0,incongruent,0,9678.00125090748,2383.94191701021
3,104,3,359,0.5,0.5,0.5,2,4,0.8,2,597,1,1,597,1,0,1.2,NaN,-0.704474189790651,-0.704474189790651,750,0,0,incongruent,1,5192.28219432796,14539.1994236706
3,104,3,360,-0.5,-0.5,0.5,1,2,0.8,1,708,1,1,708,1,0,1.2,1,0.157929433394626,0.157929433394626,750,0,0,incongruent,0.1,4422.32563474601,5537.28651151648
3,104,3,361,-0.5,-0.5,0,3,NaN,0.8,3,774,1,0,774,1,0,1,1,0.670709966099386,0.670709966099386,750,0,0,neutral,0.1,5304.18652866457,1221.06221326598
3,104,3,362,-0.5,-0.5,-0.5,1,1,0.8,1,721,1,1,721,1,0,1,1,0.258931659533443,0.258931659533443,750,1,0,congruent,0.1,1960.09025750469,4843.69518393755
3,104,3,363,-0.5,0.5,-0.5,3,3,0.8,3,532,1,1,532,1,0,1,0.8,-1.20948532048473,-1.20948532048473,750,1,0,congruent,0.1,4380.48483641154,5677.76286193446
3,104,3,364,-0.5,-0.5,-0.5,1,1,0.8,1,595,1,1,595,1,0,1.2,1,-0.720012993812008,-0.720012993812008,750,1,0,congruent,0.1,6071.74620160273,7061.79613109873
3,104,3,365,-0.5,-0.5,0.5,4,3,0.8,4,631,1,1,631,1,0,1,1,-0.440314521427593,-0.440314521427593,750,0,0,incongruent,0.1,1330.47796260066,4449.57416258374
3,104,3,366,0.5,0.5,0.5,2,4,0.8,2,698,1,1,698,1,0,1,NaN,0.0802354132878445,0.0802354132878445,750,0,0,incongruent,1,5440.79120265865,5200.15430405382
3,104,3,367,0.5,0.5,0.5,4,1,0.8,4,685,1,1,685,1,0,1.2,NaN,-0.0207668128509718,-0.0207668128509718,750,0,0,incongruent,1,3559.70070663151,9647.70464584181
3,104,3,371,0.5,-0.5,-0.5,4,4,0.8,4,682,1,1,682,1,0,1.4,NaN,-0.0440750188830064,-0.0440750188830064,750,1,0,congruent,1,5568.28587334135,2689.80714701667
3,104,3,372,-0.5,-0.5,0.5,2,3,0.8,2,826,1,0,826,1,0,1.4,1,1.07471887065465,1.07471887065465,750,0,0,incongruent,0.1,4127.79712674669,2657.08298542927
3,104,3,373,-0.5,-0.5,0,4,NaN,0.8,4,780,1,0,780,1,0,1.2,1,0.717326378163455,0.717326378163455,750,0,0,neutral,0.1,3637.75693752915,9106.6408563281
3,104,3,375,-0.5,0.5,0,4,NaN,0.6,4,542,1,1,542,1,0,0.8,0.8,-1.13179130037795,-1.13179130037795,750,0,0,neutral,0.1,10341.534427822,3097.83983889363
3,104,3,376,0.5,-0.5,0.5,2,3,0.6,3,588,0,1,NaN,0,0,1,NaN,-0.774398807886755,NaN,750,1,0,incongruent,0,2665.41041729929,2321.02557548861
3,104,3,377,-0.5,-0.5,0,1,NaN,0.6,1,635,1,1,635,1,0,0.6,1,-0.409236913384881,-0.409236913384881,750,0,0,neutral,0.1,3603.41366580266,3581.40648401118
3,104,3,378,-0.5,0.5,-0.5,2,2,0.6,2,523,1,1,523,1,0,0.6,0.8,-1.27940993858084,-1.27940993858084,750,1,0,congruent,0.1,2293.37952575149,3784.27444493303
3,104,3,379,-0.5,0.5,0,1,NaN,0.6,1,536,1,1,536,1,0,0.6,0.8,-1.17840771244202,-1.17840771244202,750,0,0,neutral,0.1,3703.30216925456,2218.82332326811
3,104,3,380,0.5,0.5,0.5,3,2,0.6,4,861,0,0,NaN,0,0,0.8,NaN,1.34664794102839,NaN,750,0,1,incongruent,0,8841.51983271456,4824.89789391961
3,104,3,381,0.5,0.5,0.5,2,4,0.6,2,902,1,0,902,0,0,0.6,NaN,1.66519342346619,1.66519342346619,750,0,0,incongruent,0,3992.58025757862,6740.68407950745
3,104,3,382,-0.5,0.5,0,3,NaN,0.6,3,580,1,1,580,1,0,0.6,0.8,-0.83655402397218,-0.83655402397218,750,0,0,neutral,0.1,4335.7973939624,3746.37697624579
3,104,3,383,-0.5,0.5,0.5,1,3,0.6,1,846,1,0,846,0,0,0.6,0.8,1.23010691086821,1.23010691086821,750,0,0,incongruent,0,2375.71141392631,7476.97961954694
3,104,3,384,0.5,0.5,0.5,2,1,0.4,2,831,1,0,831,0,0,0.4,NaN,1.11356588070804,1.11356588070804,750,0,0,incongruent,0,6610.83110906816,10309.717049169
3,104,3,385,0.5,-0.5,-0.5,4,4,0.2,4,711,1,1,711,0,0,0.2,NaN,0.181237639426661,0.181237639426661,750,1,0,congruent,0,3329.98626660384,2966.43089618326
3,104,3,386,0.5,-0.5,0.5,2,1,0.2,2,990,1,0,990,1,0,0.2,NaN,2.34890080040587,2.34890080040587,750,0,0,incongruent,1,1776.69633690008,3739.53202506844
3,104,3,387,-0.5,0.5,0,4,NaN,0.2,4,643,1,1,643,1,0,0.6,0.8,-0.347081697299455,-0.347081697299455,750,0,0,neutral,0.1,1702.82216819231,1607.20896570181
3,104,3,388,0.5,0.5,-0.5,2,2,0.4,2,820,1,0,820,0,0,0.6,NaN,1.02810245859058,1.02810245859058,750,1,0,congruent,0,3442.40506259953,2203.67056914335
3,104,3,390,-0.5,0.5,-0.5,3,3,0.2,3,730,1,1,730,1,0,0.6,0.6,0.328856277629546,0.328856277629546,750,1,0,congruent,0.1,3115.98899023271,3987.23270570741
3,104,3,391,-0.5,-0.5,0,4,NaN,0.4,4,666,1,1,666,0,0,0.8,1,-0.168385451053857,-0.168385451053857,750,0,0,neutral,0,12968.3188311625,8896.61818556961
3,104,3,392,0.5,-0.5,0.5,1,4,0.4,1,841,1,0,841,0,0,0.4,NaN,1.19125990081482,1.19125990081482,750,0,0,incongruent,0,6842.79250957917,2511.03181801774
3,104,3,393,0.5,0.5,-0.5,2,2,0.4,3,907,0,0,NaN,0,0,0.2,NaN,1.70404043351958,NaN,750,0,1,congruent,0,3515.9894258207,3225.09759857026
3,104,3,394,-0.5,0.5,0.5,3,1,0.4,3,685,1,1,685,1,0,0.2,0.6,-0.0207668128509718,-0.0207668128509718,750,0,0,incongruent,0.1,1680.08695107288,7748.53106820501
3,104,3,396,0.5,0.5,0.5,3,1,0.4,3,892,1,0,892,0,0,0.2,NaN,1.58749940335941,1.58749940335941,750,0,0,incongruent,0,2071.3472578464,11518.753263099
3,104,3,399,-0.5,-0.5,0.5,4,2,0.4,4,942,1,0,942,1,0,0.2,0.6,1.97596950389332,1.97596950389332,750,0,0,incongruent,0.1,11787.256065762,1010.06579923225
3,104,3,400,-0.5,0.5,0.5,2,3,0.4,2,594,1,1,594,1,0,0.2,0.6,-0.727782395822686,-0.727782395822686,750,0,0,incongruent,0.1,3661.61655437,3008.67990049382
3,104,3,402,0.5,-0.5,0.5,2,4,0.4,2,789,1,0,789,0,0,0.4,NaN,0.787250996259559,0.787250996259559,750,0,0,incongruent,0,8020.69557603191,8253.6551212769
3,104,3,403,0.5,0.5,-0.5,3,3,0.4,3,690,1,1,690,1,0,0.4,NaN,0.0180801972024191,0.0180801972024191,750,1,0,congruent,1,3754.16835920175,3815.77495315477
3,104,3,404,-0.5,0.5,0.5,1,2,0.6,1,800,1,0,800,0,0,0.8,0.6,0.872714418377018,0.872714418377018,750,0,0,incongruent,0,18414.2557699414,13099.2122298414
3,104,3,405,-0.5,-0.5,-0.5,4,4,0.4,4,647,1,1,647,0,0,0.6,0.6,-0.316004089256743,-0.316004089256743,750,1,0,congruent,0,8033.18784077799,3425.12953402891
3,104,3,406,-0.5,0.5,0.5,2,3,0.4,2,888,1,0,888,0,0,0.4,0.6,1.5564217953167,1.5564217953167,750,0,0,incongruent,0,1511.24579338255,9394.28523368956
3,104,3,407,0.5,0.5,-0.5,4,4,0.4,4,504,1,1,504,1,0,0.4,NaN,-1.42702857678372,-1.42702857678372,750,1,0,congruent,1,3560.44083290159,3776.01845367625
3,104,3,408,-0.5,0.5,0.5,3,1,0.4,3,704,1,1,704,1,0,0.8,0.4,0.126851825351914,0.126851825351914,750,0,0,incongruent,0.1,9014.56392324059,4327.68030618541
3,104,3,409,0.5,0.5,-0.5,2,2,0.6,2,846,1,0,846,0,0,0.6,NaN,1.23010691086821,1.23010691086821,750,1,0,congruent,0,1182.87361556082,5266.7727365077
3,104,3,410,-0.5,0.5,0,4,NaN,0.4,4,614,1,1,614,1,0,0.6,0.4,-0.572394355609122,-0.572394355609122,750,0,0,neutral,0.1,6610.43785189539,5992.4058740453
3,104,3,412,0.5,-0.5,-0.5,2,2,0.6,2,674,1,1,674,0,0,1.2,NaN,-0.106230234968432,-0.106230234968432,750,1,0,congruent,0,8783.65362277412,6204.25699334188
3,104,3,413,0.5,0.5,0.5,3,1,0.6,3,762,1,0,762,0,0,0.8,NaN,0.577477141971248,0.577477141971248,750,0,0,incongruent,0,26537.9948675818,7447.07008517544
3,104,3,414,-0.5,-0.5,-0.5,2,2,0.6,2,860,1,0,860,1,0,0.6,0.4,1.33887853901771,1.33887853901771,750,1,0,congruent,0.1,16677.601960472,1809.79958458234
3,104,3,415,-0.5,-0.5,0,4,NaN,0.6,4,628,1,1,628,1,0,0.8,0.4,-0.463622727459628,-0.463622727459628,750,0,0,neutral,0.1,1666.59410607729,9638.11544936942
3,104,3,416,0.5,-0.5,-0.5,2,2,0.6,2,736,1,1,736,1,0,0.8,NaN,0.375472689693615,0.375472689693615,750,1,0,congruent,1,4087.87760318807,10388.007756951
3,104,3,417,0.5,-0.5,0,4,NaN,0.6,4,879,1,0,879,1,0,0.8,NaN,1.48649717722059,1.48649717722059,750,0,0,neutral,1,1679.48382960451,4096.10034328988
3,104,3,420,-0.5,0.5,-0.5,4,4,0.4,4,605,1,1,605,1,0,1.4,0.4,-0.642318973705226,-0.642318973705226,750,1,0,congruent,0.1,4196.21576682613,3302.34079239986
3,104,3,421,0.5,-0.5,0,1,NaN,0.4,1,596,1,1,596,0,0,1.4,NaN,-0.71224359180133,-0.71224359180133,750,0,0,neutral,0,1555.0781705381,6072.90714417349
3,104,3,423,0.5,-0.5,0,1,NaN,0.6,1,861,1,0,861,1,0,0.8,NaN,1.34664794102839,1.34664794102839,750,0,0,neutral,1,10186.4114600402,40119.8371463291
3,104,3,425,-0.5,-0.5,0,4,NaN,0.4,4,734,1,1,734,1,0,0.8,0.6,0.359933885672259,0.359933885672259,750,0,0,neutral,0.1,4554.95885555176,6276.11321551884
3,104,3,427,0.5,-0.5,0.5,2,1,0.4,2,839,1,0,839,1,0,1.2,NaN,1.17572109679347,1.17572109679347,750,0,0,incongruent,1,7349.37463150173,4553.3407832029
3,104,3,428,-0.5,-0.5,0.5,4,2,0.4,4,622,1,1,622,1,0,1.4,0.8,-0.510239139523697,-0.510239139523697,750,0,0,incongruent,0.1,4351.57086982026,2714.53270950119
3,104,3,433,0.5,0.5,0.5,1,2,0.4,1,520,1,1,520,1,0,0.6,NaN,-1.30271814461287,-1.30271814461287,750,0,0,incongruent,1,1972.02566768346,3346.14099251448
3,104,3,434,-0.5,0.5,-0.5,4,4,0.6,4,610,1,1,610,1,0,0.8,0.8,-0.603471963651835,-0.603471963651835,750,1,0,congruent,0.1,10584.276928665,2851.72915095758
3,104,3,436,-0.5,0.5,0.5,1,2,0.6,1,887,1,0,887,0,0,1.2,0.8,1.54865239330602,1.54865239330602,750,0,0,incongruent,0,5151.45081617539,9394.87822955741
3,104,3,437,0.5,-0.5,0,3,NaN,0.6,3,689,1,1,689,1,0,0.8,NaN,0.0103107951917409,0.0103107951917409,750,0,0,neutral,1,8958.47301775944,4732.01236525528
3,104,3,438,0.5,0.5,-0.5,4,4,0.6,4,626,1,1,626,1,0,1.2,NaN,-0.479161531480984,-0.479161531480984,750,1,0,congruent,1,2793.21181886117,3897.83841345955
3,104,3,439,0.5,0.5,-0.5,3,3,0.8,3,818,1,0,818,0,0,1.2,NaN,1.01256365456923,1.01256365456923,750,1,0,congruent,0,5362.73150939167,3133.02111484568
3,104,3,440,-0.5,0.5,-0.5,2,2,0.6,2,570,1,1,570,1,0,1,0.8,-0.914248044078962,-0.914248044078962,750,1,0,congruent,0.1,13005.6430726225,15178.0717082032
3,104,3,442,0.5,0.5,-0.5,4,4,0.4,4,622,1,1,622,1,0,1,NaN,-0.510239139523697,-0.510239139523697,750,1,0,congruent,1,4370.3192467289,10030.2660480397
3,104,3,443,-0.5,-0.5,0.5,3,2,0.6,3,600,1,1,600,0,0,1,0.8,-0.681165983758617,-0.681165983758617,750,0,0,incongruent,0,18947.5420614084,4280.36890679517
3,104,3,445,0.5,-0.5,0.5,3,2,0.6,3,750,1,1,750,1,0,0.8,NaN,0.48424431784311,0.48424431784311,750,0,0,incongruent,1,1608.16838368043,7619.54842186209
3,104,3,446,-0.5,0.5,-0.5,4,4,0.6,4,544,1,1,544,1,0,1,0.8,-1.11625249635659,-1.11625249635659,750,1,0,congruent,0.1,1916.40008662227,4735.22158836915
3,104,3,448,0.5,0.5,-0.5,1,1,0.8,1,575,1,1,575,1,0,0.8,NaN,-0.875401034025571,-0.875401034025571,750,1,0,congruent,1,6999.4389660692,6060.86760658102
3,104,3,449,0.5,-0.5,0.5,3,4,0.8,3,790,1,0,790,1,0,1.2,NaN,0.795020398270237,0.795020398270237,750,0,0,incongruent,1,2849.5371221553,5561.36632020862
3,104,3,450,-0.5,-0.5,-0.5,2,2,0.8,2,765,1,0,765,1,0,1.4,0.6,0.600785348003282,0.600785348003282,750,1,0,congruent,0.1,2332.90018886495,4016.69122165184
3,104,4,451,-0.5,-0.5,0,4,NaN,0.8,4,602,1,1,602,1,0,1.2,0.6,-0.66562717973726,-0.66562717973726,750,0,0,neutral,0.1,5474.4341460901,8471.57730390773
3,104,4,452,-0.5,-0.5,-0.5,3,3,0.8,3,563,1,1,563,0,0,1.2,0.6,-0.968633858153709,-0.968633858153709,750,1,0,congruent,0,1349.1751602012,2960.31164069927
3,104,4,453,-0.5,-0.5,0,2,NaN,0.8,1,589,0,1,NaN,1,0,1.2,0.4,-0.766629405876077,NaN,750,0,1,neutral,0.1,6896.62342821451,1802.19415688516
3,104,4,455,-0.5,0.5,-0.5,3,3,0.8,3,444,1,1,444,1,0,0.8,0.8,-1.89319269742441,-1.89319269742441,750,1,0,congruent,0.1,2830.2944618313,11430.37467193
3,104,4,456,0.5,0.5,0,1,NaN,1,1,568,1,1,568,1,0,0.8,NaN,-0.929786848100319,-0.929786848100319,750,0,0,neutral,1,1650.67600496344,3972.21554855373
3,104,4,457,0.5,-0.5,-0.5,4,4,1,4,493,1,1,493,1,0,1,NaN,-1.51249199890118,-1.51249199890118,750,1,0,congruent,1,8227.04294355003,1892.32826244665
3,104,4,458,-0.5,-0.5,0.5,3,2,1,3,632,1,1,632,1,0,1.4,0.8,-0.432545119416915,-0.432545119416915,750,0,0,incongruent,0.1,1142.74953997278,688.360818461718
3,104,4,459,0.5,0.5,0,4,NaN,1,4,563,1,1,563,1,0,1.4,NaN,-0.968633858153709,-0.968633858153709,750,0,0,neutral,1,3645.31265541955,2211.77490282267
3,104,4,460,-0.5,0.5,0.5,2,1,1,2,831,1,0,831,0,0,1.6,0.8,1.11356588070804,1.11356588070804,750,0,0,incongruent,0,1894.11151066962,6264.25891569995
3,104,4,461,0.5,0.5,-0.5,3,3,0.8,3,736,1,1,736,1,0,1.4,NaN,0.375472689693615,0.375472689693615,750,1,0,congruent,1,1742.59571994579,1268.1722908336
3,104,4,462,-0.5,-0.5,0,2,NaN,0.8,2,809,1,0,809,1,0,1.4,0.8,0.942639036473122,0.942639036473122,750,0,0,neutral,0.1,3978.98687001446,6829.15159618733
3,104,4,463,-0.5,0.5,-0.5,3,3,0.8,3,565,1,1,565,1,0,1.2,0.8,-0.953095054132353,-0.953095054132353,750,1,0,congruent,0.1,5679.74416892303,5921.01200372601
3,104,4,464,0.5,-0.5,0,2,NaN,0.8,2,617,1,1,617,1,0,1.2,NaN,-0.549086149577088,-0.549086149577088,750,0,0,neutral,1,7520.41083957585,4401.90052763175
3,104,4,465,-0.5,-0.5,-0.5,3,3,0.8,3,567,1,1,567,1,0,1.2,0.8,-0.937556250110997,-0.937556250110997,750,1,0,congruent,0.1,4696.9921109115,4887.14957831986
3,104,4,467,-0.5,-0.5,-0.5,3,3,0.6,3,718,1,1,718,0,0,1,1,0.235623453501408,0.235623453501408,750,1,0,congruent,0,2936.42500764197,4823.03445892509
3,104,4,468,0.5,0.5,0,2,NaN,0.6,2,529,1,1,529,1,0,0.8,NaN,-1.23279352651677,-1.23279352651677,750,0,0,neutral,1,3584.20760979832,2322.29572409994
3,104,4,469,0.5,0.5,-0.5,1,1,0.6,1,560,1,1,560,1,0,1,NaN,-0.991942064185744,-0.991942064185744,750,1,0,congruent,1,3456.40272741622,9751.15563346786
3,104,4,470,-0.5,0.5,0.5,4,3,0.8,3,757,0,0,NaN,0,0,1,0.8,0.538630131917857,NaN,750,1,0,incongruent,0,8160.14883062219,3341.60748598797
3,104,4,471,-0.5,-0.5,0.5,2,1,0.6,2,803,1,0,803,1,0,0.8,0.8,0.896022624409053,0.896022624409053,750,0,0,incongruent,0.1,1061.59341671952,2076.80582855455
3,104,4,472,-0.5,0.5,0,1,NaN,0.6,1,663,1,1,663,1,0,1,0.6,-0.191693657085892,-0.191693657085892,750,0,0,neutral,0.1,7776.54126329047,10134.5515010335
3,104,4,473,-0.5,0.5,-0.5,2,2,0.6,2,788,1,0,788,0,0,1.2,0.6,0.77948159424888,0.77948159424888,750,1,0,congruent,0,4125.86244261291,2291.69852468766
3,104,4,474,-0.5,-0.5,-0.5,4,4,0.6,4,661,1,1,661,1,0,0.8,0.8,-0.207232461107248,-0.207232461107248,750,1,0,congruent,0.1,3267.03402330987,2856.91911371695
3,104,4,475,0.5,-0.5,-0.5,1,1,0.6,1,751,1,0,751,1,0,0.6,NaN,0.492013719853788,0.492013719853788,750,1,0,congruent,1,2745.52019770809,17640.1159745215
3,104,4,476,0.5,-0.5,0,2,NaN,0.6,2,699,1,1,699,0,0,1,NaN,0.0880048152985226,0.0880048152985226,750,0,0,neutral,0,9445.30726403415,7503.92918953113
3,104,4,477,0.5,-0.5,0.5,1,4,0.6,1,601,1,1,601,0,0,0.8,NaN,-0.673396581747939,-0.673396581747939,750,0,0,incongruent,0,1357.82974383927,13807.5269908891
3,104,4,478,-0.5,-0.5,0.5,2,3,0.6,2,789,1,0,789,0,0,0.6,0.8,0.787250996259559,0.787250996259559,750,0,0,incongruent,0,2094.20300734175,12738.1937717119
3,104,4,480,0.5,-0.5,-0.5,3,3,0.4,1,757,0,0,NaN,1,0,0.4,NaN,0.538630131917857,NaN,750,0,1,congruent,1,4349.78131049072,10647.9335190627
3,104,4,481,0.5,0.5,0.5,4,1,0.4,4,931,1,0,931,0,0,0.4,NaN,1.89050608177586,1.89050608177586,750,0,0,incongruent,0,7523.55336333232,8161.48251920271
3,104,4,482,-0.5,-0.5,0.5,1,4,0.2,1,909,1,0,909,0,0,0.4,0.6,1.71957923754094,1.71957923754094,750,0,0,incongruent,0,14227.9840170806,7481.68199025294
3,104,4,483,0.5,-0.5,0.5,3,1,0.2,3,849,1,0,849,0,0,0.4,NaN,1.25341511690025,1.25341511690025,750,0,0,incongruent,0,1403.33479357235,3746.27828971306
3,104,4,485,0.5,0.5,0,4,NaN,0.2,4,643,1,1,643,1,0,0.4,NaN,-0.347081697299455,-0.347081697299455,750,0,0,neutral,1,4382.90051478015,9933.39231248064
3,104,4,488,-0.5,0.5,0.5,4,3,0.2,3,524,0,1,NaN,0,0,0.4,0.4,-1.27164053657016,NaN,750,1,0,incongruent,0,7602.8479190205,5847.29135701017
3,104,4,489,-0.5,0.5,0.5,3,1,0.2,3,585,1,1,585,1,0,0.4,0.2,-0.79770701391879,-0.79770701391879,750,0,0,incongruent,0.1,2199.27780296357,4346.29782278487
3,104,4,490,0.5,0.5,-0.5,4,4,0.4,4,851,1,0,851,0,0,0.6,NaN,1.26895392092161,1.26895392092161,750,1,0,congruent,0,1452.03633547059,7541.1927440211
3,104,4,491,-0.5,0.5,0.5,2,1,0.4,2,963,1,0,963,0,0,0.2,0.4,2.13912694611756,2.13912694611756,750,0,0,incongruent,0,2563.38094211339,13098.0621229237
3,104,4,492,0.5,0.5,0.5,3,4,0.2,3,568,1,1,568,1,0,0.2,NaN,-0.929786848100319,-0.929786848100319,750,0,0,incongruent,1,5954.41499012168,4335.84172567951
3,104,4,493,-0.5,0.5,0.5,2,1,0.4,2,593,1,1,593,1,0,0.6,0.2,-0.735551797833364,-0.735551797833364,750,0,0,incongruent,0.1,4060.09238647747,2186.3251248672
3,104,4,494,-0.5,-0.5,0,1,NaN,0.6,1,692,1,1,692,0,0,0.8,0.4,0.0336190012237754,0.0336190012237754,750,0,0,neutral,0,4340.57903286818,6204.54436831848
3,104,4,495,0.5,-0.5,-0.5,4,4,0.6,3,479,0,1,NaN,0,0,0.6,NaN,-1.62126362705068,NaN,750,0,1,congruent,0,5233.35100990098,8356.12155744268
3,104,4,496,0.5,0.5,-0.5,1,1,0.6,1,661,1,1,661,1,0,0.6,NaN,-0.207232461107248,-0.207232461107248,750,1,0,congruent,1,1736.60171172838,13126.8507460534
3,104,4,497,0.5,-0.5,-0.5,3,3,0.6,3,546,1,1,546,0,0,1,NaN,-1.10071369233524,-1.10071369233524,750,1,0,congruent,0,1170.87320174079,4528.22004729483
3,104,4,499,0.5,0.5,-0.5,4,4,0.6,4,690,1,1,690,1,0,0.4,NaN,0.0180801972024191,0.0180801972024191,750,1,0,congruent,1,11505.1266612219,4359.04233824145
3,104,4,500,0.5,0.5,0,2,NaN,0.8,3,680,0,1,NaN,0,0,0.8,NaN,-0.0596138229043627,NaN,750,0,1,neutral,0,13113.4494782822,7252.50776313462
3,104,4,501,-0.5,0.5,0.5,3,2,0.6,3,628,1,1,628,1,0,0.8,0.4,-0.463622727459628,-0.463622727459628,750,0,0,incongruent,0.1,2619.10240812762,5694.04290272492
3,104,4,502,0.5,0.5,0.5,1,3,0.6,1,685,1,1,685,1,0,0.6,NaN,-0.0207668128509718,-0.0207668128509718,750,0,0,incongruent,1,4623.98311598181,4263.65150295649
3,104,4,503,0.5,-0.5,-0.5,4,4,0.6,4,570,1,1,570,0,0,1,NaN,-0.914248044078962,-0.914248044078962,750,1,0,congruent,0,3374.30735920846,3002.45991925013
3,104,4,504,0.5,-0.5,0.5,1,2,0.6,2,942,0,0,NaN,0,0,1,NaN,1.97596950389332,NaN,750,1,0,incongruent,0,2132.59146094519,13096.9034172617
3,104,4,505,0.5,0.5,0,2,NaN,0.6,1,681,0,1,NaN,0,0,0.6,NaN,-0.0518444208936845,NaN,750,0,1,neutral,0,20794.429607969,1821.96514094754
3,104,4,506,0.5,0.5,0.5,1,4,0.6,1,915,1,0,915,0,0,0.6,NaN,1.76619564960501,1.76619564960501,750,0,0,incongruent,0,1824.46740741805,1748.57206305796
3,104,4,507,0.5,0.5,-0.5,2,2,0.4,2,773,1,0,773,0,0,0.4,NaN,0.662940564088708,0.662940564088708,750,1,0,congruent,0,3650.92448080883,2451.40443384415
3,104,4,508,-0.5,0.5,0,4,NaN,0.4,4,607,1,1,607,1,0,0,0.6,-0.62678016968387,-0.62678016968387,750,0,0,neutral,0.1,6004.95802325296,5561.53421821076
3,104,4,509,-0.5,-0.5,-0.5,1,1,0.4,1,644,1,1,644,1,0,0.2,0.2,-0.339312295288777,-0.339312295288777,750,1,0,congruent,0.1,3124.52225343164,3285.77676943308
3,104,4,510,-0.5,-0.5,0.5,3,2,0.4,3,464,1,1,464,0,0,0.4,0.2,-1.73780465721085,-1.73780465721085,750,0,0,incongruent,0,4285.97707236509,3799.9909425224
3,104,4,511,-0.5,0.5,-0.5,1,1,0.4,1,626,1,1,626,1,0,0.4,0.6,-0.479161531480984,-0.479161531480984,750,1,0,congruent,0.1,14746.8826215256,1890.91583244045
3,104,4,512,-0.5,0.5,0.5,4,2,0.4,3,706,0,1,NaN,0,0,0.6,0.8,0.14239062937327,NaN,750,0,1,incongruent,0,6184.27462553745,3341.37933003726
3,104,4,514,-0.5,-0.5,-0.5,3,3,0.4,3,631,1,1,631,1,0,0.4,0.2,-0.440314521427593,-0.440314521427593,750,1,0,congruent,0.1,829.359885292404,6498.85414383544
3,104,4,515,-0.5,0.5,0,2,NaN,0.4,2,651,1,1,651,1,0,0.4,0.6,-0.28492648121403,-0.28492648121403,750,0,0,neutral,0.1,3623.61527721976,8921.32960546031
3,104,4,516,-0.5,0.5,-0.5,3,3,0.6,3,693,1,1,693,1,0,0.6,0.6,0.0413884032344536,0.0413884032344536,750,1,0,congruent,0.1,7491.24177790231,10623.6176923603
3,104,4,517,-0.5,-0.5,0,2,NaN,0.6,2,685,1,1,685,1,0,0.6,0.4,-0.0207668128509718,-0.0207668128509718,750,0,0,neutral,0.1,3958.3211011336,4236.39918660274
3,104,4,519,0.5,-0.5,0.5,1,2,0.6,1,649,1,1,649,1,0,1,NaN,-0.300465285235386,-0.300465285235386,750,0,0,incongruent,1,2632.17777877399,6698.51266643782
3,104,4,520,0.5,0.5,-0.5,3,3,0.6,3,602,1,1,602,1,0,1.2,NaN,-0.66562717973726,-0.66562717973726,750,1,0,congruent,1,2695.60708846837,9607.88890546196
3,104,4,522,0.5,0.5,0.5,3,2,0.8,3,732,1,1,732,1,0,1.6,NaN,0.344395081650902,0.344395081650902,750,0,0,incongruent,1,6212.67640458967,14748.9732592417
3,104,4,523,-0.5,-0.5,0.5,1,4,1,2,851,0,0,NaN,1,0,1.8,0.6,1.26895392092161,NaN,750,0,1,incongruent,0.1,9900.53698180005,5320.84368844243
3,104,4,524,-0.5,0.5,0,2,NaN,1,2,676,1,1,676,1,0,1.8,0.6,-0.0906914309470754,-0.0906914309470754,750,0,0,neutral,0.1,2569.44346764614,1336.12565505548
3,104,4,525,0.5,0.5,-0.5,3,3,1,3,592,1,1,592,1,0,1.6,NaN,-0.743321199844042,-0.743321199844042,750,1,0,congruent,1,5208.91209844322,2977.52738993284
3,104,4,526,-0.5,-0.5,0,2,NaN,1,2,715,1,1,715,1,0,1.6,0.8,0.212315247469373,0.212315247469373,750,0,0,neutral,0.1,2149.12231841204,5248.66340725463
3,104,4,527,-0.5,-0.5,-0.5,1,1,1,1,534,1,1,534,1,0,1.4,0.8,-1.19394651646338,-1.19394651646338,750,1,0,congruent,0.1,5265.59153620288,2727.51283655445
3,104,4,528,-0.5,0.5,0.5,3,4,1,3,594,1,1,594,1,0,1.2,0.8,-0.727782395822686,-0.727782395822686,750,0,0,incongruent,0.1,9642.60989963173,6561.82561897251
3,104,4,529,-0.5,0.5,-0.5,1,1,1,1,605,1,1,605,1,0,1.2,1,-0.642318973705226,-0.642318973705226,750,1,0,congruent,0.1,4472.69987665298,1669.83263436022
3,104,4,531,0.5,-0.5,-0.5,1,1,1,1,569,1,1,569,1,0,1.2,NaN,-0.92201744608964,-0.92201744608964,750,1,0,congruent,1,12668.6246435946,10303.0471371349
3,104,4,532,0.5,-0.5,0.5,2,4,1,2,780,1,0,780,1,0,1.4,NaN,0.717326378163455,0.717326378163455,750,0,0,incongruent,1,4632.98623874804,3588.64492722563
3,104,4,534,0.5,0.5,0.5,4,1,0.8,1,732,0,1,NaN,0,0,1.4,NaN,0.344395081650902,NaN,750,1,0,incongruent,0,2278.85346529128,10701.9900814718
3,104,4,535,0.5,-0.5,-0.5,2,2,0.6,2,791,1,0,791,1,0,1.2,NaN,0.802789800280915,0.802789800280915,750,1,0,congruent,1,1592.51193035399,2727.83906068515
3,104,4,536,0.5,-0.5,-0.5,3,3,0.6,3,595,1,1,595,0,0,1.2,NaN,-0.720012993812008,-0.720012993812008,750,1,0,congruent,0,4298.20577001885,12343.7026320039
3,104,4,537,0.5,0.5,-0.5,2,2,0.6,2,559,1,1,559,1,0,0.8,NaN,-0.999711466196422,-0.999711466196422,750,1,0,congruent,1,5698.95777415407,4534.79072831738
3,104,4,538,0.5,0.5,0,4,NaN,0.6,4,704,1,1,704,1,0,0.8,NaN,0.126851825351914,0.126851825351914,750,0,0,neutral,1,3196.10055416037,3846.90735419707
3,104,4,539,0.5,-0.5,0.5,2,3,0.6,2,635,1,1,635,0,0,1.2,NaN,-0.409236913384881,-0.409236913384881,750,0,0,incongruent,0,8336.61249017273,11735.9633292629
3,104,4,540,-0.5,-0.5,0.5,1,2,0.6,1,618,1,1,618,1,0,1.2,1,-0.54131674756641,-0.54131674756641,750,0,0,incongruent,0.1,3383.78021067131,6477.96124656233
3,104,4,541,-0.5,-0.5,0,2,NaN,0.6,2,638,1,1,638,1,0,1,1,-0.385928707352846,-0.385928707352846,750,0,0,neutral,0.1,3847.45029895356,2660.764596203
3,104,4,542,0.5,-0.5,0.5,4,3,0.6,3,696,0,1,NaN,0,0,1.2,NaN,0.0646966092664881,NaN,750,1,0,incongruent,0,4954.42767525094,2560.86321084135
3,104,4,544,-0.5,0.5,0.5,4,3,0.6,4,777,1,0,777,0,0,0.4,0.8,0.69401817213142,0.69401817213142,750,0,0,incongruent,0,3613.27762738932,7421.68784008047
3,104,4,546,-0.5,0.5,-0.5,2,2,0.4,1,783,0,0,NaN,0,0,0.2,0.6,0.740634584195489,NaN,750,0,1,congruent,0,3856.05139287873,22150.4850078439
3,104,4,547,-0.5,-0.5,0,3,NaN,0.4,3,598,1,1,598,0,0,0,0.8,-0.696704787779973,-0.696704787779973,750,0,0,neutral,0,3289.64086124079,9652.55574039874
3,104,4,548,-0.5,-0.5,-0.5,2,2,0.4,2,527,1,1,527,0,0,0,0.6,-1.24833233053812,-1.24833233053812,750,1,0,congruent,0,5803.23754248976,4646.37782015156
3,104,4,549,-0.5,-0.5,0,3,NaN,0.4,3,684,1,1,684,1,0,0,0.4,-0.02853621486165,-0.02853621486165,750,0,0,neutral,0.1,1611.54939694531,3738.3535588852
3,104,4,550,-0.5,-0.5,-0.5,2,2,0.4,2,547,1,1,547,0,0,0.2,0.4,-1.09294429032456,-1.09294429032456,750,1,0,congruent,0,3266.74360925514,3764.01819292063
3,104,4,551,0.5,-0.5,0,3,NaN,0.4,3,801,1,0,801,1,0,0.2,NaN,0.880483820387697,0.880483820387697,750,0,0,neutral,1,4306.51710191243,917.787559864114
3,104,4,552,0.5,-0.5,-0.5,4,4,0.4,4,893,1,0,893,1,0,0.6,NaN,1.59526880537009,1.59526880537009,750,1,0,congruent,1,2837.86370267469,10796.4886411836
3,104,4,554,0.5,0.5,-0.5,4,4,0.4,4,735,1,1,735,1,0,1,NaN,0.367703287682937,0.367703287682937,750,1,0,congruent,1,1952.54359877986,5277.15682793407
3,104,4,555,0.5,0.5,-0.5,2,2,0.4,2,825,1,0,825,0,0,1.2,NaN,1.06694946864397,1.06694946864397,750,1,0,congruent,0,8851.41039014321,8891.36749542413
3,104,4,556,0.5,-0.5,0,3,NaN,0.2,3,654,1,1,654,0,0,1.2,NaN,-0.261618275181995,-0.261618275181995,750,0,0,neutral,0,7004.91591018036,3206.91289702447
3,104,4,557,0.5,-0.5,0.5,1,4,0.2,1,710,1,1,710,0,0,0.8,NaN,0.173468237415983,0.173468237415983,750,0,0,incongruent,0,4095.76185382225,15395.692862536
3,104,4,559,-0.5,0.5,0,1,NaN,0.2,2,980,0,0,NaN,0,0,0.4,0.2,2.27120678029909,NaN,750,0,1,neutral,0,15334.1464627946,5540.50538326586
3,104,4,561,-0.5,-0.5,-0.5,3,3,0.2,3,483,1,1,483,1,0,0,0.2,-1.59018601900796,-1.59018601900796,750,1,0,congruent,0.1,1851.79478819384,9896.71113267113
3,104,4,562,-0.5,-0.5,0.5,4,1,0.2,4,819,1,0,819,0,0,0.2,0.4,1.0203330565799,1.0203330565799,750,0,0,incongruent,0,17831.6102636604,10802.6692043513
3,104,4,563,-0.5,0.5,-0.5,2,2,0.2,2,570,1,1,570,1,0,0.2,0,-0.914248044078962,-0.914248044078962,750,1,0,congruent,0.1,937.949476983008,11776.0812492613
3,104,4,564,-0.5,0.5,0.5,1,3,0.2,1,889,1,0,889,0,0,0.4,0.2,1.56419119732738,1.56419119732738,750,0,0,incongruent,0,3106.45037349513,3494.92895929372
3,104,4,565,-0.5,-0.5,0,3,NaN,0.2,3,724,1,1,724,0,0,0.4,0.4,0.282239865565477,0.282239865565477,750,0,0,neutral,0,7492.95820346789,10332.8718523107
3,104,4,566,0.5,0.5,-0.5,4,4,0.2,4,583,1,1,583,1,0,0.4,NaN,-0.813245817940146,-0.813245817940146,750,1,0,congruent,1,2619.71623399599,81922.6644530557
3,104,4,568,-0.5,-0.5,-0.5,4,4,0.4,4,640,1,1,640,1,0,0.6,0.4,-0.37038990333149,-0.37038990333149,750,1,0,congruent,0.1,3062.42896446574,8613.38003809884
3,104,4,569,-0.5,-0.5,0.5,3,1,0.4,3,997,1,0,997,1,0,0.6,0.4,2.40328661448062,2.40328661448062,750,0,0,incongruent,0.1,5948.60222763713,4067.681793289
3,104,4,570,-0.5,0.5,0.5,1,3,0.4,1,542,1,1,542,1,0,0.8,0.2,-1.13179130037795,-1.13179130037795,750,0,0,incongruent,0.1,1112.50312569992,2274.49038752475
3,104,4,572,0.5,0.5,-0.5,3,3,0.8,3,560,1,1,560,1,0,1,NaN,-0.991942064185744,-0.991942064185744,750,1,0,congruent,1,7063.13922036822,2739.15228738957
3,104,4,574,-0.5,-0.5,0.5,4,3,0.8,4,697,1,1,697,1,0,1.2,0.6,0.0724660112771663,0.0724660112771663,750,0,0,incongruent,0.1,8924.6566925058,3052.5561315389
3,104,4,575,0.5,0.5,0.5,1,2,0.8,1,673,1,1,673,1,0,1.2,NaN,-0.11399963697911,-0.11399963697911,750,0,0,incongruent,1,4233.65247475517,13850.5923615567
3,104,4,576,0.5,-0.5,0.5,3,1,0.8,3,812,1,0,812,1,0,1.4,NaN,0.965947242505157,0.965947242505157,750,0,0,incongruent,1,2904.71411414131,822.07166007713
3,104,4,577,0.5,-0.5,-0.5,4,4,0.8,4,584,1,1,584,1,0,1.4,NaN,-0.805476415929468,-0.805476415929468,750,1,0,congruent,1,4249.07376881563,6462.74146818573
3,104,4,578,-0.5,-0.5,0,3,NaN,0.8,3,551,1,1,551,1,0,1.4,0.6,-1.06186668228185,-1.06186668228185,750,0,0,neutral,0.1,1865.88500738703,3216.7231969701
3,104,4,580,0.5,0.5,-0.5,2,2,0.8,2,886,1,0,886,0,0,1.8,NaN,1.54088299129534,1.54088299129534,750,1,0,congruent,0,4436.8381822826,6815.76046904928
3,104,4,581,-0.5,-0.5,0,3,NaN,0.6,3,570,1,1,570,1,0,1.4,0.8,-0.914248044078962,-0.914248044078962,750,0,0,neutral,0.1,7680.77684759452,8543.57816291536
3,104,4,582,0.5,-0.5,-0.5,1,1,0.6,4,638,0,1,NaN,1,0,1.2,NaN,-0.385928707352846,NaN,750,0,1,congruent,1,3874.48052182712,5734.36391005592
3,104,4,583,0.5,0.5,0,3,NaN,0.6,3,586,1,1,586,1,0,1.2,NaN,-0.789937611908111,-0.789937611908111,750,0,0,neutral,1,10271.0243117649,11557.4113249598
3,104,4,584,-0.5,0.5,0.5,4,3,0.6,4,671,1,1,671,1,0,1.4,0.4,-0.129538441000466,-0.129538441000466,750,0,0,incongruent,0.1,6245.32493403179,2653.79781114956
3,104,4,585,-0.5,0.5,-0.5,1,1,0.6,3,854,0,0,NaN,0,0,1.2,0.6,1.29226212695364,NaN,750,0,1,congruent,0,9143.46573270476,9054.84283923607
3,104,4,587,-0.5,0.5,-0.5,2,2,0.6,2,583,1,1,583,1,0,1.2,0.4,-0.813245817940146,-0.813245817940146,750,1,0,congruent,0.1,6942.80688045912,8415.99204599281
3,104,4,588,-0.5,0.5,0.5,4,1,0.6,4,588,1,1,588,1,0,1,0.6,-0.774398807886755,-0.774398807886755,750,0,0,incongruent,0.1,7669.05600856807,47107.0574539269
3,104,4,590,0.5,0.5,-0.5,3,3,0.8,2,473,0,1,NaN,0,0,0.8,NaN,-1.66788003911475,NaN,750,0,1,congruent,0,5217.2665642378,9613.0860321912
3,104,4,591,-0.5,-0.5,0,1,NaN,0.6,1,683,1,1,683,1,0,0.8,1,-0.0363056168723282,-0.0363056168723282,750,0,0,neutral,0.1,4892.12595392264,4968.26570844777
3,104,4,592,0.5,-0.5,-0.5,3,3,0.6,3,560,1,1,560,1,0,0.8,NaN,-0.991942064185744,-0.991942064185744,750,1,0,congruent,1,4901.13018406972,5885.43273793464
3,104,4,593,0.5,0.5,0.5,2,4,0.6,2,770,1,0,770,0,0,1,NaN,0.639632358056673,0.639632358056673,750,0,0,incongruent,0,7887.19658705456,4736.8844691488
3,104,4,594,-0.5,0.5,-0.5,1,1,0.4,1,580,1,1,580,1,0,0.8,0.6,-0.83655402397218,-0.83655402397218,750,1,0,congruent,0.1,7599.00232735402,2295.56795834928
3,104,4,595,-0.5,0.5,0,2,NaN,0.6,2,729,1,1,729,1,0,0.8,0.8,0.321086875618868,0.321086875618868,750,0,0,neutral,0.1,2724.39635429959,6605.11751109091
3,104,4,596,0.5,-0.5,-0.5,4,4,0.6,4,481,1,1,481,1,0,1,NaN,-1.60572482302932,-1.60572482302932,750,1,0,congruent,1,11632.7689548466,7426.74658685576
3,104,4,597,0.5,0.5,0.5,1,2,0.6,2,656,0,1,NaN,0,0,1.2,NaN,-0.246079471160639,NaN,750,1,0,incongruent,0,9627.32590126568,2265.16679477439
3,104,4,598,0.5,-0.5,0,4,NaN,0.4,4,940,1,0,940,0,0,0.8,NaN,1.96043069987196,1.96043069987196,750,0,0,neutral,0,7258.38037111441,19503.9612304163
3,104,4,599,0.5,0.5,0.5,2,1,0.4,2,633,1,1,633,1,0,0.8,NaN,-0.424775717406237,-0.424775717406237,750,0,0,incongruent,1,12273.3232506808,2518.64462168492
3,104,4,600,0.5,0.5,0.5,3,4,0.6,3,612,1,1,612,1,0,1,NaN,-0.587933159630479,-0.587933159630479,750,0,0,incongruent,1,989.969280247167,20397.9236276599
