subid,vers,block,trial,rewlvl,efflvl,congruency,targetresp,distractorresp,rollingefflvl,resp,rt,acc,fast,accrt,isrewarded,ismiss,runavgrrgen,runavgrrcond,zrt,acczrt,rtthreshold,isdisterror,isranderror,congruence,feedback,fcz_resp_theta,fcz_resp_theta_baseline
4,104,1,12,-0.5,0.5,-0.5,2,2,0.2,1,756,0,0,NaN,0,0,0.2,0.2,1.65605586830483,NaN,750,0,1,congruent,0,766.719165074559,7655.34438335608
4,104,1,13,-0.5,-0.5,-0.5,3,3,0,3,571,1,1,571,0,0,0.2,0.4,0.163426745581233,0.163426745581233,750,1,0,congruent,0,1533.71867329349,5422.58744405954
4,104,1,14,0.5,0.5,-0.5,1,1,0,2,666,0,1,NaN,0,0,0,NaN,0.92991197076362,NaN,750,0,1,congruent,0,10327.1507092474,1601.81527356364
4,104,1,15,-0.5,-0.5,-0.5,4,4,0,4,698,1,1,698,0,0,0,0.2,1.18809646766716,1.18809646766716,750,1,0,congruent,0,2292.71287008579,5777.71053918053
4,104,1,16,0.5,-0.5,0.5,3,1,0,3,653,1,1,653,0,0,0,NaN,0.825024518896557,0.825024518896557,750,0,0,incongruent,0,3605.74149661651,2120.49585348654
4,104,1,17,0.5,-0.5,0,4,NaN,0,4,629,1,1,629,0,0,0,NaN,0.631386146218901,0.631386146218901,750,0,0,neutral,0,2861.81406464087,6217.47601043732
4,104,1,18,0.5,-0.5,0.5,3,2,0,3,947,1,0,947,0,0,0,NaN,3.19709458419784,3.19709458419784,750,0,0,incongruent,0,5692.01188937952,9172.8296919367
4,104,1,19,-0.5,-0.5,0.5,2,3,0,1,831,0,0,NaN,0,0,0,0.2,2.2611757829225,NaN,750,0,1,incongruent,0,9413.17801490661,6828.92305086955
4,104,1,20,0.5,-0.5,0,1,NaN,0,1,759,1,0,759,0,0,0,NaN,1.68026066488954,1.68026066488954,750,0,0,neutral,0,2001.42698606736,11062.9490071651
4,104,1,21,0.5,0.5,-0.5,4,4,0,3,527,0,1,NaN,0,0,0,NaN,-0.191576937661135,NaN,750,0,1,congruent,0,11018.2814551714,1492.87837803908
4,104,1,22,-0.5,0.5,0.5,1,3,0,1,859,1,0,859,0,0,0,0.2,2.4870872177131,2.4870872177131,750,0,0,incongruent,0,6873.94039963027,4972.48520867715
4,104,1,23,0.5,0.5,-0.5,2,2,0,1,786,0,0,NaN,0,0,0,NaN,1.8981038341519,NaN,750,0,1,congruent,0,6640.80702830994,10729.3516577114
4,104,1,24,0.5,0.5,0,1,NaN,0,1,762,1,0,762,0,0,0,NaN,1.70446546147424,1.70446546147424,750,0,0,neutral,0,4749.39055497797,850.027879436975
4,104,1,25,-0.5,0.5,-0.5,2,2,0,2,852,1,0,852,0,0,0,0.2,2.43060935901545,2.43060935901545,750,1,0,congruent,0,8631.62101933734,2077.05445318619
4,104,1,26,-0.5,-0.5,0.5,1,4,0,1,559,1,1,559,0,0,0,0,0.0666075592424056,0.0666075592424056,750,0,0,incongruent,0,5636.87631816938,1799.20579965469
4,104,1,27,0.5,0.5,0.5,2,1,0,2,866,1,0,866,0,0,0,NaN,2.54356507641075,2.54356507641075,750,0,0,incongruent,0,448.434329228178,3345.39406639568
4,104,1,28,0.5,0.5,0,1,NaN,0,1,584,1,1,584,1,0,0,NaN,0.268314197448297,0.268314197448297,750,0,0,neutral,1,5524.6525451061,2673.64680257348
4,104,1,29,-0.5,0.5,-0.5,2,2,0.2,2,672,1,1,672,1,0,0.4,0.2,0.978321563933034,0.978321563933034,750,1,0,congruent,0.1,4259.13872625742,606.50617433119
4,104,1,30,0.5,-0.5,0.5,4,1,0.4,4,861,1,0,861,0,0,0.6,NaN,2.50322374876957,2.50322374876957,750,0,0,incongruent,0,7982.03549526948,2849.22367186954
4,104,1,32,-0.5,-0.5,0.5,4,2,0.4,4,694,1,1,694,0,0,0.6,0,1.15582340555422,1.15582340555422,750,0,0,incongruent,0,1801.87120334137,3323.00317527371
4,104,1,33,0.5,-0.5,0.5,3,4,0.4,3,519,1,1,519,1,0,0.6,NaN,-0.25612306188702,-0.25612306188702,750,0,0,incongruent,1,4120.79222037252,4213.22907772085
4,104,1,34,0.5,-0.5,0,1,NaN,0.4,1,682,1,1,682,0,0,0.6,NaN,1.05900421921539,1.05900421921539,750,0,0,neutral,0,3377.90598233533,3112.79210348998
4,104,1,35,0.5,0.5,0.5,4,2,0.4,4,703,1,1,703,1,0,0.4,NaN,1.22843779530834,1.22843779530834,750,0,0,incongruent,1,10804.8393295047,2320.51912291203
4,104,1,36,-0.5,0.5,0,1,NaN,0.6,1,527,1,1,527,1,0,0.8,0.2,-0.191576937661135,-0.191576937661135,750,0,0,neutral,0.1,2182.38825666606,2280.23440238738
4,104,1,37,0.5,-0.5,-0.5,2,2,0.8,2,510,1,1,510,1,0,1,NaN,-0.328737451641141,-0.328737451641141,750,1,0,congruent,1,1063.960778261,2630.01526951415
4,104,1,38,-0.5,0.5,0.5,3,4,0.8,4,499,0,1,NaN,0,0,1.4,0.4,-0.417488372451733,NaN,750,1,0,incongruent,0,16764.6319694927,2720.22686448417
4,104,1,39,0.5,0.5,0.5,2,1,0.6,1,567,0,1,NaN,0,0,1,NaN,0.131153683468291,NaN,750,1,0,incongruent,0,6545.81788041173,3522.15262890921
4,104,1,40,-0.5,0.5,0,3,NaN,0.4,3,568,1,1,568,1,0,1,0.4,0.139221948996526,0.139221948996526,750,0,0,neutral,0.1,1877.75115267601,3064.2946013842
4,104,1,41,0.5,-0.5,-0.5,4,4,0.6,4,464,1,1,464,1,0,0.8,NaN,-0.699877665939981,-0.699877665939981,750,1,0,congruent,1,1455.38521604372,1294.76850837591
4,104,1,42,0.5,-0.5,0.5,2,1,0.6,1,508,0,1,NaN,1,0,1,NaN,-0.344873982697613,NaN,750,1,0,incongruent,1,3201.63635351859,1834.2716666693
4,104,1,43,-0.5,0.5,-0.5,3,3,0.6,3,629,1,1,629,1,0,1,0.6,0.631386146218901,0.631386146218901,750,1,0,congruent,0.1,3144.54629472605,3880.03276946578
4,104,1,44,0.5,0.5,0,4,NaN,0.6,3,540,0,1,NaN,0,0,1.2,NaN,-0.0866894857940718,NaN,750,0,1,neutral,0,2337.34036917881,1907.34457344444
4,104,1,45,0.5,-0.5,-0.5,2,2,0.4,1,566,0,1,NaN,0,0,1.2,NaN,0.123085417940055,NaN,750,0,1,congruent,0,2250.10962369191,1512.2680993829
4,104,1,46,0.5,-0.5,0,3,NaN,0.4,3,632,1,1,632,0,0,1,NaN,0.655590942803608,0.655590942803608,750,0,0,neutral,0,4080.94832772643,2232.73307910879
4,104,1,47,0.5,-0.5,-0.5,4,4,0.4,3,899,0,0,NaN,1,0,0.6,NaN,2.80981783884253,NaN,750,0,1,congruent,1,6426.57722599106,7170.82454436205
4,104,1,48,0.5,-0.5,0,2,NaN,0.4,1,585,0,1,NaN,0,0,0.6,NaN,0.276382462976532,NaN,750,0,1,neutral,0,14830.0879173195,1295.85706181806
4,104,1,49,-0.5,0.5,-0.5,1,1,0.4,2,529,0,1,NaN,0,0,0.4,0.8,-0.175440406604664,NaN,750,0,1,congruent,0,3874.29823404489,3184.48188150129
4,104,1,51,0.5,0.5,0.5,1,2,0.4,1,729,1,1,729,1,0,0.4,NaN,1.43821269904247,1.43821269904247,750,0,0,incongruent,1,5320.96914386022,4683.09001856471
4,104,1,52,0.5,0.5,0.5,3,4,0.6,3,594,1,1,594,1,0,0.8,NaN,0.348996852730653,0.348996852730653,750,0,0,incongruent,1,2363.28522121959,5663.81600349288
4,104,1,53,0.5,-0.5,-0.5,2,2,0.6,1,889,0,0,NaN,0,0,0.8,NaN,2.72913518356017,NaN,750,0,1,congruent,0,22266.2531849407,4589.39938379165
4,104,1,54,0.5,-0.5,0,3,NaN,0.6,3,543,1,1,543,1,0,0.8,NaN,-0.0624846892093648,-0.0624846892093648,750,0,0,neutral,1,5369.53221870537,3115.2608067284
4,104,1,55,0.5,-0.5,-0.5,1,1,0.6,2,524,0,1,NaN,1,0,1.2,NaN,-0.215781734245842,NaN,750,0,1,congruent,1,12570.9945333053,988.876515024391
4,104,1,56,0.5,0.5,0,3,NaN,0.6,3,531,1,1,531,1,0,1.6,NaN,-0.159303875548193,-0.159303875548193,750,0,0,neutral,1,3512.99718246094,1562.83196247744
4,104,1,57,0.5,-0.5,-0.5,2,2,0.6,2,811,1,0,811,1,0,1.6,NaN,2.09981047235779,2.09981047235779,750,1,0,congruent,1,1161.4380742057,7476.22881736535
4,104,1,58,-0.5,0.5,-0.5,4,4,0.6,4,431,1,1,431,1,0,1.6,0.6,-0.966130428371758,-0.966130428371758,750,1,0,congruent,0.1,2495.47852916143,846.968727060531
4,104,1,59,0.5,-0.5,-0.5,1,1,0.8,1,674,1,1,674,1,0,1.8,NaN,0.994458094989505,0.994458094989505,750,1,0,congruent,1,3672.77250935462,2611.18034411155
4,104,1,60,-0.5,-0.5,0.5,2,4,0.8,2,373,1,1,373,1,0,1.8,0,-1.43408982900943,-1.43408982900943,750,0,0,incongruent,0.1,1982.55847421695,6340.78592514604
4,104,1,61,-0.5,-0.5,-0.5,1,1,0.8,1,580,1,1,580,1,0,1.6,0.2,0.236041135335354,0.236041135335354,750,1,0,congruent,0.1,3185.91133362465,4676.29153908974
4,104,1,62,0.5,-0.5,0.5,4,2,0.8,4,407,1,1,407,0,0,1.4,NaN,-1.15976880104941,-1.15976880104941,750,0,0,incongruent,0,1207.93293530652,1171.75053257285
4,104,1,63,-0.5,0.5,-0.5,3,3,0.8,3,540,1,1,540,1,0,1,0.6,-0.0866894857940718,-0.0866894857940718,750,1,0,congruent,0.1,4757.99520390049,6754.61616224772
4,104,1,64,0.5,-0.5,-0.5,2,2,1,1,513,0,1,NaN,1,0,1,NaN,-0.304532655056434,NaN,750,0,1,congruent,1,4740.07390128092,4057.79464165281
4,104,1,65,0.5,0.5,0.5,3,1,1,3,491,1,1,491,1,0,1,NaN,-0.482034496677619,-0.482034496677619,750,0,0,incongruent,1,4892.99669995406,1421.66932547352
4,104,1,66,-0.5,0.5,-0.5,4,4,1,4,520,1,1,520,1,0,1.2,0.8,-0.248054796358785,-0.248054796358785,750,1,0,congruent,0.1,2991.29770804595,3241.16683574643
4,104,1,67,0.5,0.5,0.5,1,2,1,1,687,1,1,687,1,0,1.2,NaN,1.09934554685657,1.09934554685657,750,0,0,incongruent,1,4563.66008759661,3538.18734762875
4,104,1,68,0.5,0.5,-0.5,4,4,1,4,492,1,1,492,1,0,1.6,NaN,-0.473966231149383,-0.473966231149383,750,1,0,congruent,1,2441.41034662067,1692.64928149926
4,104,1,69,0.5,-0.5,-0.5,3,3,1,3,532,1,1,532,1,0,1.8,NaN,-0.151235610019957,-0.151235610019957,750,1,0,congruent,1,1244.11312506975,1080.99175475263
4,104,1,70,0.5,0.5,0,4,NaN,1,4,607,1,1,607,1,0,1.8,NaN,0.453884304597717,0.453884304597717,750,0,0,neutral,1,3769.40921348837,444.028382084232
4,104,1,71,0.5,-0.5,-0.5,2,2,1,1,694,0,1,NaN,1,0,1.8,NaN,1.15582340555422,NaN,750,0,1,congruent,1,11099.4813468159,2717.13307883393
4,104,1,72,-0.5,-0.5,-0.5,4,4,1,4,558,1,1,558,1,0,2,0.4,0.0585392937141699,0.0585392937141699,750,1,0,congruent,0.1,2000.58927219236,1862.90403001595
4,104,1,73,0.5,0.5,0.5,3,2,1,4,952,0,0,NaN,0,0,1.8,NaN,3.23743591183902,NaN,750,0,1,incongruent,0,6691.11125254354,2747.40672820167
4,104,1,74,0.5,0.5,0,4,NaN,0.8,4,551,1,1,551,1,0,1.4,NaN,0.00206143501652037,0.00206143501652037,750,0,0,neutral,1,12404.866840334,776.790112333539
4,104,1,75,0.5,-0.5,-0.5,3,3,0.8,3,460,1,1,460,1,0,1.4,NaN,-0.732150728052924,-0.732150728052924,750,1,0,congruent,1,1173.67105637429,3825.32176849021
4,104,1,77,0.5,-0.5,-0.5,3,3,0.8,3,584,1,1,584,1,0,1.4,NaN,0.268314197448297,0.268314197448297,750,1,0,congruent,1,4965.33013046166,5783.50026547585
4,104,1,78,0.5,-0.5,-0.5,1,1,0.8,1,585,1,1,585,1,0,1.6,NaN,0.276382462976532,0.276382462976532,750,1,0,congruent,1,8834.66459303141,3373.95140881721
4,104,1,79,-0.5,0.5,0,3,NaN,0.8,3,509,1,1,509,1,0,2,0.8,-0.336805717169377,-0.336805717169377,750,0,0,neutral,0.1,620.488402379056,7226.05180429884
4,104,1,80,0.5,-0.5,-0.5,2,2,0.8,2,552,1,1,552,1,0,1.8,NaN,0.010129700544756,0.010129700544756,750,1,0,congruent,1,6841.43986656031,1198.38297879991
4,104,1,81,-0.5,-0.5,0,4,NaN,0.8,4,368,1,1,368,1,0,1.8,0.6,-1.4744311566506,-1.4744311566506,750,0,0,neutral,0.1,1967.50375776452,1040.84812064735
4,104,1,82,0.5,-0.5,-0.5,3,3,0.8,3,536,1,1,536,1,0,1.6,NaN,-0.118962547907014,-0.118962547907014,750,1,0,congruent,1,5242.18393770131,2502.19471540395
4,104,1,83,0.5,0.5,0.5,1,4,0.8,1,719,1,1,719,1,0,1.6,NaN,1.35753004376011,1.35753004376011,750,0,0,incongruent,1,2017.74680191882,2155.19663322854
4,104,1,84,0.5,-0.5,0.5,3,2,0.8,3,561,1,1,561,1,0,1.6,NaN,0.0827440902988769,0.0827440902988769,750,0,0,incongruent,1,2380.04581907802,562.794333811123
4,104,1,85,-0.5,0.5,0.5,1,4,0.8,1,581,1,1,581,1,0,1.8,0.8,0.24410940086359,0.24410940086359,750,0,0,incongruent,0.1,17399.2168120232,3191.41682207932
4,104,1,86,0.5,0.5,0.5,3,2,0.8,3,844,1,0,844,0,0,1.6,NaN,2.36606323478957,2.36606323478957,750,0,0,incongruent,0,2019.16796377927,2794.42878681518
4,104,1,87,0.5,0.5,0,4,NaN,0.8,4,512,1,1,512,1,0,1.4,NaN,-0.31260092058467,-0.31260092058467,750,0,0,neutral,1,5597.62920340955,723.909324871385
4,104,1,88,-0.5,0.5,-0.5,1,1,0.8,3,533,0,1,NaN,0,0,1.4,1,-0.143167344491721,NaN,750,0,1,congruent,0,2077.09226978427,2118.65214305661
4,104,1,89,-0.5,0.5,0,4,NaN,0.6,4,492,1,1,492,1,0,1,0.8,-0.473966231149383,-0.473966231149383,750,0,0,neutral,0.1,4082.91690134855,1665.77973903872
4,104,1,90,0.5,0.5,-0.5,2,2,0.6,1,785,0,0,NaN,0,0,0.8,NaN,1.89003556862366,NaN,750,0,1,congruent,0,2726.93546831248,4905.30555400805
4,104,1,91,0.5,-0.5,-0.5,3,3,0.4,3,635,1,1,635,1,0,0.6,NaN,0.679795739388315,0.679795739388315,750,1,0,congruent,1,3895.19089799146,3102.30091213876
4,104,1,92,0.5,0.5,0.5,2,4,0.4,3,615,0,1,NaN,0,0,1,NaN,0.518430428823602,NaN,750,0,1,incongruent,0,7700.7466023163,2092.52792365332
4,104,1,93,-0.5,0.5,-0.5,3,3,0.4,3,580,1,1,580,1,0,0.6,0.8,0.236041135335354,0.236041135335354,750,1,0,congruent,0.1,3882.5871505622,2538.15131539543
4,104,1,94,-0.5,0.5,0,4,NaN,0.4,4,467,1,1,467,1,0,0.8,0.8,-0.675672869355274,-0.675672869355274,750,0,0,neutral,0.1,15159.0194129126,5634.2388432384
4,104,1,95,0.5,-0.5,-0.5,3,3,0.6,3,517,1,1,517,1,0,0.8,NaN,-0.272259592943492,-0.272259592943492,750,1,0,congruent,1,3476.14809216628,1259.35684052685
4,104,1,96,-0.5,0.5,-0.5,2,2,0.6,1,457,0,1,NaN,0,0,1.2,0.8,-0.756355524637631,NaN,750,0,1,congruent,0,3388.58536841354,952.323731846843
4,104,1,97,-0.5,-0.5,0,4,NaN,0.4,4,496,1,1,496,0,0,0.8,0.8,-0.44169316903644,-0.44169316903644,750,0,0,neutral,0,1741.06900597485,1587.83852246313
4,104,1,98,0.5,0.5,0.5,2,4,0.4,3,716,0,1,NaN,0,0,0.8,NaN,1.3333252471754,NaN,750,0,1,incongruent,0,12328.6790244039,865.619243896062
4,104,1,99,0.5,0.5,0.5,3,2,0.4,2,944,0,0,NaN,0,0,0.6,NaN,3.17288978761313,NaN,750,1,0,incongruent,0,2248.51828659259,1343.57334202863
4,104,1,100,0.5,0.5,0.5,4,3,0.4,4,490,1,1,490,1,0,0.4,NaN,-0.490102762205854,-0.490102762205854,750,0,0,incongruent,1,4396.2376230957,7228.10467625294
4,104,1,101,-0.5,0.5,-0.5,2,2,0.4,1,706,0,1,NaN,0,0,0.4,0.6,1.25264259189305,NaN,750,0,1,congruent,0,10067.6994846743,624.175337192017
4,104,1,102,-0.5,0.5,0,3,NaN,0.2,3,622,1,1,622,1,0,0.4,0.6,0.574908287521252,0.574908287521252,750,0,0,neutral,0.1,2060.62137058511,1301.14090555056
4,104,1,103,0.5,-0.5,-0.5,1,1,0.4,1,678,1,1,678,0,0,0.6,NaN,1.02673115710245,1.02673115710245,750,1,0,congruent,0,13378.0606047274,4775.70055776579
4,104,1,106,0.5,0.5,-0.5,3,3,0.4,3,585,1,1,585,1,0,0.2,NaN,0.276382462976532,0.276382462976532,750,1,0,congruent,1,3615.65474629922,5733.83388655705
4,104,1,107,-0.5,-0.5,0.5,4,2,0.6,3,783,0,0,NaN,1,0,0.6,0.8,1.87389903756719,NaN,750,0,1,incongruent,0.1,4395.16323081312,6469.80497956529
4,104,1,108,-0.5,-0.5,0.5,2,1,0.6,2,547,1,1,547,1,0,0.6,0.8,-0.0302116270964222,-0.0302116270964222,750,0,0,incongruent,0.1,20462.5733281831,3354.32925640246
4,104,1,109,0.5,0.5,0.5,1,3,0.6,1,542,1,1,542,1,0,0.8,NaN,-0.0705529547376005,-0.0705529547376005,750,0,0,incongruent,1,3836.9650397086,1153.35382138493
4,104,1,110,-0.5,-0.5,-0.5,4,4,0.6,4,427,1,1,427,1,0,1.2,0.8,-0.9984034904847,-0.9984034904847,750,1,0,congruent,0.1,1000.18655294347,1080.93845293535
4,104,1,111,-0.5,0.5,0,1,NaN,0.6,2,622,0,1,NaN,0,0,1.4,0.4,0.574908287521252,NaN,750,0,1,neutral,0,10057.9708354856,3602.39074354694
4,104,1,112,0.5,0.5,0.5,2,3,0.6,2,723,1,1,723,1,0,1,NaN,1.38980310587305,1.38980310587305,750,0,0,incongruent,1,6472.2830917495,1305.37650034479
4,104,1,113,0.5,0.5,-0.5,1,1,0.6,1,535,1,1,535,1,0,1.2,NaN,-0.12703081343525,-0.12703081343525,750,1,0,congruent,1,2427.33020213973,3292.18903686756
4,104,1,114,-0.5,-0.5,0,3,NaN,0.8,4,496,0,1,NaN,0,0,1.4,0.8,-0.44169316903644,NaN,750,0,1,neutral,0,6302.07791514342,1074.26280785245
4,104,1,115,-0.5,-0.5,-0.5,1,1,0.8,1,727,1,1,727,0,0,1,0.6,1.42207616798599,1.42207616798599,750,1,0,congruent,0,2729.02342184049,7687.75769613403
4,104,1,116,-0.5,0.5,-0.5,2,2,0.8,2,503,1,1,503,1,0,0.8,0.2,-0.385215310338791,-0.385215310338791,750,1,0,congruent,0.1,2428.33359410885,401.763523357424
4,104,1,117,0.5,-0.5,0.5,4,1,0.8,3,577,0,1,NaN,0,0,1,NaN,0.211836338750647,NaN,750,0,1,incongruent,0,5994.89672744876,3004.32692853829
4,104,1,118,-0.5,-0.5,0.5,1,3,0.8,1,781,1,0,781,0,0,0.6,0.6,1.85776250651072,1.85776250651072,750,0,0,incongruent,0,3991.07045846892,3226.53759478497
4,104,1,119,-0.5,0.5,0,3,NaN,0.8,3,540,1,1,540,1,0,0.2,0.4,-0.0866894857940718,-0.0866894857940718,750,0,0,neutral,0.1,1474.29917810257,3632.1608958479
4,104,1,120,0.5,-0.5,0.5,1,2,0.8,1,655,1,1,655,0,0,0.4,NaN,0.841161049953028,0.841161049953028,750,0,0,incongruent,0,2170.03479918732,2876.14201779051
4,104,1,121,-0.5,-0.5,0.5,4,1,0.8,3,683,0,1,NaN,0,0,0.4,0.4,1.06707248474363,NaN,750,0,1,incongruent,0,6490.3488638734,3484.21199794541
4,104,1,122,0.5,-0.5,0,3,NaN,0.8,3,498,1,1,498,1,0,0.2,NaN,-0.425556637979969,-0.425556637979969,750,0,0,neutral,1,2899.26637899422,1224.50856872568
4,104,1,123,-0.5,0.5,-0.5,4,4,0.8,4,691,1,1,691,1,0,0.6,0.6,1.13161860896951,1.13161860896951,750,1,0,congruent,0.1,2292.21218213592,5935.33851225991
4,104,1,124,0.5,0.5,0.5,1,3,1,1,472,1,1,472,1,0,0.8,NaN,-0.635331541714096,-0.635331541714096,750,0,0,incongruent,1,2307.79143368007,1512.13614565937
4,104,1,125,-0.5,0.5,0.5,3,2,1,3,634,1,1,634,1,0,1,0.6,0.671727473860079,0.671727473860079,750,0,0,incongruent,0.1,944.888807560484,1294.56844417805
4,104,1,126,0.5,-0.5,-0.5,4,4,1,4,537,1,1,537,1,0,1.2,NaN,-0.110894282378779,-0.110894282378779,750,1,0,congruent,1,1959.32919736052,1004.82131476097
4,104,1,127,-0.5,0.5,-0.5,2,2,1,1,673,0,1,NaN,0,0,1.6,0.8,0.98638982946127,NaN,750,0,1,congruent,0,4380.63026784016,2105.30766828514
4,104,1,128,-0.5,0.5,0.5,1,4,0.8,1,570,1,1,570,1,0,1.2,0.8,0.155358480052998,0.155358480052998,750,0,0,incongruent,0.1,1114.94426990447,2584.27427401254
4,104,1,129,0.5,-0.5,0,4,NaN,0.8,4,419,1,1,419,1,0,1.2,NaN,-1.06294961471059,-1.06294961471059,750,0,0,neutral,1,11144.5375576097,5036.43620034279
4,104,1,130,0.5,-0.5,-0.5,3,3,0.8,3,440,1,1,440,1,0,1.2,NaN,-0.893516038617637,-0.893516038617637,750,1,0,congruent,1,3217.55179595917,1604.18495079461
4,104,1,131,-0.5,-0.5,0,4,NaN,0.8,4,448,1,1,448,1,0,1.4,0.2,-0.828969914391752,-0.828969914391752,750,0,0,neutral,0.1,1990.45347740068,1023.76212560709
4,104,1,132,-0.5,-0.5,0.5,1,3,0.8,1,706,1,1,706,1,0,1.2,0.2,1.25264259189305,1.25264259189305,750,0,0,incongruent,0.1,2162.23503704021,8641.97906377192
4,104,1,133,0.5,-0.5,0.5,2,4,0.8,2,317,1,1,317,1,0,1.4,NaN,-1.88591269859062,-1.88591269859062,750,0,0,incongruent,1,1083.87562801534,1322.57773341611
4,104,1,134,0.5,0.5,-0.5,3,3,0.8,3,555,1,1,555,1,0,1.6,NaN,0.034334497129463,0.034334497129463,750,1,0,congruent,1,5288.04850977405,793.928795964015
4,104,1,135,0.5,-0.5,-0.5,2,2,0.8,2,600,1,1,600,1,0,1.6,NaN,0.397406445900067,0.397406445900067,750,1,0,congruent,1,9053.24686873259,6391.1481342167
4,104,1,136,0.5,-0.5,0.5,1,3,0.8,1,559,1,1,559,0,0,1.6,NaN,0.0666075592424056,0.0666075592424056,750,0,0,incongruent,0,4537.2990586101,731.80819054835
4,104,1,137,0.5,-0.5,0.5,3,1,0.8,3,485,1,1,485,1,0,1.4,NaN,-0.530444089847033,-0.530444089847033,750,0,0,incongruent,1,3823.00716762304,1903.6566695178
4,104,1,138,-0.5,-0.5,0,2,NaN,0.8,4,497,0,1,NaN,1,0,1.6,0.4,-0.433624903508205,NaN,750,0,1,neutral,0.1,17264.2584538543,1966.66026140051
4,104,1,139,-0.5,-0.5,-0.5,4,4,0.8,4,381,1,1,381,1,0,1.4,0.6,-1.36954370478354,-1.36954370478354,750,1,0,congruent,0.1,7671.25283583182,2503.36285886996
4,104,1,140,0.5,0.5,0,2,NaN,0.8,1,493,0,1,NaN,0,0,1.2,NaN,-0.465897965621147,NaN,750,0,1,neutral,0,25513.5985707709,3011.58475384862
4,104,1,141,0.5,0.5,-0.5,1,1,0.6,1,521,1,1,521,1,0,0.8,NaN,-0.239986530830549,-0.239986530830549,750,1,0,congruent,1,3360.39689674253,4880.36128732305
4,104,1,142,-0.5,-0.5,0.5,3,4,0.6,3,851,1,0,851,1,0,1.2,0.8,2.42254109348722,2.42254109348722,750,0,0,incongruent,0.1,1154.31669404769,3030.34246780554
4,104,1,143,0.5,0.5,0,4,NaN,0.6,4,462,1,1,462,1,0,1,NaN,-0.716014196996453,-0.716014196996453,750,0,0,neutral,1,854.176913167345,3451.41695868444
4,104,1,144,-0.5,0.5,-0.5,3,3,0.8,3,685,1,1,685,1,0,1.2,0.8,1.0832090158001,1.0832090158001,750,1,0,congruent,0.1,2835.46056079036,2289.86457305934
4,104,1,145,0.5,0.5,-0.5,4,4,0.8,4,469,1,1,469,1,0,1.2,NaN,-0.659536338298803,-0.659536338298803,750,1,0,congruent,1,3066.85029020453,2880.83514184924
4,104,1,146,0.5,0.5,0,3,NaN,0.8,3,614,1,1,614,1,0,1.6,NaN,0.510362163295366,0.510362163295366,750,0,0,neutral,1,4542.51609507248,1156.37784429287
4,104,1,147,0.5,0.5,-0.5,2,2,1,2,557,1,1,557,1,0,1.6,NaN,0.0504710281859343,0.0504710281859343,750,1,0,congruent,1,4024.06059811148,2588.13025015463
4,104,1,148,-0.5,0.5,0.5,3,1,1,3,709,1,1,709,1,0,1.8,0.8,1.27684738847775,1.27684738847775,750,0,0,incongruent,0.1,4645.56898174726,4652.64334065957
4,104,1,149,-0.5,0.5,0.5,4,2,1,4,845,1,0,845,0,0,1.6,0.8,2.3741315003178,2.3741315003178,750,0,0,incongruent,0,2826.95897920132,3621.85652822543
4,104,1,150,0.5,0.5,0,1,NaN,0.8,1,555,1,1,555,1,0,1.4,NaN,0.034334497129463,0.034334497129463,750,0,0,neutral,1,7758.47010652251,2112.01685626582
4,104,2,151,-0.5,-0.5,-0.5,4,4,0.8,4,726,1,1,726,1,0,1.4,1,1.41400790245776,1.41400790245776,750,1,0,congruent,0.1,2765.14613768759,2110.59817333836
4,104,2,152,-0.5,0.5,0.5,3,1,0.8,3,584,1,1,584,1,0,1.2,0.6,0.268314197448297,0.268314197448297,750,0,0,incongruent,0.1,2356.39825286391,1048.63186648872
4,104,2,153,-0.5,0.5,-0.5,2,2,0.8,2,581,1,1,581,1,0,1,0.8,0.24410940086359,0.24410940086359,750,1,0,congruent,0.1,7519.28852912747,2129.23611267959
4,104,2,154,0.5,0.5,0,1,NaN,0.8,3,488,0,1,NaN,0,0,1,NaN,-0.506239293262326,NaN,750,0,1,neutral,0,4188.69310951606,2969.21882651347
4,104,2,155,-0.5,-0.5,-0.5,4,4,0.6,4,520,1,1,520,0,0,1,1,-0.248054796358785,-0.248054796358785,750,1,0,congruent,0,3880.6458995777,695.290744277739
4,104,2,156,-0.5,0.5,0,3,NaN,0.6,3,539,1,1,539,1,0,0.6,0.8,-0.0947577513223074,-0.0947577513223074,750,0,0,neutral,0.1,1532.25106347007,2245.60312571382
4,104,2,157,-0.5,-0.5,0.5,1,2,0.8,1,590,1,1,590,0,0,0.6,0.8,0.316723790617711,0.316723790617711,750,0,0,incongruent,0,8406.11380612946,3275.4890731227
4,104,2,158,-0.5,0.5,0.5,2,3,0.8,2,519,1,1,519,1,0,0.4,0.8,-0.25612306188702,-0.25612306188702,750,0,0,incongruent,0.1,2254.18176077476,1518.30221070934
4,104,2,159,-0.5,0.5,-0.5,4,4,0.8,3,593,0,1,NaN,0,0,0.4,0.8,0.340928587202418,NaN,750,0,1,congruent,0,4352.87595160127,2408.07752530015
4,104,2,160,0.5,-0.5,0,1,NaN,0.6,1,496,1,1,496,0,0,0.4,NaN,-0.44169316903644,-0.44169316903644,750,0,0,neutral,0,14048.0800218648,702.382579496893
4,104,2,161,0.5,0.5,-0.5,2,2,0.6,2,535,1,1,535,1,0,0.4,NaN,-0.12703081343525,-0.12703081343525,750,1,0,congruent,1,6862.88098672223,4474.0053682511
4,104,2,163,0.5,-0.5,0,1,NaN,0.6,1,566,1,1,566,1,0,0.6,NaN,0.123085417940055,0.123085417940055,750,0,0,neutral,1,14828.901308868,1716.34872440635
4,104,2,164,-0.5,-0.5,0.5,4,1,0.6,4,360,1,1,360,1,0,0.8,0.6,-1.53897728087649,-1.53897728087649,750,0,0,incongruent,0.1,1361.99758103405,1993.76798324901
4,104,2,165,-0.5,-0.5,-0.5,3,3,0.6,3,600,1,1,600,0,0,1,0.6,0.397406445900067,0.397406445900067,750,1,0,congruent,0,2164.1174110824,1299.14083334776
4,104,2,166,-0.5,0.5,-0.5,4,4,0.6,4,650,1,1,650,1,0,1,0.8,0.80081972231185,0.80081972231185,750,1,0,congruent,0.1,7312.62426538484,1248.69986017302
4,104,2,167,0.5,0.5,-0.5,3,3,0.6,1,536,0,1,NaN,0,0,0.8,NaN,-0.118962547907014,NaN,750,0,1,congruent,0,8328.46040258326,1872.28191639263
4,104,2,168,-0.5,-0.5,-0.5,4,4,0.4,4,520,1,1,520,0,0,0.8,0.4,-0.248054796358785,-0.248054796358785,750,1,0,congruent,0,3103.01462950189,2240.73197555887
4,104,2,170,-0.5,-0.5,0.5,3,4,0.4,3,897,1,0,897,1,0,0.4,0.4,2.79368130778606,2.79368130778606,750,0,0,incongruent,0.1,6166.69249186044,3321.84251259478
4,104,2,171,0.5,-0.5,0.5,1,3,0.4,2,560,0,1,NaN,1,0,0.6,NaN,0.0746758247706412,NaN,750,0,1,incongruent,1,4735.1433961398,1490.1139364284
4,104,2,172,-0.5,0.5,-0.5,4,4,0.4,4,857,1,0,857,0,0,0.8,0.8,2.47095068665663,2.47095068665663,750,1,0,congruent,0,5130.84132461254,5934.35434200317
4,104,2,173,-0.5,0.5,-0.5,3,3,0.4,3,561,1,1,561,1,0,0.8,0.6,0.0827440902988769,0.0827440902988769,750,1,0,congruent,0.1,3165.97336956288,1095.82021692643
4,104,2,174,0.5,-0.5,0,1,NaN,0.4,1,576,1,1,576,0,0,1,NaN,0.203768073222412,0.203768073222412,750,0,0,neutral,0,3332.13053042434,1559.52616415132
4,104,2,175,0.5,0.5,-0.5,2,2,0.4,2,505,1,1,505,1,0,0.8,NaN,-0.36907877928232,-0.36907877928232,750,1,0,congruent,1,7672.41850563689,1419.71529519558
4,104,2,176,0.5,-0.5,0.5,1,4,0.6,1,528,1,1,528,0,0,1,NaN,-0.1835086721329,-0.1835086721329,750,0,0,incongruent,0,2304.92618837155,1484.3214935406
4,104,2,177,0.5,0.5,-0.5,3,3,0.6,3,461,1,1,461,1,0,0.6,NaN,-0.724082462524688,-0.724082462524688,750,1,0,congruent,1,3051.19159013059,1956.09335730658
4,104,2,178,0.5,0.5,0,1,NaN,0.6,1,570,1,1,570,1,0,1,NaN,0.155358480052998,0.155358480052998,750,0,0,neutral,1,1697.64518815729,3831.67363278419
4,104,2,179,-0.5,0.5,-0.5,4,4,0.8,4,472,1,1,472,1,0,1.2,0.6,-0.635331541714096,-0.635331541714096,750,1,0,congruent,0.1,1328.47859375532,1201.96793448579
4,104,2,180,-0.5,-0.5,-0.5,3,3,1,3,592,1,1,592,1,0,1.4,0.6,0.332860321674182,0.332860321674182,750,1,0,congruent,0.1,927.331763352908,606.303205517672
4,104,2,181,-0.5,0.5,-0.5,1,1,1,1,605,1,1,605,1,0,1.2,0.6,0.437747773541245,0.437747773541245,750,1,0,congruent,0.1,2623.85259719113,3307.78405526031
4,104,2,182,0.5,0.5,-0.5,2,2,1,2,374,1,1,374,1,0,1.4,NaN,-1.42602156348119,-1.42602156348119,750,1,0,congruent,1,1413.41398849184,3749.99461061198
4,104,2,183,0.5,0.5,-0.5,4,4,1,4,583,1,1,583,1,0,1.4,NaN,0.260245931920061,0.260245931920061,750,1,0,congruent,1,2385.95992540289,3238.96524767353
4,104,2,184,0.5,-0.5,0,3,NaN,1,3,626,1,1,626,1,0,1.4,NaN,0.607181349634194,0.607181349634194,750,0,0,neutral,1,2992.49661476342,2783.65624567882
4,104,2,185,-0.5,-0.5,-0.5,1,1,1,1,509,1,1,509,1,0,1.6,0.6,-0.336805717169377,-0.336805717169377,750,1,0,congruent,0.1,2061.46156845634,2020.06295485299
4,104,2,186,-0.5,0.5,0.5,2,4,1,2,635,1,1,635,1,0,1.6,0.8,0.679795739388315,0.679795739388315,750,0,0,incongruent,0.1,4480.59073259389,1191.77715894761
4,104,2,187,0.5,0.5,-0.5,1,1,1,1,524,1,1,524,1,0,1.6,NaN,-0.215781734245842,-0.215781734245842,750,1,0,congruent,1,5007.12375365046,962.169460807499
4,104,2,188,0.5,0.5,0.5,2,3,1,2,406,1,1,406,1,0,1.6,NaN,-1.16783706657765,-1.16783706657765,750,0,0,incongruent,1,2212.34732495151,1961.372876719
4,104,2,189,0.5,-0.5,0.5,1,4,1,1,601,1,1,601,1,0,1.6,NaN,0.405474711428303,0.405474711428303,750,0,0,incongruent,1,1862.80904731973,3040.28354454236
4,104,2,190,0.5,0.5,0.5,2,3,1,2,485,1,1,485,1,0,1.6,NaN,-0.530444089847033,-0.530444089847033,750,0,0,incongruent,1,1055.69661441693,1528.04782028573
4,104,2,191,0.5,0.5,-0.5,4,4,1,3,438,0,1,NaN,0,0,1.8,NaN,-0.909652569674108,NaN,750,0,1,congruent,0,14368.4109476493,1565.99661989885
4,104,2,192,-0.5,-0.5,0.5,2,3,0.8,2,640,1,1,640,1,0,1.6,0.8,0.720137067029493,0.720137067029493,750,0,0,incongruent,0.1,2942.39817141737,1453.27881803132
4,104,2,193,-0.5,-0.5,-0.5,1,1,0.8,1,492,1,1,492,1,0,1.4,1,-0.473966231149383,-0.473966231149383,750,1,0,congruent,0.1,6293.03212150429,3053.27866697418
4,104,2,194,0.5,-0.5,-0.5,2,2,0.8,2,703,1,1,703,1,0,1.2,NaN,1.22843779530834,1.22843779530834,750,1,0,congruent,1,2678.91248250331,3753.8008470228
4,104,2,195,-0.5,0.5,0,1,NaN,0.8,1,487,1,1,487,1,0,1.2,0.8,-0.514307558790561,-0.514307558790561,750,0,0,neutral,0.1,2069.2201798355,1501.98437539588
4,104,2,197,-0.5,-0.5,-0.5,1,1,0.8,1,647,1,1,647,0,0,1.2,1,0.776614925727143,0.776614925727143,750,1,0,congruent,0,2981.48269621635,1636.66852028417
4,104,2,198,-0.5,-0.5,-0.5,2,2,0.8,2,681,1,1,681,1,0,1,0.8,1.05093595368715,1.05093595368715,750,1,0,congruent,0.1,6300.60732991411,2223.69128191676
4,104,2,199,-0.5,0.5,0,1,NaN,0.8,1,445,1,1,445,1,0,1,1,-0.853174710976458,-0.853174710976458,750,0,0,neutral,0.1,3365.07673957366,9833.94040353058
4,104,2,201,0.5,-0.5,-0.5,2,2,0.6,2,711,1,1,711,1,0,0.6,NaN,1.29298391953422,1.29298391953422,750,1,0,congruent,1,1356.17357404774,1908.5810123911
4,104,2,202,0.5,-0.5,0.5,3,4,0.6,3,581,1,1,581,1,0,0.8,NaN,0.24410940086359,0.24410940086359,750,0,0,incongruent,1,1969.31006282398,3437.03172425791
4,104,2,203,0.5,0.5,-0.5,1,1,0.6,1,466,1,1,466,1,0,1.2,NaN,-0.68374113488351,-0.68374113488351,750,1,0,congruent,1,6441.62789996838,2068.91138106273
4,104,2,204,-0.5,-0.5,-0.5,2,2,0.6,2,525,1,1,525,1,0,1.4,0.8,-0.207713468717607,-0.207713468717607,750,1,0,congruent,0.1,2395.61066814845,1442.6036471485
4,104,2,205,-0.5,-0.5,-0.5,3,3,0.6,3,560,1,1,560,1,0,1.4,0.8,0.0746758247706412,0.0746758247706412,750,1,0,congruent,0.1,3672.81938712509,658.48793516393
4,104,2,206,0.5,-0.5,0.5,1,4,0.6,1,594,1,1,594,1,0,1.6,NaN,0.348996852730653,0.348996852730653,750,0,0,incongruent,1,3697.58463355991,4536.54619861195
4,104,2,207,0.5,0.5,0,4,NaN,0.6,4,551,1,1,551,1,0,1.6,NaN,0.00206143501652037,0.00206143501652037,750,0,0,neutral,1,4252.7566892951,1596.51314584098
4,104,2,208,0.5,0.5,-0.5,1,1,0.8,1,611,1,1,611,1,0,1.6,NaN,0.486157366710659,0.486157366710659,750,1,0,congruent,1,1666.6183116186,2456.9002259964
4,104,2,209,-0.5,0.5,0.5,2,3,0.8,2,558,1,1,558,1,0,1.6,1,0.0585392937141699,0.0585392937141699,750,0,0,incongruent,0.1,564.338358214042,346.060306999439
4,104,2,210,-0.5,-0.5,0.5,3,4,0.8,3,689,1,1,689,1,0,1.6,0.8,1.11548207791304,1.11548207791304,750,0,0,incongruent,0.1,3354.5715154618,1207.08496972417
4,104,2,211,-0.5,-0.5,-0.5,1,1,0.8,1,507,1,1,507,1,0,1.6,0.8,-0.352942248225848,-0.352942248225848,750,1,0,congruent,0.1,4408.07458462435,2603.3958011598
4,104,2,212,-0.5,-0.5,0,4,NaN,0.8,4,510,1,1,510,1,0,1.4,1,-0.328737451641141,-0.328737451641141,750,0,0,neutral,0.1,2524.88339510043,2547.58483460556
4,104,2,213,0.5,0.5,-0.5,3,3,0.8,3,428,1,1,428,1,0,1.2,NaN,-0.990335224956465,-0.990335224956465,750,1,0,congruent,1,3029.1328263647,2488.70356832296
4,104,2,214,0.5,-0.5,0,4,NaN,1,4,514,1,1,514,1,0,1.2,NaN,-0.296464389528199,-0.296464389528199,750,0,0,neutral,1,1478.23263141195,1326.94301431064
4,104,2,215,-0.5,0.5,-0.5,1,1,1,1,681,1,1,681,1,0,1.4,1,1.05093595368715,1.05093595368715,750,1,0,congruent,0.1,11592.1406986059,1733.6640608863
4,104,2,216,-0.5,0.5,0,2,NaN,1,2,752,1,0,752,0,0,1.4,1,1.62378280619189,1.62378280619189,750,0,0,neutral,0,2080.48047870284,10408.5312252494
4,104,2,217,-0.5,0.5,-0.5,1,1,0.8,1,558,1,1,558,1,0,1.2,0.8,0.0585392937141699,0.0585392937141699,750,1,0,congruent,0.1,3738.54501741949,2808.10439670216
4,104,2,218,0.5,-0.5,0.5,2,4,0.8,3,681,0,1,NaN,0,0,1.2,NaN,1.05093595368715,NaN,750,0,1,incongruent,0,3261.57027374069,2784.37012507806
4,104,2,219,0.5,0.5,-0.5,1,1,0.8,1,439,1,1,439,1,0,0.8,NaN,-0.901584304145872,-0.901584304145872,750,1,0,congruent,1,2085.9792551538,1163.50840613341
4,104,2,220,-0.5,-0.5,0.5,4,3,0.8,4,947,1,0,947,0,0,0.8,1,3.19709458419784,3.19709458419784,750,0,0,incongruent,0,2817.98530465636,1773.11907415598
4,104,2,221,0.5,-0.5,-0.5,1,1,0.8,1,555,1,1,555,1,0,0.6,NaN,0.034334497129463,0.034334497129463,750,1,0,congruent,1,5991.52802273933,1415.01886706836
4,104,2,222,0.5,-0.5,0.5,4,3,0.8,3,669,0,1,NaN,1,0,1,NaN,0.954116767348327,NaN,750,1,0,incongruent,1,1014.7879757959,4722.00991052411
4,104,2,223,0.5,-0.5,0,1,NaN,0.8,1,610,1,1,610,1,0,1.2,NaN,0.478089101182424,0.478089101182424,750,0,0,neutral,1,11368.1640723908,8421.1115498417
4,104,2,224,-0.5,-0.5,-0.5,3,3,0.8,3,591,1,1,591,1,0,1.6,0.8,0.324792056145946,0.324792056145946,750,1,0,congruent,0.1,1133.88812177385,1721.05218674011
4,104,2,225,-0.5,0.5,0.5,4,2,0.8,4,857,1,0,857,0,0,1.4,0.8,2.47095068665663,2.47095068665663,750,0,0,incongruent,0,1735.11743692708,4856.30344870061
4,104,2,226,-0.5,0.5,0,2,NaN,0.6,1,878,0,0,NaN,0,0,1.4,0.6,2.64038426274958,NaN,750,0,1,neutral,0,2290.62886193715,2894.809844371
4,104,2,227,0.5,0.5,0.5,4,2,0.4,4,511,1,1,511,1,0,1,NaN,-0.320669186112906,-0.320669186112906,750,0,0,incongruent,1,1574.85103398269,1504.47300753226
4,104,2,228,0.5,0.5,-0.5,1,1,0.6,1,473,1,1,473,1,0,1,NaN,-0.62726327618586,-0.62726327618586,750,1,0,congruent,1,895.763669679685,2129.65356789107
4,104,2,229,-0.5,-0.5,-0.5,3,3,0.6,3,459,1,1,459,1,0,1,0.8,-0.740218993581159,-0.740218993581159,750,1,0,congruent,0.1,1420.44583520322,2471.28625428255
4,104,2,230,0.5,-0.5,0.5,1,4,0.6,1,701,1,1,701,1,0,1,NaN,1.21230126425187,1.21230126425187,750,0,0,incongruent,1,6345.50706151242,5031.20070885415
4,104,2,231,-0.5,0.5,0,2,NaN,0.6,2,577,1,1,577,1,0,1.4,0.4,0.211836338750647,0.211836338750647,750,0,0,neutral,0.1,4890.48831594794,1605.46339879657
4,104,2,232,0.5,-0.5,-0.5,3,3,0.6,3,472,1,1,472,0,0,1.6,NaN,-0.635331541714096,-0.635331541714096,750,1,0,congruent,0,1244.25217640438,1846.61824728898
4,104,2,233,-0.5,0.5,-0.5,2,2,0.6,2,671,1,1,671,1,0,1.2,0.4,0.970253298404798,0.970253298404798,750,1,0,congruent,0.1,4142.05857587824,3484.24212357945
4,104,2,234,0.5,0.5,0.5,4,1,0.8,4,779,1,0,779,0,0,1,NaN,1.84162597545425,1.84162597545425,750,0,0,incongruent,0,4813.42085858041,5700.19424691745
4,104,2,235,0.5,0.5,-0.5,2,2,0.8,2,374,1,1,374,1,0,0.8,NaN,-1.42602156348119,-1.42602156348119,750,1,0,congruent,1,3511.77454888998,1496.62670826824
4,104,2,236,-0.5,-0.5,-0.5,1,1,0.8,1,499,1,1,499,1,0,0.8,0.8,-0.417488372451733,-0.417488372451733,750,1,0,congruent,0.1,2165.08580820071,1383.16264451042
4,104,2,237,-0.5,0.5,0,2,NaN,0.8,2,393,1,1,393,1,0,0.8,0.6,-1.27272451844471,-1.27272451844471,750,0,0,neutral,0.1,2389.80919493208,2770.25790945217
4,104,2,238,-0.5,0.5,0.5,1,4,0.8,1,492,1,1,492,1,0,1,0.6,-0.473966231149383,-0.473966231149383,750,0,0,incongruent,0.1,2938.77499861606,1944.443112686
4,104,2,239,-0.5,-0.5,0.5,3,1,0.8,3,385,1,1,385,1,0,1,0.8,-1.3372706426706,-1.3372706426706,750,0,0,incongruent,0.1,376.208578889773,3988.6575815786
4,104,2,240,-0.5,0.5,0.5,1,2,0.8,1,483,1,1,483,1,0,1.2,0.8,-0.546580620903504,-0.546580620903504,750,0,0,incongruent,0.1,2108.3356715478,1348.8318810789
4,104,2,241,-0.5,-0.5,-0.5,4,4,0.8,4,614,1,1,614,1,0,1,0.8,0.510362163295366,0.510362163295366,750,1,0,congruent,0.1,7930.56954900664,1427.67413484317
4,104,2,242,-0.5,-0.5,0.5,2,1,0.8,1,569,0,1,NaN,1,0,1,1,0.147290214524762,NaN,750,1,0,incongruent,0.1,7870.74241313787,1539.30290738262
4,104,2,243,-0.5,0.5,0.5,1,3,0.8,1,592,1,1,592,1,0,1,1,0.332860321674182,0.332860321674182,750,0,0,incongruent,0.1,3759.17956367951,979.554675942318
4,104,2,244,-0.5,-0.5,-0.5,2,2,1,2,469,1,1,469,1,0,1,1,-0.659536338298803,-0.659536338298803,750,1,0,congruent,0.1,3066.9182219989,4777.291291453
4,104,2,245,-0.5,0.5,0.5,1,4,1,1,591,1,1,591,1,0,1,1,0.324792056145946,0.324792056145946,750,0,0,incongruent,0.1,2410.38050074029,2646.79842324256
4,104,2,246,-0.5,-0.5,-0.5,2,2,1,2,588,1,1,588,1,0,1,1,0.300587259561239,0.300587259561239,750,1,0,congruent,0.1,4461.7516782142,2105.11089728367
4,104,2,247,0.5,-0.5,-0.5,3,3,1,3,548,1,1,548,1,0,1,NaN,-0.0221433615681866,-0.0221433615681866,750,1,0,congruent,1,1704.36035743604,4717.54864488107
4,104,2,248,0.5,0.5,0,1,NaN,1,1,700,1,1,700,1,0,1.2,NaN,1.20423299872363,1.20423299872363,750,0,0,neutral,1,4037.2393538686,3887.56323693888
4,104,2,249,0.5,-0.5,-0.5,3,3,1,3,695,1,1,695,1,0,1.4,NaN,1.16389167108245,1.16389167108245,750,1,0,congruent,1,4168.07796709692,1946.6953778797
4,104,2,250,0.5,-0.5,0,4,NaN,1,4,498,1,1,498,1,0,1.6,NaN,-0.425556637979969,-0.425556637979969,750,0,0,neutral,1,2493.29561652829,1461.84985350613
4,104,2,251,0.5,0.5,0.5,2,1,1,2,524,1,1,524,1,0,1.8,NaN,-0.215781734245842,-0.215781734245842,750,0,0,incongruent,1,5132.72823576959,1107.30766817479
4,104,2,252,-0.5,-0.5,0.5,3,4,1,3,522,1,1,522,1,0,2,1,-0.231918265302313,-0.231918265302313,750,0,0,incongruent,0.1,5611.81329923857,3354.88605119967
4,104,2,253,0.5,0.5,-0.5,2,2,1,2,393,1,1,393,1,0,1.8,NaN,-1.27272451844471,-1.27272451844471,750,1,0,congruent,1,7441.05205650288,1618.56305437266
4,104,2,254,0.5,-0.5,-0.5,3,3,1,4,805,0,0,NaN,1,0,1.8,NaN,2.05140087918838,NaN,750,0,1,congruent,1,8524.33541084033,4065.28440869193
4,104,2,255,0.5,0.5,0.5,4,1,1,4,849,1,0,849,0,0,1.8,NaN,2.40640456243074,2.40640456243074,750,0,0,incongruent,0,2251.1237323138,2750.91479062228
4,104,2,256,0.5,-0.5,0,3,NaN,0.8,3,614,1,1,614,1,0,1.4,NaN,0.510362163295366,0.510362163295366,750,0,0,neutral,1,3013.85995123656,3414.35633353561
4,104,2,257,0.5,-0.5,-0.5,1,1,0.8,2,648,0,1,NaN,0,0,1.4,NaN,0.784683191255378,NaN,750,0,1,congruent,0,3107.72925845638,4336.72372538647
4,104,2,258,0.5,-0.5,0.5,2,4,0.8,2,693,1,1,693,1,0,1.2,NaN,1.14775514002598,1.14775514002598,750,0,0,incongruent,1,5182.57391367306,3269.14639207697
4,104,2,259,-0.5,-0.5,-0.5,1,1,0.8,1,548,1,1,548,0,0,1.2,1,-0.0221433615681866,-0.0221433615681866,750,1,0,congruent,0,2865.30667833587,7488.58625497044
4,104,2,260,-0.5,-0.5,0,3,NaN,0.8,3,518,1,1,518,0,0,0.8,0.8,-0.264191327415256,-0.264191327415256,750,0,0,neutral,0,1872.60717254647,2677.56792742978
4,104,2,261,-0.5,-0.5,-0.5,1,1,0.8,1,483,1,1,483,1,0,0.8,0.6,-0.546580620903504,-0.546580620903504,750,1,0,congruent,0.1,3299.53739988802,1772.36173593528
4,104,2,262,0.5,-0.5,0,3,NaN,0.8,3,494,1,1,494,1,0,0.6,NaN,-0.457829700092912,-0.457829700092912,750,0,0,neutral,1,1388.11022503511,2409.84049611412
4,104,2,263,-0.5,-0.5,-0.5,1,1,0.8,1,677,1,1,677,0,0,1,0.6,1.01866289157421,1.01866289157421,750,1,0,congruent,0,8449.07480321201,5582.90224626088
4,104,2,264,0.5,-0.5,0,4,NaN,0.8,3,525,0,1,NaN,1,0,0.6,NaN,-0.207713468717607,NaN,750,0,1,neutral,1,8085.71534693872,4304.74998769743
4,104,2,265,-0.5,-0.5,-0.5,1,1,0.8,1,387,1,1,387,1,0,1,0.4,-1.32113411161413,-1.32113411161413,750,1,0,congruent,0.1,1683.58133705841,1622.22482023501
4,104,2,266,-0.5,-0.5,0,4,NaN,0.8,4,485,1,1,485,0,0,1.2,0.4,-0.530444089847033,-0.530444089847033,750,0,0,neutral,0,3649.64175212581,1227.96787089711
4,104,2,267,-0.5,0.5,-0.5,1,1,0.8,1,587,1,1,587,1,0,1,1,0.292518994033004,0.292518994033004,750,1,0,congruent,0.1,5239.03077158235,2169.11780704285
4,104,2,268,-0.5,0.5,0.5,3,2,0.8,2,497,0,1,NaN,0,0,0.8,1,-0.433624903508205,NaN,750,1,0,incongruent,0,13516.9700773734,3593.91723631572
4,104,2,269,0.5,-0.5,0.5,2,4,0.6,2,643,1,1,643,1,0,0.8,NaN,0.7443418636142,0.7443418636142,750,0,0,incongruent,1,2965.19148058693,4044.4002302006
4,104,2,271,-0.5,0.5,0.5,3,2,0.6,2,584,0,1,NaN,0,0,0.8,0.8,0.268314197448297,NaN,750,1,0,incongruent,0,5849.46716551454,1573.50688611948
4,104,2,272,0.5,0.5,-0.5,1,1,0.4,1,482,1,1,482,1,0,0.8,NaN,-0.554648886431739,-0.554648886431739,750,1,0,congruent,1,2499.47052166807,1538.51824861135
4,104,2,273,-0.5,0.5,-0.5,4,4,0.4,4,626,1,1,626,1,0,1,0.6,0.607181349634194,0.607181349634194,750,1,0,congruent,0.1,5179.68716878742,1894.60445703326
4,104,2,274,-0.5,-0.5,0,1,NaN,0.6,2,763,0,0,NaN,0,0,1.2,0.6,1.71253372700248,NaN,750,0,1,neutral,0,3127.62036507974,2961.74015166808
4,104,2,275,-0.5,-0.5,-0.5,3,3,0.6,3,500,1,1,500,0,0,0.8,0.4,-0.409420106923498,-0.409420106923498,750,1,0,congruent,0,4234.52515605183,6357.16255279969
4,104,2,276,0.5,-0.5,-0.5,1,1,0.6,1,652,1,1,652,0,0,0.6,NaN,0.816956253368321,0.816956253368321,750,1,0,congruent,0,9819.94329537554,3924.73170238039
4,104,2,277,-0.5,0.5,0,3,NaN,0.6,3,527,1,1,527,1,0,0.6,0.6,-0.191576937661135,-0.191576937661135,750,0,0,neutral,0.1,3017.67983129051,3359.60685043579
4,104,2,278,-0.5,0.5,-0.5,1,1,0.6,1,706,1,1,706,1,0,0.4,0.6,1.25264259189305,1.25264259189305,750,1,0,congruent,0.1,5268.85811952661,1486.98176974304
4,104,2,279,-0.5,-0.5,0.5,3,2,0.8,2,593,0,1,NaN,1,0,0.4,0.4,0.340928587202418,NaN,750,1,0,incongruent,0.1,2654.53822740549,1268.2307076424
4,104,2,280,0.5,0.5,0,1,NaN,0.8,1,472,1,1,472,1,0,0.6,NaN,-0.635331541714096,-0.635331541714096,750,0,0,neutral,1,2656.45255477429,1752.02814723143
4,104,2,281,0.5,0.5,-0.5,3,3,1,3,525,1,1,525,1,0,1,NaN,-0.207713468717607,-0.207713468717607,750,1,0,congruent,1,5109.43999360261,2968.1862657765
4,104,2,282,0.5,0.5,0,1,NaN,1,1,552,1,1,552,1,0,1.4,NaN,0.010129700544756,0.010129700544756,750,0,0,neutral,1,5951.7168215339,3474.10347794755
4,104,2,283,-0.5,0.5,-0.5,3,3,1,3,557,1,1,557,1,0,1.6,0.6,0.0504710281859343,0.0504710281859343,750,1,0,congruent,0.1,5812.52367135599,5541.13601500514
4,104,2,284,0.5,0.5,0.5,2,1,1,1,669,0,1,NaN,0,0,1.6,NaN,0.954116767348327,NaN,750,1,0,incongruent,0,19496.7460339895,6494.4496206155
4,104,2,285,-0.5,0.5,0,3,NaN,0.8,3,656,1,1,656,1,0,1.4,0.8,0.849229315481264,0.849229315481264,750,0,0,neutral,0.1,6327.57214222404,4415.90333931963
4,104,2,286,0.5,0.5,-0.5,1,1,0.8,1,533,1,1,533,1,0,1.2,NaN,-0.143167344491721,-0.143167344491721,750,1,0,congruent,1,9398.71764279198,1620.62500942744
4,104,2,287,0.5,0.5,0,2,NaN,0.8,2,509,1,1,509,1,0,1.2,NaN,-0.336805717169377,-0.336805717169377,750,0,0,neutral,1,2646.36861670186,1248.50786913051
4,104,2,288,-0.5,0.5,-0.5,1,1,0.8,1,492,1,1,492,1,0,1.2,1,-0.473966231149383,-0.473966231149383,750,1,0,congruent,0.1,9525.72138518475,1105.85648322595
4,104,2,289,-0.5,0.5,0.5,3,2,0.8,3,770,1,0,770,0,0,1.2,1,1.76901158570013,1.76901158570013,750,0,0,incongruent,0,6605.61029931328,5683.52339520622
4,104,2,290,0.5,0.5,0,2,NaN,0.8,2,545,1,1,545,1,0,1.2,NaN,-0.0463481581528935,-0.0463481581528935,750,0,0,neutral,1,4187.0251561679,6291.50645540922
4,104,2,291,0.5,0.5,-0.5,4,4,0.8,4,357,1,1,357,1,0,1.4,NaN,-1.5631820774612,-1.5631820774612,750,1,0,congruent,1,2474.58004581252,2829.07928314876
4,104,2,292,0.5,-0.5,0.5,1,2,0.8,1,706,1,1,706,1,0,1.4,NaN,1.25264259189305,1.25264259189305,750,0,0,incongruent,1,2073.66214496363,5511.53431420347
4,104,2,293,0.5,-0.5,0,4,NaN,0.8,4,499,1,1,499,1,0,1.4,NaN,-0.417488372451733,-0.417488372451733,750,0,0,neutral,1,2615.4706464586,3469.55358656054
4,104,2,294,-0.5,0.5,-0.5,3,3,0.8,3,619,1,1,619,1,0,1.6,0.8,0.550703490936545,0.550703490936545,750,1,0,congruent,0.1,4995.85857015885,869.981660857769
4,104,2,295,0.5,0.5,0,4,NaN,0.8,4,623,1,1,623,1,0,1.8,NaN,0.582976553049487,0.582976553049487,750,0,0,neutral,1,4990.5989501688,2511.23335758477
4,104,2,296,-0.5,0.5,0.5,2,3,0.8,3,535,0,1,NaN,0,0,1.8,0.8,-0.12703081343525,NaN,750,1,0,incongruent,0,4263.90115574552,2567.00795126648
4,104,2,297,0.5,0.5,-0.5,4,4,0.8,4,452,1,1,452,1,0,1.4,NaN,-0.796696852278809,-0.796696852278809,750,1,0,congruent,1,1900.66281234324,2803.01525100933
4,104,2,298,0.5,0.5,0,1,NaN,0.8,1,464,1,1,464,1,0,1.4,NaN,-0.699877665939981,-0.699877665939981,750,0,0,neutral,1,2087.62192369964,1241.69183951025
4,104,2,299,-0.5,0.5,-0.5,2,2,0.8,2,507,1,1,507,1,0,1.4,0.6,-0.352942248225848,-0.352942248225848,750,1,0,congruent,0.1,6644.84142863999,1735.52552758317
4,104,2,300,-0.5,-0.5,0,4,NaN,0.8,4,469,1,1,469,1,0,1.4,0.4,-0.659536338298803,-0.659536338298803,750,0,0,neutral,0.1,2880.72091683023,1585.53589204847
4,104,3,301,-0.5,0.5,-0.5,2,2,0.8,2,573,1,1,573,1,0,1.2,0.6,0.179563276637705,0.179563276637705,750,1,0,congruent,0.1,646.112597731734,5148.39485013374
4,104,3,302,-0.5,0.5,0,1,NaN,0.8,1,480,1,1,480,1,0,1.4,0.6,-0.570785417488211,-0.570785417488211,750,0,0,neutral,0.1,5901.02712665368,999.554959503237
4,104,3,303,0.5,-0.5,-0.5,3,3,1,4,523,0,1,NaN,1,0,1.2,NaN,-0.223849999774078,NaN,750,0,1,congruent,1,2081.07937666744,692.853096291576
4,104,3,304,0.5,-0.5,0.5,2,4,1,2,536,1,1,536,1,0,1.2,NaN,-0.118962547907014,-0.118962547907014,750,0,0,incongruent,1,2564.94847823069,2566.98078573484
4,104,3,305,-0.5,0.5,-0.5,3,3,1,3,618,1,1,618,1,0,1.4,0.8,0.542635225408309,0.542635225408309,750,1,0,congruent,0.1,1909.59443743209,3220.63059225558
4,104,3,306,0.5,0.5,-0.5,4,4,1,4,439,1,1,439,1,0,1.4,NaN,-0.901584304145872,-0.901584304145872,750,1,0,congruent,1,2576.97743773133,6382.47854417467
4,104,3,307,0.5,-0.5,-0.5,2,2,1,2,508,1,1,508,1,0,1.6,NaN,-0.344873982697613,-0.344873982697613,750,1,0,congruent,1,1076.79318863876,1081.44203257645
4,104,3,308,0.5,0.5,-0.5,3,3,1,3,537,1,1,537,1,0,1.8,NaN,-0.110894282378779,-0.110894282378779,750,1,0,congruent,1,6441.40296371944,8848.92154634393
4,104,3,309,0.5,0.5,0,1,NaN,1,1,487,1,1,487,1,0,1.8,NaN,-0.514307558790561,-0.514307558790561,750,0,0,neutral,1,3121.3965415732,2314.65080800698
4,104,3,310,0.5,-0.5,-0.5,4,4,1,4,522,1,1,522,1,0,1.8,NaN,-0.231918265302313,-0.231918265302313,750,1,0,congruent,1,1543.53406767904,5770.53913148127
4,104,3,311,0.5,-0.5,0,2,NaN,1,1,473,0,1,NaN,1,0,2,NaN,-0.62726327618586,NaN,750,0,1,neutral,1,16874.3686381536,1646.15792807334
4,104,3,312,-0.5,-0.5,0.5,1,3,1,1,706,1,1,706,1,0,2,0.6,1.25264259189305,1.25264259189305,750,0,0,incongruent,0.1,4932.13208045653,664.173000846782
4,104,3,313,0.5,0.5,-0.5,2,2,1,2,411,1,1,411,1,0,1.8,NaN,-1.12749573893647,-1.12749573893647,750,1,0,congruent,1,2021.46602332828,2241.51835806201
4,104,3,314,-0.5,0.5,0,3,NaN,1,3,550,1,1,550,1,0,1.8,0.8,-0.00600683051171528,-0.00600683051171528,750,0,0,neutral,0.1,3245.69596376177,2824.25795611863
4,104,3,315,0.5,-0.5,0.5,1,3,1,1,670,1,1,670,1,0,1.6,NaN,0.962185032876563,0.962185032876563,750,0,0,incongruent,1,3131.26611979581,2940.86169669736
4,104,3,316,0.5,-0.5,0.5,2,1,1,2,558,1,1,558,1,0,1.6,NaN,0.0585392937141699,0.0585392937141699,750,0,0,incongruent,1,1923.20689703528,3606.43617812839
4,104,3,317,-0.5,0.5,0.5,3,2,1,3,385,1,1,385,1,0,1.6,1,-1.3372706426706,-1.3372706426706,750,0,0,incongruent,0.1,2454.01295734924,1769.63754040993
4,104,3,318,-0.5,0.5,0.5,4,3,1,4,745,1,1,745,1,0,1.6,1,1.56730494749424,1.56730494749424,750,0,0,incongruent,0.1,9142.11513569607,3735.35563071606
4,104,3,319,-0.5,-0.5,0.5,3,2,1,3,523,1,1,523,1,0,1.4,0.6,-0.223849999774078,-0.223849999774078,750,0,0,incongruent,0.1,2184.53777647514,3234.33063041935
4,104,3,320,0.5,0.5,-0.5,4,4,1,4,475,1,1,475,1,0,1.4,NaN,-0.611126745129389,-0.611126745129389,750,1,0,congruent,1,1648.50601975724,612.94324747027
4,104,3,321,-0.5,-0.5,0,3,NaN,1,3,595,1,1,595,1,0,1.4,0.8,0.357065118258889,0.357065118258889,750,0,0,neutral,0.1,1670.13953667185,4284.79639268517
4,104,3,322,0.5,0.5,0.5,1,2,1,2,546,0,1,NaN,0,0,1.2,NaN,-0.0382798926246579,NaN,750,1,0,incongruent,0,8182.95408406984,926.43435514708
4,104,3,323,-0.5,0.5,0.5,2,4,0.8,3,683,0,1,NaN,0,0,1,1,1.06707248474363,NaN,750,0,1,incongruent,0,2878.46702603,7947.00042067482
4,104,3,324,0.5,0.5,-0.5,3,3,0.6,2,433,0,1,NaN,0,0,0.8,NaN,-0.949993897315286,NaN,750,0,1,congruent,0,2988.56098710559,2720.72885603144
4,104,3,325,0.5,0.5,0,4,NaN,0.4,4,409,1,1,409,1,0,0.6,NaN,-1.14363226999294,-1.14363226999294,750,0,0,neutral,1,2720.12682000748,1183.9199025047
4,104,3,326,-0.5,0.5,-0.5,1,1,0.4,1,510,1,1,510,1,0,0.6,0.8,-0.328737451641141,-0.328737451641141,750,1,0,congruent,0.1,7158.01606626867,2970.62393992839
4,104,3,327,-0.5,0.5,0.5,3,2,0.4,3,587,1,1,587,1,0,0.6,0.8,0.292518994033004,0.292518994033004,750,0,0,incongruent,0.1,8470.09840732653,3889.53725936536
4,104,3,328,0.5,-0.5,0,1,NaN,0.6,2,640,0,1,NaN,1,0,0.8,NaN,0.720137067029493,NaN,750,0,1,neutral,1,3422.6429011866,3677.87183692767
4,104,3,329,-0.5,0.5,-0.5,4,4,0.6,4,538,1,1,538,1,0,1.2,0.8,-0.102826016850543,-0.102826016850543,750,1,0,congruent,0.1,1917.19091178575,1444.43954174965
4,104,3,330,-0.5,0.5,-0.5,1,1,0.8,1,546,1,1,546,1,0,1.4,0.8,-0.0382798926246579,-0.0382798926246579,750,1,0,congruent,0.1,4790.568750595,4388.75106403424
4,104,3,331,0.5,0.5,0,4,NaN,1,4,408,1,1,408,1,0,1.2,NaN,-1.15170053552118,-1.15170053552118,750,0,0,neutral,1,5141.3822824737,1105.72995324013
4,104,3,332,0.5,-0.5,-0.5,2,2,1,3,488,0,1,NaN,1,0,1.4,NaN,-0.506239293262326,NaN,750,0,1,congruent,1,3109.40664176827,1565.01120838636
4,104,3,333,0.5,0.5,0,3,NaN,1,3,555,1,1,555,1,0,1.6,NaN,0.034334497129463,0.034334497129463,750,0,0,neutral,1,6887.72516464158,2632.57267004598
4,104,3,334,-0.5,0.5,-0.5,1,1,1,1,622,1,1,622,1,0,1.6,0.8,0.574908287521252,0.574908287521252,750,1,0,congruent,0.1,2553.77084544931,7029.20869280662
4,104,3,335,-0.5,0.5,0,2,NaN,1,4,451,0,1,NaN,0,0,1.6,1,-0.804765117807045,NaN,750,0,1,neutral,0,19289.7780527553,1882.68591332498
4,104,3,336,-0.5,0.5,-0.5,4,4,0.8,4,429,1,1,429,1,0,1.4,0.8,-0.982266959428229,-0.982266959428229,750,1,0,congruent,0.1,3266.30860145373,707.193646322777
4,104,3,337,-0.5,-0.5,-0.5,1,1,0.8,3,465,0,1,NaN,1,0,1.2,1,-0.691809400411746,NaN,750,0,1,congruent,0.1,6866.4399682272,2852.98374456078
4,104,3,338,0.5,0.5,0.5,3,4,0.8,3,595,1,1,595,1,0,1,NaN,0.357065118258889,0.357065118258889,750,0,0,incongruent,1,13184.9281526527,6262.84981710129
4,104,3,339,0.5,0.5,0.5,4,1,0.8,4,641,1,1,641,1,0,1,NaN,0.728205332557729,0.728205332557729,750,0,0,incongruent,1,4243.87760407269,2703.08968402384
4,104,3,340,0.5,0.5,0.5,2,3,0.8,2,473,1,1,473,1,0,1.2,NaN,-0.62726327618586,-0.62726327618586,750,0,0,incongruent,1,4316.43588061026,680.946661722814
4,104,3,341,-0.5,0.5,0.5,3,2,0.8,2,518,0,1,NaN,0,0,1.6,0.8,-0.264191327415256,NaN,750,1,0,incongruent,0,22429.9210178693,3835.49686936376
4,104,3,342,0.5,0.5,-0.5,4,4,0.8,4,594,1,1,594,1,0,1.4,NaN,0.348996852730653,0.348996852730653,750,1,0,congruent,1,2707.81786997319,3853.9858681092
4,104,3,343,-0.5,0.5,-0.5,2,2,0.8,1,591,0,1,NaN,0,0,1.6,0.6,0.324792056145946,NaN,750,0,1,congruent,0,22591.9956646054,1759.48713057309
4,104,3,344,-0.5,-0.5,0,4,NaN,0.6,4,620,1,1,620,1,0,1.2,1,0.55877175646478,0.55877175646478,750,0,0,neutral,0.1,5824.08183786372,4014.0010610529
4,104,3,345,-0.5,-0.5,-0.5,3,3,0.6,3,335,1,1,335,0,0,1,1,-1.74068391908238,-1.74068391908238,750,1,0,congruent,0,1885.15545431566,1864.45723482593
4,104,3,346,-0.5,-0.5,-0.5,1,1,0.6,2,429,0,1,NaN,1,0,0.6,0.8,-0.982266959428229,NaN,750,0,1,congruent,0.1,3185.52070279237,1756.08477051739
4,104,3,347,0.5,0.5,0.5,3,4,0.6,3,518,1,1,518,1,0,0.8,NaN,-0.264191327415256,-0.264191327415256,750,0,0,incongruent,1,814.935670024979,7994.16217687364
4,104,3,348,-0.5,-0.5,-0.5,2,2,0.6,2,707,1,1,707,0,0,0.8,0.8,1.26071085742128,1.26071085742128,750,1,0,congruent,0,3307.93175127996,1553.36154378038
4,104,3,349,0.5,0.5,-0.5,1,1,0.6,1,476,1,1,476,1,0,0.8,NaN,-0.603058479601153,-0.603058479601153,750,1,0,congruent,1,4488.9940112206,2994.42323609075
4,104,3,350,0.5,-0.5,0,2,NaN,0.6,1,332,0,1,NaN,0,0,1,NaN,-1.76488871566709,NaN,750,0,1,neutral,0,1289.25982946773,1399.10625747396
4,104,3,351,-0.5,0.5,0.5,4,2,0.6,3,829,0,0,NaN,0,0,1,0.4,2.24503925186603,NaN,750,0,1,incongruent,0,6498.22873171447,1736.03342692339
4,104,3,352,-0.5,0.5,-0.5,3,3,0.6,2,588,0,1,NaN,0,0,0.8,0.2,0.300587259561239,NaN,750,0,1,congruent,0,4126.89144292106,1554.31698711575
4,104,3,353,0.5,-0.5,0.5,4,2,0.4,3,622,0,1,NaN,0,0,0.4,NaN,0.574908287521252,NaN,750,0,1,incongruent,0,9633.16623172176,2446.42609110003
4,104,3,354,-0.5,-0.5,-0.5,3,3,0.4,3,492,1,1,492,0,0,0.4,0.6,-0.473966231149383,-0.473966231149383,750,1,0,congruent,0,8423.85731305349,668.821746124085
4,104,3,355,0.5,0.5,-0.5,4,4,0.4,4,422,1,1,422,1,0,0,NaN,-1.03874481812588,-1.03874481812588,750,1,0,congruent,1,1579.57897552591,1438.35315381317
4,104,3,356,0.5,-0.5,0,3,NaN,0.6,3,492,1,1,492,0,0,0.4,NaN,-0.473966231149383,-0.473966231149383,750,0,0,neutral,0,2194.77079247765,920.152805148333
4,104,3,357,-0.5,-0.5,-0.5,4,4,0.6,4,598,1,1,598,1,0,0.4,0.4,0.381269914843596,0.381269914843596,750,1,0,congruent,0.1,3126.1341290247,4129.21532019968
4,104,3,358,-0.5,0.5,0,3,NaN,0.6,3,534,1,1,534,1,0,0.6,0.2,-0.135099078963486,-0.135099078963486,750,0,0,neutral,0.1,2481.48376684632,1121.48069982702
4,104,3,359,-0.5,0.5,-0.5,2,2,0.6,2,423,1,1,423,1,0,0.8,0.2,-1.03067655259764,-1.03067655259764,750,1,0,congruent,0.1,1531.74560326529,2130.47249270632
4,104,3,360,0.5,-0.5,-0.5,3,3,0.6,3,474,1,1,474,1,0,1,NaN,-0.619195010657625,-0.619195010657625,750,1,0,congruent,1,2942.19118351115,395.955866706552
4,104,3,361,-0.5,0.5,0.5,2,1,0.6,2,614,1,1,614,1,0,1,0.4,0.510362163295366,0.510362163295366,750,0,0,incongruent,0.1,5468.18693273664,2464.10311791618
4,104,3,362,0.5,0.5,-0.5,4,4,0.8,4,481,1,1,481,1,0,1.2,NaN,-0.562717151959975,-0.562717151959975,750,1,0,congruent,1,2154.51667249675,3292.23064496848
4,104,3,363,-0.5,0.5,0,2,NaN,1,3,476,0,1,NaN,0,0,1.4,0.6,-0.603058479601153,NaN,750,0,1,neutral,0,14897.9625085521,1202.48301560918
4,104,3,364,-0.5,0.5,-0.5,4,4,0.8,4,529,1,1,529,1,0,1.2,0.6,-0.175440406604664,-0.175440406604664,750,1,0,congruent,0.1,3476.51439581162,2742.37524173276
4,104,3,365,0.5,-0.5,0.5,1,2,0.8,1,781,1,0,781,0,0,1.2,NaN,1.85776250651072,1.85776250651072,750,0,0,incongruent,0,2219.40094733824,5436.04546054377
4,104,3,366,0.5,0.5,0.5,3,4,0.8,3,606,1,1,606,1,0,0.8,NaN,0.445816039069481,0.445816039069481,750,0,0,incongruent,1,3138.09046817434,2140.50998105724
4,104,3,367,0.5,-0.5,0.5,2,1,0.8,2,618,1,1,618,1,0,1,NaN,0.542635225408309,0.542635225408309,750,0,0,incongruent,1,9295.35140862058,4877.0893840143
4,104,3,368,-0.5,0.5,0.5,1,3,0.8,1,599,1,1,599,1,0,1,0.8,0.389338180371832,0.389338180371832,750,0,0,incongruent,0.1,3449.66845858216,1074.27579919158
4,104,3,369,0.5,-0.5,-0.5,4,4,0.8,4,547,1,1,547,1,0,1.2,NaN,-0.0302116270964222,-0.0302116270964222,750,1,0,congruent,1,2918.28152385817,2183.87055981596
4,104,3,370,-0.5,-0.5,0.5,2,3,0.8,2,662,1,1,662,0,0,1.4,0.4,0.897638908650678,0.897638908650678,750,0,0,incongruent,0,2240.76936263764,1405.75474275183
4,104,3,371,0.5,0.5,0.5,3,4,0.8,3,469,1,1,469,1,0,1.4,NaN,-0.659536338298803,-0.659536338298803,750,0,0,incongruent,1,4574.77219168448,3470.99392445723
4,104,3,372,0.5,-0.5,0,4,NaN,0.8,4,367,1,1,367,1,0,1.4,NaN,-1.48249942217884,-1.48249942217884,750,0,0,neutral,1,2245.34156410686,2484.41811057206
4,104,3,373,-0.5,0.5,-0.5,1,1,0.8,1,639,1,1,639,1,0,1.4,0.8,0.712068801501258,0.712068801501258,750,1,0,congruent,0.1,3133.53434076476,1035.73085793811
4,104,3,374,0.5,-0.5,0.5,4,3,1,4,944,1,0,944,1,0,1.4,NaN,3.17288978761313,3.17288978761313,750,0,0,incongruent,1,3161.26743164564,3104.89171711179
4,104,3,375,-0.5,-0.5,0,2,NaN,1,1,585,0,1,NaN,1,0,1.4,0.4,0.276382462976532,NaN,750,0,1,neutral,0.1,5372.28000580098,3378.91248246801
4,104,3,376,-0.5,0.5,0.5,3,1,1,3,565,1,1,565,1,0,1.6,0.8,0.115017152411819,0.115017152411819,750,0,0,incongruent,0.1,6737.75880189265,3252.49377116153
4,104,3,377,0.5,0.5,-0.5,4,4,1,4,323,1,1,323,1,0,1.4,NaN,-1.83750310542121,-1.83750310542121,750,1,0,congruent,1,1865.86413699908,892.544029683213
4,104,3,378,-0.5,-0.5,-0.5,1,1,1,2,635,0,1,NaN,1,0,1.4,0.4,0.679795739388315,NaN,750,0,1,congruent,0.1,5781.73670667006,1177.37958205777
4,104,3,379,0.5,-0.5,0,3,NaN,1,2,509,0,1,NaN,1,0,1.4,NaN,-0.336805717169377,NaN,750,0,1,neutral,1,1727.67265445301,644.534809371127
4,104,3,380,-0.5,0.5,-0.5,1,1,1,1,598,1,1,598,1,0,1.4,0.8,0.381269914843596,0.381269914843596,750,1,0,congruent,0.1,8832.78273612247,867.89137775753
4,104,3,381,-0.5,-0.5,0.5,4,2,1,3,378,0,1,NaN,1,0,1.4,0.6,-1.39374850136825,NaN,750,0,1,incongruent,0.1,1086.87405710527,2132.37346893293
4,104,3,382,0.5,-0.5,0.5,1,3,1,3,392,0,1,NaN,1,0,1.4,NaN,-1.28079278397295,NaN,750,1,0,incongruent,1,4458.4341295984,7272.9899785698
4,104,3,383,-0.5,-0.5,0.5,3,1,1,4,473,0,1,NaN,1,0,1.4,0.8,-0.62726327618586,NaN,750,0,1,incongruent,0.1,4926.6871567056,728.88202134816
4,104,3,384,0.5,-0.5,-0.5,4,4,1,2,307,0,1,NaN,1,0,1.4,NaN,-1.96659535387298,NaN,750,0,1,congruent,1,4093.47968740755,2462.45611942528
4,104,3,385,0.5,-0.5,0.5,1,2,1,2,809,0,0,NaN,1,0,1.4,NaN,2.08367394130132,NaN,750,1,0,incongruent,1,2751.79618472799,3825.74905811363
4,104,3,386,0.5,0.5,0,3,NaN,1,4,510,0,1,NaN,0,0,1.6,NaN,-0.328737451641141,NaN,750,0,1,neutral,0,2823.71869124094,1362.29752868418
4,104,3,387,-0.5,-0.5,-0.5,4,4,0.8,3,604,0,1,NaN,1,0,1.4,0.8,0.42967950801301,NaN,750,0,1,congruent,0.1,1702.58867987519,1182.55676472024
4,104,3,388,0.5,-0.5,-0.5,2,2,0.8,2,584,1,1,584,1,0,1.2,NaN,0.268314197448297,0.268314197448297,750,1,0,congruent,1,7470.35333638743,4403.82891653702
4,104,3,389,-0.5,-0.5,0.5,1,3,0.8,1,579,1,1,579,1,0,1.4,1,0.227972869807119,0.227972869807119,750,0,0,incongruent,0.1,6264.51330232017,5918.26911954097
4,104,3,390,0.5,0.5,0,2,NaN,0.8,2,496,1,1,496,1,0,1.2,NaN,-0.44169316903644,-0.44169316903644,750,0,0,neutral,1,917.082953657858,837.863542396019
4,104,3,391,-0.5,0.5,-0.5,1,1,0.8,1,505,1,1,505,1,0,1.2,1,-0.36907877928232,-0.36907877928232,750,1,0,congruent,0.1,7969.52156500383,3444.4004686546
4,104,3,392,0.5,0.5,0.5,4,2,0.8,4,484,1,1,484,1,0,1.4,NaN,-0.538512355375268,-0.538512355375268,750,0,0,incongruent,1,7859.04188569954,384.570151213835
4,104,3,393,-0.5,-0.5,0.5,3,4,0.8,3,624,1,1,624,1,0,1.6,1,0.591044818577723,0.591044818577723,750,0,0,incongruent,0.1,1898.27103727144,1528.89286934758
4,104,3,394,-0.5,-0.5,-0.5,1,1,0.8,1,461,1,1,461,1,0,1.4,1,-0.724082462524688,-0.724082462524688,750,1,0,congruent,0.1,955.398335354742,500.212909606331
4,104,3,395,-0.5,0.5,0.5,4,3,0.8,4,487,1,1,487,1,0,1.4,1,-0.514307558790561,-0.514307558790561,750,0,0,incongruent,0.1,3949.52421349514,6768.29098666018
4,104,3,396,-0.5,0.5,0.5,2,1,0.8,1,518,0,1,NaN,0,0,1.2,1,-0.264191327415256,NaN,750,1,0,incongruent,0,4592.51420044149,4363.87740270894
4,104,3,397,0.5,0.5,0,3,NaN,0.8,4,457,0,1,NaN,0,0,1,NaN,-0.756355524637631,NaN,750,0,1,neutral,0,6549.69158083147,1869.51341398272
4,104,3,398,-0.5,-0.5,-0.5,1,1,0.6,1,606,1,1,606,1,0,0.6,1,0.445816039069481,0.445816039069481,750,1,0,congruent,0.1,5396.50055277456,2157.69444695119
4,104,3,399,-0.5,-0.5,0,4,NaN,0.6,4,858,1,0,858,0,0,0.6,1,2.47901895218487,2.47901895218487,750,0,0,neutral,0,6377.67225294305,2096.20305274335
4,104,3,400,0.5,0.5,-0.5,1,1,0.6,1,651,1,1,651,1,0,0.4,NaN,0.808887987840085,0.808887987840085,750,1,0,congruent,1,2744.91320804061,1481.27795360177
4,104,3,401,0.5,0.5,0.5,4,3,0.6,4,423,1,1,423,1,0,0.6,NaN,-1.03067655259764,-1.03067655259764,750,0,0,incongruent,1,3236.55362997503,1548.59910894046
4,104,3,402,-0.5,-0.5,0.5,1,4,0.6,2,409,0,1,NaN,1,0,1,0.8,-1.14363226999294,NaN,750,0,1,incongruent,0.1,2615.11148553649,3893.84725932777
4,104,3,403,-0.5,0.5,0.5,4,2,0.6,4,566,1,1,566,1,0,1.2,0.8,0.123085417940055,0.123085417940055,750,0,0,incongruent,0.1,3290.45207794126,1306.219256785
4,104,3,404,-0.5,-0.5,0,1,NaN,0.6,3,640,0,1,NaN,1,0,1.2,0.8,0.720137067029493,NaN,750,0,1,neutral,0.1,1567.38439911512,2335.74413778777
4,104,3,405,0.5,0.5,0.5,2,4,0.6,2,511,1,1,511,1,0,1.4,NaN,-0.320669186112906,-0.320669186112906,750,0,0,incongruent,1,2686.72407929049,1748.56129273034
4,104,3,406,-0.5,0.5,0,3,NaN,0.8,3,502,1,1,502,1,0,1.4,0.8,-0.393283575867027,-0.393283575867027,750,0,0,neutral,0.1,5715.33581484177,3440.30489384705
4,104,3,407,0.5,0.5,-0.5,1,1,1,1,426,1,1,426,1,0,1.2,NaN,-1.00647175601294,-1.00647175601294,750,1,0,congruent,1,1485.64065345124,779.152183749265
4,104,3,408,0.5,-0.5,-0.5,4,4,1,4,480,1,1,480,1,0,1.4,NaN,-0.570785417488211,-0.570785417488211,750,1,0,congruent,1,2257.47150693756,1885.42123901264
4,104,3,409,0.5,-0.5,-0.5,1,1,1,1,533,1,1,533,1,0,1.6,NaN,-0.143167344491721,-0.143167344491721,750,1,0,congruent,1,3611.60716101435,2687.75207151449
4,104,3,410,-0.5,0.5,-0.5,2,2,1,2,834,1,0,834,0,0,1.8,0.8,2.28538057950721,2.28538057950721,750,1,0,congruent,0,4484.22764222179,5888.10051085294
4,104,3,411,-0.5,-0.5,0,3,NaN,0.8,3,581,1,1,581,1,0,1.4,0.8,0.24410940086359,0.24410940086359,750,0,0,neutral,0.1,4364.54751943924,1681.39279954971
4,104,3,412,-0.5,0.5,-0.5,4,4,0.8,4,402,1,1,402,1,0,1.4,0.6,-1.20011012869059,-1.20011012869059,750,1,0,congruent,0.1,1754.39377076533,1266.56024548504
4,104,3,413,0.5,0.5,0,3,NaN,0.8,4,532,0,1,NaN,0,0,1.2,NaN,-0.151235610019957,NaN,750,0,1,neutral,0,3934.34614308933,7877.49775056111
4,104,3,414,-0.5,-0.5,0.5,1,2,0.6,1,830,1,0,830,1,0,0.8,0.8,2.25310751739427,2.25310751739427,750,0,0,incongruent,0.1,5590.57353823839,3546.31047526286
4,104,3,415,-0.5,0.5,0,4,NaN,0.6,4,451,1,1,451,1,0,0.6,0.6,-0.804765117807045,-0.804765117807045,750,0,0,neutral,0.1,5235.36894914883,621.047453302184
4,104,3,416,0.5,0.5,0.5,2,3,0.6,2,385,1,1,385,1,0,0.8,NaN,-1.3372706426706,-1.3372706426706,750,0,0,incongruent,1,3536.70653177842,2748.06885539673
4,104,3,417,-0.5,-0.5,0,3,NaN,0.6,3,493,1,1,493,0,0,1,0.8,-0.465897965621147,-0.465897965621147,750,0,0,neutral,0,9256.0085147711,2652.98755051617
4,104,3,418,0.5,0.5,0.5,2,1,0.6,2,638,1,1,638,1,0,0.8,NaN,0.704000535973022,0.704000535973022,750,0,0,incongruent,1,2036.9779049931,5368.35872601759
4,104,3,419,-0.5,-0.5,0.5,1,3,0.8,1,762,1,0,762,1,0,1.2,0.8,1.70446546147424,1.70446546147424,750,0,0,incongruent,0.1,4889.50173220757,4263.86994124669
4,104,3,420,0.5,0.5,0,2,NaN,0.8,2,620,1,1,620,1,0,1.2,NaN,0.55877175646478,0.55877175646478,750,0,0,neutral,1,2841.33368359929,9377.45063604839
4,104,3,421,-0.5,-0.5,-0.5,3,3,0.8,3,364,1,1,364,1,0,1.4,0.8,-1.50670421876355,-1.50670421876355,750,1,0,congruent,0.1,8683.74814903046,3006.47226587939
4,104,3,422,0.5,-0.5,0,1,NaN,0.8,2,513,0,1,NaN,1,0,1.2,NaN,-0.304532655056434,NaN,750,0,1,neutral,1,3136.48594307392,1508.468066439
4,104,3,424,0.5,-0.5,0,2,NaN,0.8,1,495,0,1,NaN,1,0,1.4,NaN,-0.449761434564676,NaN,750,0,1,neutral,1,15207.5656055378,6374.77654725135
4,104,3,425,-0.5,0.5,-0.5,1,1,0.8,1,393,1,1,393,1,0,1.6,0.8,-1.27272451844471,-1.27272451844471,750,1,0,congruent,0.1,2681.99800354503,2132.47259853437
4,104,3,426,-0.5,0.5,0.5,2,4,1,2,543,1,1,543,1,0,1.4,0.8,-0.0624846892093648,-0.0624846892093648,750,0,0,incongruent,0.1,3053.75060406136,2372.11607397223
4,104,3,427,0.5,-0.5,-0.5,3,3,1,3,506,1,1,506,1,0,1.4,NaN,-0.361010513754084,-0.361010513754084,750,1,0,congruent,1,3137.72080727385,1919.71705982289
4,104,3,429,0.5,-0.5,0,3,NaN,1,3,491,1,1,491,1,0,1.6,NaN,-0.482034496677619,-0.482034496677619,750,0,0,neutral,1,1801.94141660456,942.938759074336
4,104,3,430,0.5,-0.5,-0.5,1,1,1,1,473,1,1,473,1,0,1.6,NaN,-0.62726327618586,-0.62726327618586,750,1,0,congruent,1,2670.84777763807,2301.99035171108
4,104,3,431,-0.5,0.5,0,4,NaN,1,4,398,1,1,398,1,0,1.8,0.8,-1.23238319080353,-1.23238319080353,750,0,0,neutral,0.1,3153.34028883464,530.899540020873
4,104,3,432,-0.5,0.5,-0.5,3,3,1,2,428,0,1,NaN,0,0,1.8,1,-0.990335224956465,NaN,750,0,1,congruent,0,5061.72321111157,1644.66113902593
4,104,3,433,-0.5,0.5,0.5,4,2,0.8,4,661,1,1,661,1,0,1.4,0.8,0.889570643122442,0.889570643122442,750,0,0,incongruent,0.1,3119.47952973402,6718.01325383613
4,104,3,434,-0.5,0.5,0.5,3,4,0.8,3,553,1,1,553,1,0,1.2,0.8,0.0181979660729917,0.0181979660729917,750,0,0,incongruent,0.1,5114.49563503008,1048.52747709481
4,104,3,435,0.5,-0.5,0.5,1,3,0.8,4,514,0,1,NaN,1,0,1,NaN,-0.296464389528199,NaN,750,0,1,incongruent,1,5772.0348031098,3612.46456589289
4,104,3,436,0.5,0.5,-0.5,4,4,0.8,4,520,1,1,520,1,0,1,NaN,-0.248054796358785,-0.248054796358785,750,1,0,congruent,1,6932.78548756934,1046.45224510333
4,104,3,437,0.5,0.5,0.5,3,2,0.8,3,770,1,0,770,0,0,1.2,NaN,1.76901158570013,1.76901158570013,750,0,0,incongruent,0,2925.61596426501,2974.93546826237
4,104,3,438,-0.5,0.5,0.5,2,1,0.6,3,616,0,1,NaN,0,0,1.2,0.8,0.526498694351838,NaN,750,0,1,incongruent,0,5549.81374064624,4274.28429757479
4,104,3,439,0.5,-0.5,0.5,1,3,0.6,1,610,1,1,610,0,0,1,NaN,0.478089101182424,0.478089101182424,750,0,0,incongruent,0,7009.61995551772,6706.14110219107
4,104,3,440,-0.5,0.5,0,3,NaN,0.6,3,506,1,1,506,1,0,0.8,0.6,-0.361010513754084,-0.361010513754084,750,0,0,neutral,0.1,2537.3246159858,2920.96329704622
4,104,3,441,0.5,-0.5,0.5,1,3,0.6,1,539,1,1,539,1,0,0.6,NaN,-0.0947577513223074,-0.0947577513223074,750,0,0,incongruent,1,2376.91167385447,1303.68629938003
4,104,3,442,-0.5,0.5,-0.5,4,4,0.6,4,431,1,1,431,1,0,0.6,0.6,-0.966130428371758,-0.966130428371758,750,1,0,congruent,0.1,2396.57058277525,1333.39452044479
4,104,3,443,0.5,0.5,0,3,NaN,0.6,3,414,1,1,414,1,0,0.8,NaN,-1.10329094235176,-1.10329094235176,750,0,0,neutral,1,3746.11593374389,2307.87228269124
4,104,3,444,0.5,-0.5,0.5,4,1,0.6,4,519,1,1,519,1,0,1.2,NaN,-0.25612306188702,-0.25612306188702,750,0,0,incongruent,1,1972.81018160834,1031.20479586856
4,104,3,445,-0.5,0.5,0.5,3,2,0.6,3,457,1,1,457,1,0,1.6,0.8,-0.756355524637631,-0.756355524637631,750,0,0,incongruent,0.1,1188.70078203065,2187.19273410143
4,104,3,446,-0.5,-0.5,0,1,NaN,0.8,1,495,1,1,495,1,0,1.6,0.8,-0.449761434564676,-0.449761434564676,750,0,0,neutral,0.1,3672.00259160763,2973.32924197107
4,104,3,447,-0.5,0.5,-0.5,4,4,0.8,2,465,0,1,NaN,0,0,1.4,0.8,-0.691809400411746,NaN,750,0,1,congruent,0,11143.4427240345,2626.61920065259
4,104,3,448,-0.5,-0.5,-0.5,3,3,0.8,4,752,0,0,NaN,1,0,1.2,0.8,1.62378280619189,NaN,750,0,1,congruent,0.1,5091.62020022253,2314.19179950976
4,104,3,449,-0.5,0.5,0.5,1,4,0.8,1,440,1,1,440,1,0,1,0.6,-0.893516038617637,-0.893516038617637,750,0,0,incongruent,0.1,9412.14779922499,2383.75161802107
4,104,3,450,0.5,-0.5,0.5,4,3,0.8,3,629,0,1,NaN,0,0,0.8,NaN,0.631386146218901,NaN,750,1,0,incongruent,0,2103.8452493415,1100.20406885604
4,104,4,451,-0.5,0.5,0,1,NaN,0.8,1,490,1,1,490,1,0,0.6,0.8,-0.490102762205854,-0.490102762205854,750,0,0,neutral,0.1,1098.40458206252,837.151632668447
4,104,4,452,-0.5,-0.5,-0.5,3,3,0.8,3,515,1,1,515,1,0,0.6,1,-0.288396123999963,-0.288396123999963,750,1,0,congruent,0.1,2637.44229419423,1290.23476315032
4,104,4,453,0.5,0.5,0,4,NaN,0.8,4,393,1,1,393,1,0,0.8,NaN,-1.27272451844471,-1.27272451844471,750,0,0,neutral,1,3939.22918633154,1105.08313013947
4,104,4,454,0.5,0.5,-0.5,2,2,0.8,2,328,1,1,328,1,0,1,NaN,-1.79716177778003,-1.79716177778003,750,1,0,congruent,1,1574.80333956145,804.228765268898
4,104,4,455,-0.5,-0.5,0,4,NaN,0.8,4,420,1,1,420,1,0,1.2,1,-1.05488134918235,-1.05488134918235,750,0,0,neutral,0.1,3091.58640962366,1739.05265982313
4,104,4,456,-0.5,0.5,0.5,1,3,0.8,1,544,1,1,544,1,0,1.4,0.8,-0.0544164236811292,-0.0544164236811292,750,0,0,incongruent,0.1,3669.60023879538,1804.02670217578
4,104,4,457,0.5,-0.5,0,2,NaN,1,3,360,0,1,NaN,1,0,1.4,NaN,-1.53897728087649,NaN,750,0,1,neutral,1,1401.82262257291,740.473906312958
4,104,4,458,-0.5,-0.5,-0.5,3,3,1,2,395,0,1,NaN,1,0,1.6,1,-1.25658798738824,NaN,750,0,1,congruent,0.1,3747.05964958422,3989.93820292865
4,104,4,459,-0.5,-0.5,0,2,NaN,1,2,550,1,1,550,1,0,1.4,1,-0.00600683051171528,-0.00600683051171528,750,0,0,neutral,0.1,4684.23318050162,1205.58289063485
4,104,4,460,-0.5,-0.5,-0.5,1,1,1,4,315,0,1,NaN,1,0,1.2,1,-1.90204922964709,NaN,750,0,1,congruent,0.1,2174.07604075257,5762.73738480919
4,104,4,461,-0.5,-0.5,-0.5,3,3,1,3,436,1,1,436,1,0,1.2,1,-0.925789100730579,-0.925789100730579,750,1,0,congruent,0.1,1276.96103388865,2525.23934290645
4,104,4,462,0.5,-0.5,0,1,NaN,1,2,325,0,1,NaN,1,0,1.2,NaN,-1.82136657436474,NaN,750,0,1,neutral,1,2692.00942985283,4603.25071808925
4,104,4,463,-0.5,-0.5,0.5,2,1,1,1,326,0,1,NaN,1,0,1.2,1,-1.8132983088365,NaN,750,1,0,incongruent,0.1,3621.26442622915,794.226755649986
4,104,4,464,0.5,0.5,0,3,NaN,1,3,451,1,1,451,1,0,1.2,NaN,-0.804765117807045,-0.804765117807045,750,0,0,neutral,1,4940.82020444436,2267.10788817036
4,104,4,465,0.5,0.5,0.5,1,3,1,2,450,0,1,NaN,0,0,1.4,NaN,-0.81283338333528,NaN,750,0,1,incongruent,0,4278.62189036007,810.770249955041
4,104,4,466,0.5,-0.5,-0.5,4,4,0.8,4,609,1,1,609,1,0,1.2,NaN,0.470020835654188,0.470020835654188,750,1,0,congruent,1,3757.42820063778,2237.06478700667
4,104,4,467,-0.5,0.5,0.5,2,3,0.8,3,527,0,1,NaN,0,0,1.4,0.8,-0.191576937661135,NaN,750,1,0,incongruent,0,2394.90297110192,3668.78983001404
4,104,4,468,0.5,-0.5,0,3,NaN,0.6,2,584,0,1,NaN,1,0,1,NaN,0.268314197448297,NaN,750,0,1,neutral,1,2672.73474413823,1704.77686063707
4,104,4,469,0.5,0.5,0.5,1,4,0.6,2,524,0,1,NaN,0,0,1.2,NaN,-0.215781734245842,NaN,750,0,1,incongruent,0,12493.7196257246,1922.1396109625
4,104,4,470,0.5,-0.5,0,2,NaN,0.4,1,607,0,1,NaN,1,0,0.8,NaN,0.453884304597717,NaN,750,0,1,neutral,1,5566.38426399108,2146.1524222814
4,104,4,471,0.5,0.5,0.5,1,4,0.4,1,650,1,1,650,1,0,1.2,NaN,0.80081972231185,0.80081972231185,750,0,0,incongruent,1,956.150822759339,835.180119638669
4,104,4,472,0.5,-0.5,0.5,3,1,0.4,3,481,1,1,481,1,0,1.2,NaN,-0.562717151959975,-0.562717151959975,750,0,0,incongruent,1,5029.13888604827,5217.98025949458
4,104,4,473,0.5,0.5,-0.5,4,4,0.4,4,344,1,1,344,1,0,1.6,NaN,-1.66806952932826,-1.66806952932826,750,1,0,congruent,1,2370.67189178838,1797.09407934052
4,104,4,474,0.5,0.5,0,2,NaN,0.4,2,368,1,1,368,1,0,1.6,NaN,-1.4744311566506,-1.4744311566506,750,0,0,neutral,1,1619.02197904392,1042.79993630839
4,104,4,475,0.5,-0.5,0.5,1,2,0.6,4,537,0,1,NaN,1,0,2,NaN,-0.110894282378779,NaN,750,0,1,incongruent,1,3237.29996323152,1571.88078929897
4,104,4,476,0.5,-0.5,-0.5,3,3,0.6,3,442,1,1,442,0,0,2,NaN,-0.877379507561165,-0.877379507561165,750,1,0,congruent,0,1274.10809467351,1119.22820805505
4,104,4,477,-0.5,-0.5,0,2,NaN,0.6,2,489,1,1,489,1,0,1.6,1,-0.49817102773409,-0.49817102773409,750,0,0,neutral,0.1,936.418027390224,1001.06614567352
4,104,4,478,-0.5,-0.5,-0.5,4,4,0.6,4,547,1,1,547,1,0,1.4,1,-0.0302116270964222,-0.0302116270964222,750,1,0,congruent,0.1,3375.73937551304,4060.06210582149
4,104,4,479,-0.5,-0.5,0.5,2,3,0.6,3,527,0,1,NaN,1,0,1.2,1,-0.191576937661135,NaN,750,1,0,incongruent,0.1,2493.92591795613,2584.29428784829
4,104,4,480,0.5,-0.5,0.5,3,2,0.6,1,568,0,1,NaN,1,0,1,NaN,0.139221948996526,NaN,750,0,1,incongruent,1,3891.83941031289,3092.65779256906
4,104,4,481,-0.5,-0.5,-0.5,4,4,0.6,4,500,1,1,500,1,0,1,1,-0.409420106923498,-0.409420106923498,750,1,0,congruent,0.1,4799.17392478777,2101.44521665731
4,104,4,482,-0.5,-0.5,0.5,2,3,0.6,1,567,0,1,NaN,0,0,1.2,1,0.131153683468291,NaN,750,0,1,incongruent,0,1566.9822915694,5484.63998092876
4,104,4,483,-0.5,0.5,0.5,1,2,0.6,1,393,1,1,393,1,0,1,0.6,-1.27272451844471,-1.27272451844471,750,0,0,incongruent,0.1,1658.87765396804,1285.32126226145
4,104,4,485,-0.5,-0.5,0.5,1,3,0.8,2,520,0,1,NaN,0,0,1.2,0.8,-0.248054796358785,NaN,750,0,1,incongruent,0,4907.5508717984,1274.39195352661
4,104,4,486,0.5,-0.5,0,4,NaN,0.8,4,516,1,1,516,1,0,0.8,NaN,-0.280327858471727,-0.280327858471727,750,0,0,neutral,1,5246.26221125949,1953.23426890071
4,104,4,487,0.5,0.5,-0.5,1,1,0.8,1,464,1,1,464,1,0,1,NaN,-0.699877665939981,-0.699877665939981,750,1,0,congruent,1,1595.43124396808,1080.17289813843
4,104,4,488,0.5,-0.5,0,4,NaN,1,4,440,1,1,440,1,0,1.4,NaN,-0.893516038617637,-0.893516038617637,750,0,0,neutral,1,3700.40808315019,1437.66774626515
4,104,4,489,-0.5,0.5,0.5,3,1,1,3,512,1,1,512,1,0,1.6,0.8,-0.31260092058467,-0.31260092058467,750,0,0,incongruent,0.1,3240.01141224391,2470.80633588231
4,104,4,490,-0.5,0.5,-0.5,4,4,1,4,555,1,1,555,1,0,1.4,0.8,0.034334497129463,0.034334497129463,750,1,0,congruent,0.1,3315.76394497407,2816.54587629657
4,104,4,491,0.5,0.5,0,1,NaN,1,1,485,1,1,485,1,0,1.6,NaN,-0.530444089847033,-0.530444089847033,750,0,0,neutral,1,4402.60657017968,986.629860361052
4,104,4,492,0.5,0.5,-0.5,2,2,1,2,360,1,1,360,1,0,1.6,NaN,-1.53897728087649,-1.53897728087649,750,1,0,congruent,1,4892.02916429405,3585.15305265898
4,104,4,493,0.5,0.5,-0.5,4,4,1,4,424,1,1,424,1,0,1.6,NaN,-1.02260828706941,-1.02260828706941,750,1,0,congruent,1,3721.96863210217,811.465072770735
4,104,4,494,0.5,0.5,-0.5,3,3,1,3,440,1,1,440,1,0,1.6,NaN,-0.893516038617637,-0.893516038617637,750,1,0,congruent,1,2871.38585860058,1984.47480884965
4,104,4,495,-0.5,0.5,0.5,4,2,1,4,551,1,1,551,1,0,1.8,0.8,0.00206143501652037,0.00206143501652037,750,0,0,incongruent,0.1,7053.26051602984,1729.78073849783
4,104,4,497,-0.5,0.5,0,4,NaN,1,4,467,1,1,467,1,0,1.8,0.8,-0.675672869355274,-0.675672869355274,750,0,0,neutral,0.1,2332.91687941789,4674.1316083321
4,104,4,498,-0.5,-0.5,0.5,2,3,1,2,322,1,1,322,1,0,1.6,0.6,-1.84557137094944,-1.84557137094944,750,0,0,incongruent,0.1,3657.39790168159,2669.30297524813
4,104,4,499,-0.5,0.5,0.5,3,2,1,4,414,0,1,NaN,0,0,1.4,1,-1.10329094235176,NaN,750,0,1,incongruent,0,10276.6920101909,3212.14033440328
4,104,4,500,0.5,0.5,-0.5,1,1,0.8,1,477,1,1,477,1,0,1,NaN,-0.594990214072918,-0.594990214072918,750,1,0,congruent,1,11625.6874087964,3525.66775521645
4,104,4,501,0.5,-0.5,-0.5,4,4,0.8,4,632,1,1,632,1,0,1.2,NaN,0.655590942803608,0.655590942803608,750,1,0,congruent,1,1830.96186465029,5048.95946540122
4,104,4,502,0.5,0.5,0.5,1,3,0.8,3,473,0,1,NaN,0,0,1.2,NaN,-0.62726327618586,NaN,750,1,0,incongruent,0,4314.75358809312,3494.68460226615
4,104,4,503,-0.5,0.5,0.5,3,1,0.6,2,538,0,1,NaN,0,0,1,0.8,-0.102826016850543,NaN,750,0,1,incongruent,0,8488.39013329227,3349.79030217023
4,104,4,504,0.5,0.5,0,2,NaN,0.4,2,431,1,1,431,1,0,0.8,NaN,-0.966130428371758,-0.966130428371758,750,0,0,neutral,1,7991.40663057122,2849.09236827564
4,104,4,505,-0.5,-0.5,0.5,1,4,0.4,3,314,0,1,NaN,0,0,1.2,0.6,-1.91011749517533,NaN,750,0,1,incongruent,0,5366.50039851829,1719.71984185079
4,104,4,506,0.5,0.5,0,2,NaN,0.4,1,505,0,1,NaN,0,0,0.8,NaN,-0.36907877928232,NaN,750,0,1,neutral,0,2849.90743754754,789.196930239668
4,104,4,507,0.5,0.5,-0.5,4,4,0.4,4,423,1,1,423,1,0,0.4,NaN,-1.03067655259764,-1.03067655259764,750,1,0,congruent,1,3099.76322302562,4655.93234357963
4,104,4,508,0.5,-0.5,0,1,NaN,0.4,1,560,1,1,560,1,0,0.8,NaN,0.0746758247706412,0.0746758247706412,750,0,0,neutral,1,3582.02543627405,1189.61464669737
4,104,4,509,-0.5,-0.5,0.5,2,4,0.4,3,576,0,1,NaN,1,0,1.2,0.4,0.203768073222412,NaN,750,0,1,incongruent,0.1,2410.79193791066,5007.58287811994
4,104,4,510,-0.5,-0.5,-0.5,3,3,0.4,2,416,0,1,NaN,0,0,1,0.4,-1.08715441129529,NaN,750,0,1,congruent,0,6606.44778146368,2164.7982352091
4,104,4,511,0.5,-0.5,0,4,NaN,0.4,4,452,1,1,452,0,0,1,NaN,-0.796696852278809,-0.796696852278809,750,0,0,neutral,0,2868.99348404704,1538.49619811248
4,104,4,512,-0.5,0.5,-0.5,3,3,0.4,3,563,1,1,563,1,0,1,0.6,0.0988806213553482,0.0988806213553482,750,1,0,congruent,0.1,2405.2242073602,2624.27078682557
4,104,4,513,0.5,-0.5,0,1,NaN,0.6,4,392,0,1,NaN,1,0,0.8,NaN,-1.28079278397295,NaN,750,0,1,neutral,1,10327.6896080994,2252.99229815338
4,104,4,514,0.5,-0.5,-0.5,3,3,0.6,3,508,1,1,508,0,0,0.8,NaN,-0.344873982697613,-0.344873982697613,750,1,0,congruent,0,7295.94803166394,721.431976062553
4,104,4,515,-0.5,0.5,0,2,NaN,0.6,2,440,1,1,440,1,0,0.6,0.6,-0.893516038617637,-0.893516038617637,750,0,0,neutral,0.1,1016.01014141217,1164.67613697655
4,104,4,516,-0.5,-0.5,-0.5,4,4,0.8,4,326,1,1,326,1,0,0.8,0.4,-1.8132983088365,-1.8132983088365,750,1,0,congruent,0.1,6031.90983776107,1838.92402443403
4,104,4,517,-0.5,0.5,0,1,NaN,0.8,1,381,1,1,381,1,0,1,0.6,-1.36954370478354,-1.36954370478354,750,0,0,neutral,0.1,3991.91635295898,724.059033856343
4,104,4,518,0.5,-0.5,0.5,2,1,0.8,2,357,1,1,357,1,0,1,NaN,-1.5631820774612,-1.5631820774612,750,0,0,incongruent,1,12969.9031776578,1529.17644853405
4,104,4,519,0.5,-0.5,0.5,4,2,0.8,4,415,1,1,415,1,0,1,NaN,-1.09522267682353,-1.09522267682353,750,0,0,incongruent,1,5433.95857125645,245.155118876697
4,104,4,520,-0.5,-0.5,0.5,3,1,0.8,1,582,0,1,NaN,1,0,1.4,0.6,0.252177666391826,NaN,750,1,0,incongruent,0.1,2256.55367194503,3988.4872507753
4,104,4,521,0.5,-0.5,0,2,NaN,0.8,2,403,1,1,403,1,0,1.4,NaN,-1.19204186316236,-1.19204186316236,750,0,0,neutral,1,6286.28284441669,3197.42092394315
4,104,4,522,-0.5,-0.5,-0.5,4,4,0.8,4,468,1,1,468,1,0,1.6,0.6,-0.667604603827039,-0.667604603827039,750,1,0,congruent,0.1,2583.77792147548,677.004245076315
4,104,4,523,0.5,0.5,0.5,2,1,0.8,1,467,0,1,NaN,0,0,1.6,NaN,-0.675672869355274,NaN,750,1,0,incongruent,0,2847.63043403245,2416.76349086182
4,104,4,524,0.5,-0.5,0.5,3,2,0.8,3,580,1,1,580,1,0,1.2,NaN,0.236041135335354,0.236041135335354,750,0,0,incongruent,1,2341.86046333528,810.161129763805
4,104,4,525,0.5,0.5,0,4,NaN,0.8,4,322,1,1,322,1,0,1.2,NaN,-1.84557137094944,-1.84557137094944,750,0,0,neutral,1,2567.33690838855,2049.12048202836
4,104,4,527,-0.5,-0.5,-0.5,4,4,0.6,4,456,1,1,456,1,0,1,0.8,-0.764423790165866,-0.764423790165866,750,1,0,congruent,0.1,1978.44988821321,1564.99531525421
4,104,4,528,-0.5,0.5,-0.5,2,2,0.6,3,519,0,1,NaN,0,0,1,0.6,-0.25612306188702,NaN,750,0,1,congruent,0,3326.58323395254,1643.71578907152
4,104,4,529,0.5,0.5,0.5,4,1,0.4,4,421,1,1,421,1,0,1,NaN,-1.04681308365411,-1.04681308365411,750,0,0,incongruent,1,3283.77238445722,644.881569766494
4,104,4,530,0.5,-0.5,0,2,NaN,0.4,2,544,1,1,544,0,0,1,NaN,-0.0544164236811292,-0.0544164236811292,750,0,0,neutral,0,1817.34621247903,824.148456830562
4,104,4,531,-0.5,0.5,-0.5,1,1,0.4,1,332,1,1,332,1,0,0.6,0.6,-1.76488871566709,-1.76488871566709,750,1,0,congruent,0.1,3606.97629215662,1358.94122596254
4,104,4,532,0.5,-0.5,-0.5,4,4,0.6,3,691,0,1,NaN,1,0,0.8,NaN,1.13161860896951,NaN,750,0,1,congruent,1,1477.20772291501,1703.12083841108
4,104,4,533,0.5,0.5,-0.5,2,2,0.6,2,385,1,1,385,1,0,1,NaN,-1.3372706426706,-1.3372706426706,750,1,0,congruent,1,2682.29820222217,1105.76046362585
4,104,4,534,0.5,-0.5,0,1,NaN,0.6,1,433,1,1,433,1,0,1.4,NaN,-0.949993897315286,-0.949993897315286,750,0,0,neutral,1,1210.43252512414,2460.14575734358
4,104,4,535,0.5,-0.5,0.5,4,3,0.6,4,329,1,1,329,1,0,1.4,NaN,-1.78909351225179,-1.78909351225179,750,0,0,incongruent,1,3636.72898517031,1769.59470781185
4,104,4,536,-0.5,-0.5,-0.5,1,1,0.6,1,430,1,1,430,1,0,1.8,0.8,-0.974198693899993,-0.974198693899993,750,1,0,congruent,0.1,2704.83640055141,2557.80479212873
4,104,4,537,0.5,-0.5,0,4,NaN,0.6,4,419,1,1,419,0,0,1.8,NaN,-1.06294961471059,-1.06294961471059,750,0,0,neutral,0,3824.44751384093,1005.27104644438
4,104,4,538,-0.5,0.5,0.5,3,1,0.6,3,495,1,1,495,1,0,1.4,0.6,-0.449761434564676,-0.449761434564676,750,0,0,incongruent,0.1,4941.0614979694,2139.33975580829
4,104,4,539,-0.5,-0.5,0.5,4,2,0.8,2,430,0,1,NaN,1,0,1.2,1,-0.974198693899993,NaN,750,1,0,incongruent,0.1,5408.89920748725,3049.1425583877
4,104,4,540,0.5,0.5,-0.5,3,3,0.8,2,456,0,1,NaN,0,0,1,NaN,-0.764423790165866,NaN,750,0,1,congruent,0,2344.77423621652,3287.87361842217
4,104,4,541,-0.5,-0.5,-0.5,1,1,0.8,4,563,0,1,NaN,1,0,0.6,1,0.0988806213553482,NaN,750,0,1,congruent,0.1,3556.60029572919,1675.99529190051
4,104,4,542,0.5,0.5,0,4,NaN,0.8,4,428,1,1,428,1,0,0.6,NaN,-0.990335224956465,-0.990335224956465,750,0,0,neutral,1,1518.22815267248,1346.48898950682
4,104,4,543,0.5,0.5,0.5,3,2,0.8,2,512,0,1,NaN,0,0,1,NaN,-0.31260092058467,NaN,750,1,0,incongruent,0,6024.27112022423,927.651287378906
4,104,4,544,-0.5,-0.5,-0.5,4,4,0.6,4,521,1,1,521,0,0,0.8,1,-0.239986530830549,-0.239986530830549,750,1,0,congruent,0,1146.73219012644,923.30511627563
4,104,4,545,0.5,-0.5,0,1,NaN,0.6,1,399,1,1,399,1,0,0.6,NaN,-1.2243149252753,-1.2243149252753,750,0,0,neutral,1,6323.0454219592,2310.84186080687
4,104,4,546,0.5,-0.5,-0.5,2,2,0.6,2,628,1,1,628,1,0,1,NaN,0.623317880690665,0.623317880690665,750,1,0,congruent,1,1180.72387696734,2660.96484016853
4,104,4,547,-0.5,-0.5,0,1,NaN,0.6,1,507,1,1,507,1,0,1.2,0.8,-0.352942248225848,-0.352942248225848,750,0,0,neutral,0.1,1029.87737335291,468.988676933304
4,104,4,548,-0.5,0.5,-0.5,4,4,0.6,4,586,1,1,586,1,0,1,0.6,0.284450728504768,0.284450728504768,750,1,0,congruent,0.1,3087.76715234139,2088.8101637763
4,104,4,549,-0.5,-0.5,0.5,3,2,0.6,3,408,1,1,408,1,0,1.2,0.8,-1.15170053552118,-1.15170053552118,750,0,0,incongruent,0.1,3007.73165140443,592.641540394938
4,104,4,550,0.5,0.5,0,2,NaN,0.6,1,476,0,1,NaN,0,0,1.4,NaN,-0.603058479601153,NaN,750,0,1,neutral,0,1451.48746599449,2055.65556144601
4,104,4,551,0.5,-0.5,-0.5,4,4,0.4,4,493,1,1,493,0,0,1,NaN,-0.465897965621147,-0.465897965621147,750,1,0,congruent,0,2805.83547651982,2572.32277790195
4,104,4,552,-0.5,0.5,0,3,NaN,0.4,3,532,1,1,532,1,0,0.6,0.6,-0.151235610019957,-0.151235610019957,750,0,0,neutral,0.1,2416.70044570563,2566.93023350089
4,104,4,553,-0.5,-0.5,0.5,1,2,0.6,2,707,0,1,NaN,0,0,0.6,0.8,1.26071085742128,NaN,750,1,0,incongruent,0,3010.59652261637,2959.29459705713
4,104,4,554,-0.5,-0.5,0,3,NaN,0.6,3,417,1,1,417,0,0,0.4,0.6,-1.07908614576706,-1.07908614576706,750,0,0,neutral,0,3166.55272392159,2142.98196399403
4,104,4,555,-0.5,-0.5,-0.5,4,4,0.6,4,466,1,1,466,0,0,0.2,0.4,-0.68374113488351,-0.68374113488351,750,1,0,congruent,0,2011.1934924973,939.949973017314
4,104,4,556,0.5,0.5,0,3,NaN,0.6,3,483,1,1,483,1,0,0.2,NaN,-0.546580620903504,-0.546580620903504,750,0,0,neutral,1,1467.92088463655,1091.36851511683
4,104,4,557,0.5,-0.5,0.5,2,4,0.6,4,563,0,1,NaN,1,0,0.6,NaN,0.0988806213553482,NaN,750,1,0,incongruent,1,750.48784840229,2584.35871262501
4,104,4,558,-0.5,-0.5,0,3,NaN,0.6,2,423,0,1,NaN,1,0,0.8,0.4,-1.03067655259764,NaN,750,0,1,neutral,0.1,7396.39897164337,1531.26308741433
4,104,4,559,0.5,-0.5,0.5,2,3,0.6,3,455,0,1,NaN,0,0,1,NaN,-0.772492055694102,NaN,750,1,0,incongruent,0,2873.259056146,1631.80685995546
4,104,4,560,0.5,0.5,-0.5,1,1,0.6,1,435,1,1,435,1,0,1,NaN,-0.933857366258815,-0.933857366258815,750,1,0,congruent,1,4858.42067478754,1090.02803702611
4,104,4,561,0.5,-0.5,0.5,4,2,0.8,4,387,1,1,387,1,0,1.4,NaN,-1.32113411161413,-1.32113411161413,750,0,0,incongruent,1,5176.01491265684,2414.97214121258
4,104,4,562,0.5,0.5,-0.5,1,1,0.8,1,564,1,1,564,1,0,1.4,NaN,0.106948886883584,0.106948886883584,750,1,0,congruent,1,2151.23562241536,2311.03889384439
4,104,4,563,0.5,-0.5,0,4,NaN,0.8,4,576,1,1,576,1,0,1.4,NaN,0.203768073222412,0.203768073222412,750,0,0,neutral,1,1620.15132612673,2015.0437208122
4,104,4,564,-0.5,0.5,-0.5,3,3,0.8,3,524,1,1,524,1,0,1.6,0.8,-0.215781734245842,-0.215781734245842,750,1,0,congruent,0.1,4288.50299048129,2423.46132443406
4,104,4,565,0.5,-0.5,-0.5,1,1,1,2,508,0,1,NaN,1,0,1.8,NaN,-0.344873982697613,NaN,750,0,1,congruent,1,3566.92973039666,1292.8883576978
4,104,4,566,-0.5,-0.5,-0.5,3,3,1,4,371,0,1,NaN,1,0,1.8,0.4,-1.4502263600659,NaN,750,0,1,congruent,0.1,2061.38860026299,2018.38451000089
4,104,4,567,0.5,0.5,0,2,NaN,1,1,439,0,1,NaN,0,0,1.6,NaN,-0.901584304145872,NaN,750,0,1,neutral,0,9815.73899245272,7592.88726370905
4,104,4,568,-0.5,-0.5,0.5,3,4,0.8,3,725,1,1,725,1,0,1.2,0.4,1.40593963692952,1.40593963692952,750,0,0,incongruent,0.1,3598.41017479456,2232.78541119654
4,104,4,569,-0.5,0.5,-0.5,1,1,0.8,1,470,1,1,470,1,0,1,1,-0.651468072770567,-0.651468072770567,750,1,0,congruent,0.1,6510.87635246937,807.516117973117
4,104,4,570,-0.5,0.5,-0.5,2,2,0.8,2,531,1,1,531,1,0,1,1,-0.159303875548193,-0.159303875548193,750,1,0,congruent,0.1,4060.5480015814,5627.89828966376
4,104,4,571,-0.5,0.5,-0.5,4,4,0.8,3,531,0,1,NaN,0,0,0.8,1,-0.159303875548193,NaN,750,0,1,congruent,0,1943.4753087285,2076.60687954022
4,104,4,572,0.5,-0.5,0,1,NaN,0.6,1,613,1,1,613,1,0,0.6,NaN,0.502293897767131,0.502293897767131,750,0,0,neutral,1,2253.40171033413,3703.44503625927
4,104,4,573,0.5,-0.5,-0.5,3,3,0.6,3,509,1,1,509,0,0,1,NaN,-0.336805717169377,-0.336805717169377,750,1,0,congruent,0,1627.01195014638,2053.4173361574
4,104,4,574,-0.5,0.5,0.5,2,4,0.6,1,656,0,1,NaN,0,0,0.8,0.8,0.849229315481264,NaN,750,0,1,incongruent,0,5550.48950522023,2765.52243120919
4,104,4,575,0.5,0.5,-0.5,1,1,0.4,1,502,1,1,502,1,0,0.6,NaN,-0.393283575867027,-0.393283575867027,750,1,0,congruent,1,917.153728930683,2259.69257516468
4,104,4,576,-0.5,-0.5,0.5,3,2,0.6,2,436,0,1,NaN,1,0,0.8,0.6,-0.925789100730579,NaN,750,1,0,incongruent,0.1,2367.09392795422,1852.40398717197
4,104,4,577,0.5,-0.5,-0.5,4,4,0.6,4,320,1,1,320,1,0,1,NaN,-1.86170790200591,-1.86170790200591,750,1,0,congruent,1,1076.29695359344,1891.11249839402
4,104,4,578,-0.5,0.5,-0.5,1,1,0.6,1,494,1,1,494,1,0,1,0.6,-0.457829700092912,-0.457829700092912,750,1,0,congruent,0.1,2433.00882503012,2231.06477862259
4,104,4,579,-0.5,0.5,-0.5,3,3,0.6,3,491,1,1,491,1,0,1.2,0.6,-0.482034496677619,-0.482034496677619,750,1,0,congruent,0.1,1522.75679993579,771.681487371102
4,104,4,580,0.5,-0.5,0.5,2,4,0.6,4,505,0,1,NaN,1,0,1.4,NaN,-0.36907877928232,NaN,750,1,0,incongruent,1,3650.92471993222,4666.70363513733
4,104,4,581,-0.5,0.5,-0.5,3,3,0.6,3,694,1,1,694,1,0,1.4,0.6,1.15582340555422,1.15582340555422,750,1,0,congruent,0.1,5003.5092476118,2585.9656105479
4,104,4,582,0.5,0.5,0.5,1,2,0.8,2,434,0,1,NaN,0,0,1.4,NaN,-0.941925631787051,NaN,750,1,0,incongruent,0,7301.21729736668,843.349249365574
4,104,4,583,0.5,-0.5,-0.5,4,4,0.8,4,530,1,1,530,1,0,1,NaN,-0.167372141076428,-0.167372141076428,750,1,0,congruent,1,2187.8392239064,4255.34416501008
4,104,4,584,-0.5,-0.5,0,2,NaN,0.8,4,884,0,0,NaN,0,0,1.2,0.8,2.68879385591899,NaN,750,0,1,neutral,0,3309.06180704902,3305.022360077
4,104,4,585,-0.5,-0.5,-0.5,3,3,0.8,3,750,1,1,750,1,0,1,0.8,1.60764627513541,1.60764627513541,750,1,0,congruent,0.1,5181.78257899813,6288.24593563296
4,104,4,586,-0.5,-0.5,-0.5,4,4,0.8,4,391,1,1,391,1,0,0.8,0.8,-1.28886104950118,-1.28886104950118,750,1,0,congruent,0.1,4353.72719889061,754.023922352074
4,104,4,587,0.5,0.5,-0.5,1,1,0.8,1,367,1,1,367,1,0,0.8,NaN,-1.48249942217884,-1.48249942217884,750,1,0,congruent,1,4037.36277561775,1182.63188669925
4,104,4,588,-0.5,-0.5,0,4,NaN,0.8,4,374,1,1,374,1,0,1.2,0.8,-1.42602156348119,-1.42602156348119,750,0,0,neutral,0.1,1877.30727366406,1497.65281335339
4,104,4,589,-0.5,0.5,-0.5,1,1,0.8,1,459,1,1,459,1,0,1,0.6,-0.740218993581159,-0.740218993581159,750,1,0,congruent,0.1,1758.4830533918,2155.45675788605
4,104,4,590,0.5,0.5,-0.5,3,3,0.8,3,532,1,1,532,1,0,1.2,NaN,-0.151235610019957,-0.151235610019957,750,1,0,congruent,1,4527.87660207517,2663.46822094264
4,104,4,591,-0.5,0.5,0,1,NaN,0.8,1,431,1,1,431,1,0,1.4,0.8,-0.966130428371758,-0.966130428371758,750,0,0,neutral,0.1,2659.47179399363,2336.8528428457
4,104,4,592,-0.5,-0.5,-0.5,4,4,0.8,4,381,1,1,381,1,0,1.4,0.8,-1.36954370478354,-1.36954370478354,750,1,0,congruent,0.1,3070.05583780142,2403.47536962358
4,104,4,593,0.5,-0.5,0,3,NaN,0.8,4,500,0,1,NaN,1,0,1.2,NaN,-0.409420106923498,NaN,750,0,1,neutral,1,4598.93475106624,1053.92390051879
4,104,4,594,0.5,0.5,0.5,4,3,0.8,3,513,0,1,NaN,0,0,1.4,NaN,-0.304532655056434,NaN,750,1,0,incongruent,0,2755.62647976228,1548.24586511131
4,104,4,595,-0.5,-0.5,-0.5,2,2,0.8,3,330,0,1,NaN,1,0,1.2,0.8,-1.78102524672356,NaN,750,0,1,congruent,0.1,4724.54468743868,1397.98612256672
4,104,4,596,-0.5,0.5,0,1,NaN,0.8,1,446,1,1,446,1,0,1,1,-0.845106445448223,-0.845106445448223,750,0,0,neutral,0.1,1813.79184640837,3586.88346829323
4,104,4,597,0.5,-0.5,-0.5,3,3,0.8,3,458,1,1,458,0,0,1,NaN,-0.748287259109395,-0.748287259109395,750,1,0,congruent,0,1359.97441164818,5504.34445675959
4,104,4,598,0.5,-0.5,0.5,2,4,0.8,3,458,0,1,NaN,0,0,0.8,NaN,-0.748287259109395,NaN,750,0,1,incongruent,0,4777.0810919924,1853.8737308139
4,104,4,599,-0.5,-0.5,0.5,1,2,0.8,1,568,1,1,568,1,0,0.4,1,0.139221948996526,0.139221948996526,750,0,0,incongruent,0.1,5413.07601833247,921.087407361036
4,104,4,600,-0.5,-0.5,-0.5,3,3,0.8,2,713,0,1,NaN,1,0,0.6,1,1.3091204505907,NaN,750,0,1,congruent,0.1,1893.30722303608,3337.8404413589
