subid,vers,block,trial,rewlvl,efflvl,congruency,targetresp,distractorresp,rollingefflvl,resp,rt,acc,fast,accrt,isrewarded,ismiss,runavgrrgen,runavgrrcond,zrt,acczrt,rtthreshold,isdisterror,isranderror,congruence,feedback,fcz_resp_theta,fcz_resp_theta_baseline
6,104,1,2,0.5,-0.5,-0.5,3,3,0,4,663,0,1,NaN,0,0,0,NaN,0.184520079684063,NaN,750,0,1,congruent,0,3417.25775839398,2768.27354181156
6,104,1,4,0.5,-0.5,0.5,3,1,0,4,890,0,0,NaN,0,0,0,NaN,1.79563457099002,NaN,750,0,1,incongruent,0,3435.67793879594,7314.66209365196
6,104,1,6,-0.5,-0.5,-0.5,1,1,0,2,711,0,1,NaN,0,0,0,0,0.525196271678275,NaN,750,0,1,congruent,0,3037.8221502628,1366.38688221314
6,104,1,7,-0.5,-0.5,-0.5,3,3,0,2,683,0,1,NaN,0,0,0,0,0.326468493014985,NaN,750,0,1,congruent,0,6285.67641398749,4438.59531623455
6,104,1,9,0.5,-0.5,-0.5,1,1,0,2,558,0,1,NaN,0,0,0,NaN,-0.560709090303275,NaN,750,0,1,congruent,0,3125.20917386608,2213.99339162985
6,104,1,10,-0.5,0.5,0.5,3,4,0,4,919,0,0,NaN,0,0,0,0,2.00145977031986,NaN,750,1,0,incongruent,0,2147.96546234846,22713.2820229187
6,104,1,13,0.5,0.5,0,1,NaN,0,2,540,0,1,NaN,0,0,0,NaN,-0.688462662301104,NaN,750,0,1,neutral,0,1202.88434286697,4495.88083168983
6,104,1,14,0.5,-0.5,-0.5,3,3,0,4,920,0,0,NaN,0,0,0,NaN,2.00855719098641,NaN,750,0,1,congruent,0,3365.54227728832,5637.48197369072
6,104,1,16,0.5,-0.5,0,3,NaN,0,2,617,0,1,NaN,0,0,0,NaN,-0.141961270977056,NaN,750,0,1,neutral,0,3340.13514755934,3268.86032909711
6,104,1,17,0.5,-0.5,-0.5,1,1,0,2,560,0,1,NaN,0,0,0,NaN,-0.546514248970183,NaN,750,0,1,congruent,0,1275.62678345343,2339.44243954847
6,104,1,20,-0.5,0.5,0,4,NaN,0,4,744,1,1,744,1,0,0,0,0.759411153674295,0.759411153674295,750,0,0,neutral,0.1,8203.58121509105,6937.8264462295
6,104,1,21,-0.5,0.5,-0.5,1,1,0.2,2,890,0,0,NaN,0,0,0.2,0.2,1.79563457099002,NaN,750,0,1,congruent,0,4211.49044140625,2236.54328629575
6,104,1,22,0.5,-0.5,0,3,NaN,0.2,4,800,0,0,NaN,0,0,0.2,NaN,1.15686671100088,NaN,750,0,1,neutral,0,1405.42580434474,1288.72860934168
6,104,1,27,-0.5,0.5,-0.5,1,1,0.2,2,837,0,0,NaN,0,0,0.4,0.2,1.41947127566308,NaN,750,0,1,congruent,0,748.86874051651,8869.59715328307
6,104,1,29,-0.5,0.5,0.5,1,4,0.2,2,717,0,1,NaN,0,0,0.4,0.2,0.567780795677551,NaN,750,0,1,incongruent,0,1860.49346945641,3127.65223635195
6,104,1,31,0.5,0.5,-0.5,4,4,0.2,4,740,1,1,740,1,0,0.4,NaN,0.731021471008111,0.731021471008111,750,1,0,congruent,1,1126.83974152477,2162.74498940226
6,104,1,32,0.5,0.5,0,1,NaN,0.4,2,797,0,0,NaN,0,0,0.4,NaN,1.13557444900124,NaN,750,0,1,neutral,0,1906.33801649195,2242.85070897435
6,104,1,33,-0.5,-0.5,-0.5,4,4,0.2,4,980,1,0,980,0,0,0.4,0,2.43440243097917,2.43440243097917,750,1,0,congruent,0,1760.47071397735,9871.13006674852
6,104,1,34,0.5,0.5,0,3,NaN,0.2,2,835,0,0,NaN,0,0,0.4,NaN,1.40527643432999,NaN,750,0,1,neutral,0,1441.18775178687,2142.05041388034
6,104,1,35,0.5,-0.5,-0.5,1,1,0.2,2,701,0,1,NaN,1,0,0.4,NaN,0.454222065012814,NaN,750,0,1,congruent,1,2753.69957681982,3071.6900368512
6,104,1,38,0.5,0.5,-0.5,3,3,0.2,4,778,0,0,NaN,0,0,0.4,NaN,1.00072345633686,NaN,750,0,1,congruent,0,2079.74595614723,1717.61844945355
6,104,1,39,0.5,0.5,0,1,NaN,0,2,588,0,1,NaN,0,0,0.4,NaN,-0.347786470306893,NaN,750,0,1,neutral,0,2972.7543061341,4079.18860820459
6,104,1,40,-0.5,0.5,0.5,4,1,0,4,994,1,0,994,0,0,0.4,0.2,2.53376632031082,2.53376632031082,750,0,0,incongruent,0,1440.37896013445,5344.96196407536
6,104,1,44,0.5,0.5,-0.5,3,3,0,4,591,0,1,NaN,0,0,0,NaN,-0.326494208307255,NaN,750,0,1,congruent,0,2019.46268223137,839.330897641204
6,104,1,45,0.5,0.5,0,1,NaN,0,2,643,0,1,NaN,0,0,0,NaN,0.0425716663531416,NaN,750,0,1,neutral,0,3715.88249207852,3540.53301363167
6,104,1,46,-0.5,-0.5,0.5,2,4,0,4,841,0,0,NaN,0,0,0,0,1.44786095832926,NaN,750,1,0,incongruent,0,2308.43606623448,5181.22852936023
6,104,1,47,0.5,-0.5,-0.5,1,1,0,2,663,0,1,NaN,0,0,0,NaN,0.184520079684063,NaN,750,0,1,congruent,0,860.71383084931,3466.25489463382
6,104,1,49,-0.5,-0.5,-0.5,1,1,0,2,668,0,1,NaN,0,0,0,0,0.220007183016794,NaN,750,0,1,congruent,0,5785.40201677824,2977.74489962436
6,104,1,53,-0.5,0.5,0,1,NaN,0,2,629,0,1,NaN,0,0,0,0,-0.0567922229785035,NaN,750,0,1,neutral,0,1726.77592051901,860.49991903473
6,104,1,55,0.5,0.5,-0.5,1,1,0,4,785,0,0,NaN,0,0,0,NaN,1.05040540100268,NaN,750,0,1,congruent,0,713.912854357567,3128.87798036813
6,104,1,58,-0.5,0.5,0,1,NaN,0,2,638,0,1,NaN,0,0,0,0,0.00708456302041118,NaN,750,0,1,neutral,0,1281.76222283308,1392.43486417029
6,104,1,63,0.5,-0.5,0,3,NaN,0,2,710,0,1,NaN,0,0,0,NaN,0.518098851011729,NaN,750,0,1,neutral,0,5201.59955937235,4504.19378155128
6,104,1,66,-0.5,0.5,-0.5,1,1,0,2,656,0,1,NaN,0,0,0,0,0.134838135018241,NaN,750,0,1,congruent,0,1833.59317482433,4905.89571387431
6,104,1,68,-0.5,0.5,0.5,3,4,0,4,836,0,0,NaN,0,0,0,0,1.41237385499653,NaN,750,1,0,incongruent,0,599.407670780916,7472.36362117926
6,104,1,69,0.5,-0.5,0.5,1,3,0,2,661,0,1,NaN,0,0,0,NaN,0.170325238350971,NaN,750,0,1,incongruent,0,1881.81644457111,1038.01375515812
6,104,1,71,0.5,-0.5,0,1,NaN,0,2,678,0,1,NaN,0,0,0,NaN,0.290981389682254,NaN,750,0,1,neutral,0,4007.63284006292,2503.29360282229
6,104,1,73,-0.5,0.5,0.5,1,4,0,2,836,0,0,NaN,0,0,0,0,1.41237385499653,NaN,750,0,1,incongruent,0,3414.31185778041,3974.35832858221
6,104,1,75,-0.5,0.5,-0.5,1,1,0,2,779,0,0,NaN,0,0,0,0,1.00782087700341,NaN,750,0,1,congruent,0,8073.7450561555,4825.44647384177
6,104,1,77,-0.5,-0.5,0,1,NaN,0,1,546,1,1,546,0,0,0,0,-0.645878138301828,-0.645878138301828,750,0,0,neutral,0,2179.65110378548,1868.66146152004
6,104,1,78,-0.5,-0.5,-0.5,3,3,0,3,906,1,0,906,0,0,0,0,1.90919330165476,1.90919330165476,750,1,0,congruent,0,2479.9776747171,6329.0483246439
6,104,1,81,0.5,-0.5,0,4,NaN,0,3,723,0,1,NaN,0,0,0,NaN,0.610365319676828,NaN,750,0,1,neutral,0,2889.31416684166,4556.10920795371
6,104,1,82,-0.5,0.5,0.5,2,3,0,2,908,1,0,908,0,0,0,0,1.92338814298785,1.92338814298785,750,0,0,incongruent,0,786.133000117197,2398.43104507112
6,104,1,83,0.5,0.5,0,3,NaN,0,1,643,0,1,NaN,0,0,0,NaN,0.0425716663531416,NaN,750,0,1,neutral,0,2786.30965234425,2986.57140749853
6,104,1,84,0.5,0.5,0.5,1,3,0,1,848,1,0,848,0,0,0,NaN,1.49754290299509,1.49754290299509,750,0,0,incongruent,0,518.969917494462,4658.54707105835
6,104,1,85,-0.5,-0.5,0.5,2,1,0,2,758,1,0,758,0,0,0,0,0.858775043005941,0.858775043005941,750,0,0,incongruent,0,1575.9757777767,5953.15319070886
6,104,1,86,-0.5,0.5,-0.5,3,3,0,3,863,1,0,863,0,0,0,0,1.60400421299328,1.60400421299328,750,1,0,congruent,0,632.09379736836,2682.13228170905
6,104,1,87,0.5,-0.5,0,1,NaN,0,1,602,1,1,602,0,0,0,NaN,-0.248422580975248,-0.248422580975248,750,0,0,neutral,0,2186.79957667799,1490.22011058192
6,104,1,88,0.5,-0.5,-0.5,2,2,0,2,785,1,0,785,0,0,0,NaN,1.05040540100268,1.05040540100268,750,1,0,congruent,0,1010.28008474545,3283.90359989212
6,104,1,89,-0.5,0.5,-0.5,1,1,0,1,622,1,1,622,1,0,0,0,-0.106474167644326,-0.106474167644326,750,1,0,congruent,0.1,4508.00214467008,969.506075525124
6,104,1,90,-0.5,-0.5,0.5,4,2,0.2,4,997,1,0,997,1,0,0.2,0,2.55505858231045,2.55505858231045,750,0,0,incongruent,0.1,924.558088390413,6036.51711281377
6,104,1,92,-0.5,0.5,0,2,NaN,0.2,2,735,1,1,735,1,0,0.6,0.2,0.695534367675381,0.695534367675381,750,0,0,neutral,0.1,3029.61538390062,3611.95397768264
6,104,1,93,-0.5,0.5,0.5,4,1,0.4,3,859,0,0,NaN,0,0,0.8,0.4,1.57561453032709,NaN,750,0,1,incongruent,0,1151.97412134813,917.839300109344
6,104,1,94,-0.5,-0.5,0.5,2,3,0.4,2,869,1,0,869,0,0,0.8,0.4,1.64658873699256,1.64658873699256,750,0,0,incongruent,0,4733.12687941082,7931.33916736745
6,104,1,95,0.5,-0.5,0.5,3,2,0.4,3,909,1,0,909,0,0,0.6,NaN,1.9304855636544,1.9304855636544,750,0,0,incongruent,0,3528.41325393353,4650.91358244966
6,104,1,96,0.5,0.5,-0.5,4,4,0.4,3,742,0,1,NaN,0,0,0.4,NaN,0.745216312341203,NaN,750,0,1,congruent,0,7151.79449813327,7945.4315020548
6,104,1,97,0.5,-0.5,-0.5,3,3,0.4,4,954,0,0,NaN,0,0,0.2,NaN,2.24986949364897,NaN,750,0,1,congruent,0,5054.63012440642,5964.57050666164
6,104,1,98,0.5,-0.5,-0.5,2,2,0.4,2,797,1,0,797,0,0,0,NaN,1.13557444900124,1.13557444900124,750,1,0,congruent,0,869.470157892086,10481.6970064873
6,104,1,99,0.5,0.5,-0.5,4,4,0.4,4,820,1,0,820,0,0,0,NaN,1.2988151243318,1.2988151243318,750,1,0,congruent,0,1158.00784473058,2976.53517449719
6,104,1,100,-0.5,-0.5,0,1,NaN,0.4,1,560,1,1,560,1,0,0,0.4,-0.546514248970183,-0.546514248970183,750,0,0,neutral,0.1,2282.50005768164,740.515966294956
6,104,1,102,-0.5,0.5,0.5,4,2,0.2,4,975,1,0,975,0,0,0.2,0.4,2.39891532764644,2.39891532764644,750,0,0,incongruent,0,3110.71642509473,3822.58590398636
6,104,1,103,-0.5,0.5,0,1,NaN,0,1,601,1,1,601,1,0,0.2,0.4,-0.255520001641794,-0.255520001641794,750,0,0,neutral,0.1,1060.95458753437,3870.18125524327
6,104,1,104,-0.5,0.5,0.5,2,1,0.2,2,991,1,0,991,0,0,0.4,0.6,2.51247405831118,2.51247405831118,750,0,0,incongruent,0,1492.62573464189,2810.70077145539
6,104,1,105,-0.5,0.5,0,1,NaN,0.2,1,605,1,1,605,1,0,0.4,0.4,-0.227130318975609,-0.227130318975609,750,0,0,neutral,0.1,4720.03820414895,3645.86396527313
6,104,1,106,-0.5,0.5,-0.5,2,2,0.4,2,769,1,0,769,0,0,0.4,0.4,0.936846670337947,0.936846670337947,750,1,0,congruent,0,1698.94978571434,6138.89007704485
6,104,1,107,-0.5,-0.5,-0.5,4,4,0.4,4,858,1,0,858,1,0,0.4,0.6,1.56851710966055,1.56851710966055,750,1,0,congruent,0.1,7849.54650099569,4742.30702388441
6,104,1,108,0.5,-0.5,0,2,NaN,0.4,1,581,0,1,NaN,1,0,0.6,NaN,-0.397468414972715,NaN,750,0,1,neutral,1,1911.79480994915,1465.51185611602
6,104,1,109,-0.5,0.5,-0.5,1,1,0.4,1,685,1,1,685,1,0,0.8,0.4,0.340663334348077,0.340663334348077,750,1,0,congruent,0.1,2592.40574807203,2554.26769146456
6,104,1,110,0.5,-0.5,0,4,NaN,0.6,4,880,1,0,880,0,0,1,NaN,1.72466036432456,1.72466036432456,750,0,0,neutral,0,2960.31254133675,12840.415247198
6,104,1,111,-0.5,-0.5,-0.5,3,3,0.6,3,857,1,0,857,0,0,0.8,0.8,1.561419688994,1.561419688994,750,1,0,congruent,0,6105.7144216358,5778.51493904708
6,104,1,112,-0.5,-0.5,0.5,4,1,0.6,3,482,0,1,NaN,0,0,0.8,0.6,-1.10011306096078,NaN,750,0,1,incongruent,0,1236.03381033066,1128.4504420536
6,104,1,113,-0.5,-0.5,-0.5,3,3,0.6,3,830,1,0,830,0,0,0.6,0.4,1.36978933099726,1.36978933099726,750,1,0,congruent,0,738.686245597744,4359.18434760101
6,104,1,115,0.5,-0.5,0,3,NaN,0.6,1,620,0,1,NaN,1,0,0.2,NaN,-0.120669008977418,NaN,750,0,1,neutral,1,14489.6439080162,3735.20796239877
6,104,1,116,-0.5,-0.5,-0.5,2,2,0.6,2,714,1,1,714,1,0,0.6,0.4,0.546488533677913,0.546488533677913,750,1,0,congruent,0.1,891.974750980569,2109.10356668742
6,104,1,117,0.5,0.5,0.5,4,3,0.6,3,606,0,1,NaN,0,0,0.8,NaN,-0.220032898309063,NaN,750,1,0,incongruent,0,671.802942198793,1747.59397752547
6,104,1,118,0.5,-0.5,0,2,NaN,0.4,2,734,1,1,734,0,0,0.8,NaN,0.688436947008835,0.688436947008835,750,0,0,neutral,0,2587.95612986165,3937.90431731923
6,104,1,119,0.5,-0.5,0.5,1,2,0.4,1,695,1,1,695,0,0,0.8,NaN,0.411637541013538,0.411637541013538,750,0,0,incongruent,0,1031.39630740898,2846.70898608111
6,104,1,120,0.5,0.5,-0.5,3,3,0.4,3,832,1,0,832,0,0,0.6,NaN,1.38398417233035,1.38398417233035,750,1,0,congruent,0,1237.05064838819,4580.06834090829
6,104,1,121,-0.5,0.5,-0.5,1,1,0.4,1,668,1,1,668,1,0,0.2,0.6,0.220007183016794,0.220007183016794,750,1,0,congruent,0.1,2754.07192019924,3366.2334991556
6,104,1,122,0.5,-0.5,-0.5,4,4,0.4,3,882,0,0,NaN,0,0,0.2,NaN,1.73885520565765,NaN,750,0,1,congruent,0,8926.09210410779,4758.91924202186
6,104,1,123,-0.5,-0.5,-0.5,1,1,0.4,1,900,1,0,900,0,0,0.2,0.4,1.86660877765548,1.86660877765548,750,1,0,congruent,0,1249.58673233233,3938.82717201792
6,104,1,124,0.5,0.5,0.5,2,3,0.4,2,749,1,1,749,1,0,0.2,NaN,0.794898257007026,0.794898257007026,750,0,0,incongruent,1,2190.64083682015,2567.69145256517
6,104,1,125,0.5,0.5,-0.5,1,1,0.6,1,569,1,1,569,1,0,0.6,NaN,-0.482637462971268,-0.482637462971268,750,1,0,congruent,1,2277.43878841493,5925.08688542796
6,104,1,127,-0.5,-0.5,-0.5,3,3,0.6,3,508,1,1,508,1,0,0.8,0.4,-0.915580123630579,-0.915580123630579,750,1,0,congruent,0.1,975.415460256599,1797.89478654982
6,104,1,128,0.5,-0.5,-0.5,4,4,0.6,3,795,0,0,NaN,1,0,1,NaN,1.12137960766815,NaN,750,0,1,congruent,1,7824.10934585608,3936.73156792431
6,104,1,129,0.5,-0.5,-0.5,3,3,0.6,3,564,1,1,564,1,0,1.4,NaN,-0.518124566303999,-0.518124566303999,750,1,0,congruent,1,2785.90981821098,1455.37251831912
6,104,1,130,0.5,-0.5,0,4,NaN,0.6,4,772,1,0,772,1,0,1.4,NaN,0.958138932337586,0.958138932337586,750,0,0,neutral,1,2412.72486288672,12975.2783121078
6,104,1,131,-0.5,0.5,0.5,1,2,0.6,1,609,1,1,609,1,0,1.4,0.6,-0.198740636309425,-0.198740636309425,750,0,0,incongruent,0.1,1807.73462294171,3198.00814552641
6,104,1,132,0.5,0.5,0.5,4,3,0.8,2,611,0,1,NaN,0,0,1.6,NaN,-0.184545794976333,NaN,750,0,1,incongruent,0,1432.48939309805,778.505957434945
6,104,1,133,0.5,-0.5,0.5,1,4,0.6,1,719,1,1,719,0,0,1.4,NaN,0.581975637010643,0.581975637010643,750,0,0,incongruent,0,2952.64408289973,1356.99405223153
6,104,1,134,0.5,-0.5,0.5,3,2,0.6,1,979,0,0,NaN,1,0,1,NaN,2.42730501031262,NaN,750,0,1,incongruent,1,7387.00273873858,6292.66883661295
6,104,1,135,-0.5,0.5,0.5,4,1,0.6,3,615,0,1,NaN,0,0,1,0.6,-0.156156112310149,NaN,750,0,1,incongruent,0,5151.08721629687,2446.41161641609
6,104,1,136,-0.5,-0.5,-0.5,2,2,0.4,2,733,1,1,733,0,0,0.6,0.6,0.681339526342289,0.681339526342289,750,1,0,congruent,0,1097.34695389096,4237.43589281684
6,104,1,137,0.5,0.5,0.5,4,3,0.4,4,826,1,0,826,0,0,0.4,NaN,1.34139964833107,1.34139964833107,750,0,0,incongruent,0,4308.08332312406,1999.63070334353
6,104,1,138,-0.5,0.5,0.5,3,4,0.2,3,896,1,0,896,0,0,0.4,0.6,1.8382190949893,1.8382190949893,750,0,0,incongruent,0,704.060200521008,9111.10630194138
6,104,1,139,0.5,0.5,0,2,NaN,0.2,2,621,1,1,621,1,0,0.4,NaN,-0.113571588310872,-0.113571588310872,750,0,0,neutral,1,1627.4700684641,1007.60532559463
6,104,1,140,-0.5,-0.5,-0.5,1,1,0.2,1,657,1,1,657,0,0,0.4,0.6,0.141935555684787,0.141935555684787,750,1,0,congruent,0,1247.6830403102,1206.37420408887
6,104,1,141,0.5,-0.5,-0.5,2,2,0.2,2,800,1,0,800,0,0,0.4,NaN,1.15686671100088,1.15686671100088,750,1,0,congruent,0,3073.96693955962,641.778709312365
6,104,1,142,-0.5,-0.5,0,4,NaN,0.2,4,557,1,1,557,0,0,0.4,0.4,-0.567806510969821,-0.567806510969821,750,0,0,neutral,0,4372.49186892372,1327.67484670358
6,104,1,143,-0.5,-0.5,-0.5,1,1,0.2,1,769,1,0,769,0,0,0.4,0.2,0.936846670337947,0.936846670337947,750,1,0,congruent,0,3612.30108543994,2829.15969551041
6,104,1,144,0.5,0.5,0,3,NaN,0.2,4,630,0,1,NaN,0,0,0.4,NaN,-0.0496948023119574,NaN,750,0,1,neutral,0,2538.42620961824,3616.9345034911
6,104,1,145,-0.5,-0.5,0.5,1,2,0.2,2,980,0,0,NaN,0,0,0,0.2,2.43440243097917,NaN,750,1,0,incongruent,0,1291.46263279879,7475.2227166268
6,104,1,146,-0.5,0.5,0.5,3,4,0.2,4,889,0,0,NaN,0,0,0,0.4,1.78853715032348,NaN,750,1,0,incongruent,0,9121.98204022769,2222.10852600258
6,104,1,148,0.5,0.5,0,3,NaN,0.2,1,627,0,1,NaN,0,0,0,NaN,-0.0709870643115957,NaN,750,0,1,neutral,0,4091.95436745065,2032.72630651886
6,104,1,149,-0.5,0.5,-0.5,4,4,0.2,3,787,0,0,NaN,0,0,0,0.2,1.06460024233578,NaN,750,0,1,congruent,0,7409.01179746758,6644.82960255466
6,104,1,150,-0.5,-0.5,0,2,NaN,0.2,2,670,1,1,670,0,0,0,0,0.234202024349886,0.234202024349886,750,0,0,neutral,0,3150.74167448956,4661.78140227313
6,104,2,151,0.5,0.5,-0.5,1,1,0.2,1,715,1,1,715,1,0,0,NaN,0.553585954344459,0.553585954344459,750,1,0,congruent,1,1443.65567980671,2955.88792330011
6,104,2,152,0.5,0.5,0,4,NaN,0.2,4,597,1,1,597,1,0,0.4,NaN,-0.283909684307978,-0.283909684307978,750,0,0,neutral,1,4270.42591987783,4117.88856290975
6,104,2,153,0.5,-0.5,-0.5,3,3,0.4,3,875,1,0,875,0,0,0.8,NaN,1.68917326099183,1.68917326099183,750,1,0,congruent,0,2232.80402502428,2738.22813107872
6,104,2,154,0.5,-0.5,0.5,4,2,0.4,3,885,0,0,NaN,1,0,0.8,NaN,1.76014746765729,NaN,750,0,1,incongruent,1,5864.56186568299,8107.72252453232
6,104,2,155,0.5,-0.5,0.5,2,1,0.4,2,681,1,1,681,0,0,1.2,NaN,0.312273651681893,0.312273651681893,750,0,0,incongruent,0,710.704371333898,5961.25539289843
6,104,2,156,-0.5,-0.5,-0.5,4,4,0.4,2,733,0,1,NaN,0,0,1.2,0,0.681339526342289,NaN,750,0,1,congruent,0,1968.96339356686,608.60789317415
6,104,2,157,-0.5,0.5,0,3,NaN,0.4,4,824,0,0,NaN,0,0,0.8,0.2,1.32720480699798,NaN,750,0,1,neutral,0,8020.56762770912,3178.91336910836
6,104,2,158,-0.5,0.5,-0.5,2,2,0.4,2,771,1,0,771,0,0,0.4,0,0.95104151167104,0.95104151167104,750,1,0,congruent,0,2179.91411961027,497.683212929703
6,104,2,159,0.5,-0.5,0,1,NaN,0.4,1,662,1,1,662,0,0,0.4,NaN,0.177422659017517,0.177422659017517,750,0,0,neutral,0,4312.05499901882,1739.52092614313
6,104,2,160,0.5,0.5,0.5,3,4,0.4,3,739,1,1,739,1,0,0,NaN,0.723924050341565,0.723924050341565,750,0,0,incongruent,1,2195.47722171485,2207.32160599159
6,104,2,161,0.5,-0.5,-0.5,2,2,0.6,2,639,1,1,639,1,0,0.4,NaN,0.0141819836869573,0.0141819836869573,750,1,0,congruent,1,5118.75458377995,2500.61573286577
6,104,2,162,-0.5,-0.5,-0.5,4,4,0.6,4,605,1,1,605,1,0,0.8,0,-0.227130318975609,-0.227130318975609,750,1,0,congruent,0.1,1965.40938235949,1662.05565799431
6,104,2,163,-0.5,0.5,-0.5,2,2,0.6,2,680,1,1,680,1,0,1,0,0.305176231015346,0.305176231015346,750,1,0,congruent,0.1,891.456935982501,3062.34028259435
6,104,2,164,-0.5,0.5,0.5,4,1,0.6,4,664,1,1,664,1,0,1.2,0.2,0.191617500350609,0.191617500350609,750,0,0,incongruent,0.1,912.506973865445,3950.01878301302
6,104,2,165,-0.5,-0.5,0,2,NaN,0.6,2,588,1,1,588,1,0,1.4,0.2,-0.347786470306893,-0.347786470306893,750,0,0,neutral,0.1,5850.83169608549,2279.28948769265
6,104,2,166,0.5,-0.5,-0.5,3,3,0.6,3,728,1,1,728,0,0,1.2,NaN,0.645852423009558,0.645852423009558,750,1,0,congruent,0,1829.20037394681,2686.54763276218
6,104,2,167,0.5,0.5,0.5,2,1,0.6,2,590,1,1,590,1,0,0.8,NaN,-0.333591628973801,-0.333591628973801,750,0,0,incongruent,1,2459.85603723351,1710.65106054874
6,104,2,168,0.5,0.5,0,3,NaN,0.8,3,516,1,1,516,1,0,1,NaN,-0.85880075829821,-0.85880075829821,750,0,0,neutral,1,5573.88154489159,1603.26010207084
6,104,2,169,-0.5,0.5,-0.5,2,2,1,3,489,0,1,NaN,0,0,1.2,0.4,-1.05043111629495,NaN,750,0,1,congruent,0,11012.2562020384,1045.75750722783
6,104,2,170,0.5,-0.5,0.5,1,4,0.8,1,791,1,0,791,1,0,1,NaN,1.09298992500196,1.09298992500196,750,0,0,incongruent,1,2516.60034826949,8928.39726608256
6,104,2,171,0.5,-0.5,0,4,NaN,0.8,2,594,0,1,NaN,1,0,1.2,NaN,-0.305201946307616,NaN,750,0,1,neutral,1,4970.28129069465,770.522068032901
6,104,2,172,0.5,-0.5,0.5,3,4,0.8,3,722,1,1,722,1,0,1.6,NaN,0.603267899010282,0.603267899010282,750,0,0,incongruent,1,4027.9968107323,5892.14132834004
6,104,2,173,0.5,-0.5,0.5,2,3,0.8,2,595,1,1,595,1,0,1.6,NaN,-0.29810452564107,-0.29810452564107,750,0,0,incongruent,1,3223.95499239745,1101.3715001696
6,104,2,174,0.5,-0.5,0,4,NaN,0.8,3,674,0,1,NaN,1,0,1.6,NaN,0.26259170701607,NaN,750,0,1,neutral,1,2082.55591865082,909.801072037774
6,104,2,175,0.5,0.5,-0.5,3,3,0.8,2,600,0,1,NaN,0,0,2,NaN,-0.26261742230834,NaN,750,0,1,congruent,0,1339.98210049802,1437.13162352261
6,104,2,176,-0.5,0.5,0.5,2,4,0.6,2,678,1,1,678,1,0,1.6,0.4,0.290981389682254,0.290981389682254,750,0,0,incongruent,0.1,3474.99783766783,2487.79424686815
6,104,2,177,0.5,0.5,-0.5,1,1,0.6,1,376,1,1,376,1,0,1.4,NaN,-1.85243965161466,-1.85243965161466,750,1,0,congruent,1,2094.72880281252,1533.6466328958
6,104,2,178,0.5,-0.5,0,4,NaN,0.6,3,716,0,1,NaN,1,0,1.4,NaN,0.560683375011005,NaN,750,0,1,neutral,1,4791.64695804712,4250.71339251928
6,104,2,179,0.5,0.5,-0.5,3,3,0.6,2,513,0,1,NaN,0,0,1.4,NaN,-0.880093020297849,NaN,750,0,1,congruent,0,3290.27361229006,2588.29454421877
6,104,2,180,0.5,-0.5,0,4,NaN,0.4,3,730,0,1,NaN,0,0,1,NaN,0.66004726434265,NaN,750,0,1,neutral,0,2861.85797210481,4518.13268196656
6,104,2,181,-0.5,0.5,0.5,2,1,0.4,2,508,1,1,508,1,0,1,0.6,-0.915580123630579,-0.915580123630579,750,0,0,incongruent,0.1,803.734956117734,3591.21707228577
6,104,2,182,-0.5,-0.5,-0.5,3,3,0.6,4,627,0,1,NaN,0,0,1,0.4,-0.0709870643115957,NaN,750,0,1,congruent,0,2044.49339188062,3112.43581528412
6,104,2,183,0.5,0.5,0.5,1,4,0.6,1,422,1,1,422,1,0,0.6,NaN,-1.52595830095354,-1.52595830095354,750,0,0,incongruent,1,4984.20690934534,216.539807511137
6,104,2,184,0.5,0.5,0,3,NaN,0.8,3,564,1,1,564,1,0,0.6,NaN,-0.518124566303999,-0.518124566303999,750,0,0,neutral,1,3239.55767416347,1910.97340684609
6,104,2,185,0.5,-0.5,-0.5,1,1,0.8,1,625,1,1,625,0,0,1,NaN,-0.0851819056446878,-0.0851819056446878,750,1,0,congruent,0,1257.92921695971,792.877628007292
6,104,2,186,0.5,0.5,0.5,3,2,0.8,3,567,1,1,567,1,0,1,NaN,-0.49683230430436,-0.49683230430436,750,0,0,incongruent,1,6146.78370801182,1596.08682546228
6,104,2,187,0.5,-0.5,-0.5,1,1,0.8,1,431,1,1,431,1,0,1.2,NaN,-1.46208151495463,-1.46208151495463,750,1,0,congruent,1,3396.52289102065,1573.53560468525
6,104,2,188,-0.5,-0.5,0.5,4,2,0.8,4,545,1,1,545,1,0,1.6,0.4,-0.652975558968374,-0.652975558968374,750,0,0,incongruent,0.1,400.637314658557,2345.53725360882
6,104,2,189,-0.5,0.5,0,3,NaN,0.8,3,546,1,1,546,1,0,1.4,0.8,-0.645878138301828,-0.645878138301828,750,0,0,neutral,0.1,2811.3032612954,4422.44532293015
6,104,2,190,-0.5,-0.5,-0.5,1,1,1,1,392,1,1,392,1,0,1.2,0.6,-1.73888092094992,-1.73888092094992,750,1,0,congruent,0.1,769.085076365109,2594.72851741943
6,104,2,191,0.5,-0.5,0.5,3,2,1,2,513,0,1,NaN,1,0,1.4,NaN,-0.880093020297849,NaN,750,1,0,incongruent,1,5847.15005952466,6698.20383775931
6,104,2,192,0.5,0.5,-0.5,4,4,1,3,610,0,1,NaN,0,0,1.4,NaN,-0.191643215642879,NaN,750,0,1,congruent,0,2575.34021341117,5529.00328379419
6,104,2,193,-0.5,-0.5,0,1,NaN,0.8,2,462,0,1,NaN,1,0,1,0.8,-1.2420614742917,NaN,750,0,1,neutral,0.1,4560.75889148718,1367.92154628638
6,104,2,194,-0.5,0.5,-0.5,3,3,0.8,4,503,0,1,NaN,0,0,1,0.8,-0.951067226963309,NaN,750,0,1,congruent,0,2933.68699848776,2432.12474675286
6,104,2,195,0.5,-0.5,0,2,NaN,0.6,2,528,1,1,528,0,0,0.8,NaN,-0.773631710299657,-0.773631710299657,750,0,0,neutral,0,2851.14304105927,954.901125729647
6,104,2,196,-0.5,-0.5,-0.5,4,4,0.6,3,280,0,1,NaN,1,0,0.6,0.8,-2.53379203560308,NaN,750,0,1,congruent,0.1,3300.24343198258,1671.8221492853
6,104,2,197,-0.5,-0.5,0.5,3,1,0.6,2,303,0,1,NaN,1,0,0.4,0.8,-2.37055136027252,NaN,750,0,1,incongruent,0.1,2114.27223377608,853.390165386576
6,104,2,198,-0.5,-0.5,-0.5,2,2,0.6,3,480,0,1,NaN,0,0,0.6,1,-1.11430790229387,NaN,750,0,1,congruent,0,1515.86402730471,2624.91769480023
6,104,2,199,0.5,0.5,-0.5,3,3,0.6,3,564,1,1,564,1,0,0.4,NaN,-0.518124566303999,-0.518124566303999,750,1,0,congruent,1,2561.047090831,833.116656834566
6,104,2,200,0.5,-0.5,0,4,NaN,0.6,2,557,0,1,NaN,0,0,0.8,NaN,-0.567806510969821,NaN,750,0,1,neutral,0,2177.88950202556,3735.50953610696
6,104,2,201,-0.5,0.5,-0.5,3,3,0.6,3,590,1,1,590,1,0,0.8,0.6,-0.333591628973801,-0.333591628973801,750,1,0,congruent,0.1,1288.97082034111,3151.64789625865
6,104,2,202,-0.5,-0.5,0,1,NaN,0.6,2,509,0,1,NaN,1,0,0.8,0.8,-0.908482702964033,NaN,750,0,1,neutral,0.1,3250.55369838817,2467.71352666996
6,104,2,203,0.5,-0.5,0.5,2,3,0.6,3,542,0,1,NaN,1,0,0.8,NaN,-0.674267820968012,NaN,750,1,0,incongruent,1,5860.43239265695,1118.00638334247
6,104,2,204,0.5,-0.5,-0.5,1,1,0.6,2,512,0,1,NaN,0,0,1.2,NaN,-0.887190440964395,NaN,750,0,1,congruent,0,918.221576103506,1825.14712818576
6,104,2,206,-0.5,-0.5,-0.5,3,3,0.4,3,468,1,1,468,1,0,0.8,0.8,-1.19947695029242,-1.19947695029242,750,1,0,congruent,0.1,840.546911483557,3301.83872785157
6,104,2,207,-0.5,-0.5,0.5,2,1,0.4,3,266,0,1,NaN,1,0,0.8,0.8,-2.63315592493473,NaN,750,0,1,incongruent,0.1,2234.32192941891,1052.50925918722
6,104,2,208,0.5,-0.5,0,1,NaN,0.4,1,453,1,1,453,0,0,0.8,NaN,-1.30593826029061,-1.30593826029061,750,0,0,neutral,0,1444.88874977518,2031.15318715097
6,104,2,209,-0.5,0.5,-0.5,3,3,0.4,3,634,1,1,634,1,0,0.4,0.6,-0.0213051196457731,-0.0213051196457731,750,1,0,congruent,0.1,1812.6727996917,1746.51253817464
6,104,2,210,-0.5,0.5,0.5,4,2,0.6,3,589,0,1,NaN,0,0,0.6,0.6,-0.340689049640347,NaN,750,0,1,incongruent,0,4175.2854741451,3899.33609535234
6,104,2,211,0.5,0.5,0.5,1,4,0.6,1,728,1,1,728,1,0,0.6,NaN,0.645852423009558,0.645852423009558,750,0,0,incongruent,1,1937.70074341028,6108.2660575233
6,104,2,212,0.5,0.5,-0.5,3,3,0.6,3,555,1,1,555,1,0,0.8,NaN,-0.582001352302913,-0.582001352302913,750,1,0,congruent,1,1134.44968529813,1754.68950726755
6,104,2,213,0.5,0.5,-0.5,4,4,0.6,3,631,0,1,NaN,0,0,1,NaN,-0.0425973816454114,NaN,750,0,1,congruent,0,4157.63126737243,1784.44922056604
6,104,2,214,-0.5,0.5,0,3,NaN,0.6,2,701,0,1,NaN,0,0,1,0.4,0.454222065012814,NaN,750,0,1,neutral,0,2153.33510416555,4765.93449425189
6,104,2,215,0.5,0.5,0.5,1,4,0.4,1,589,1,1,589,1,0,0.8,NaN,-0.340689049640347,-0.340689049640347,750,0,0,incongruent,1,709.261157648118,1143.44604117421
6,104,2,216,0.5,-0.5,-0.5,2,2,0.6,2,607,1,1,607,1,0,1.2,NaN,-0.212935477642517,-0.212935477642517,750,1,0,congruent,1,369.471444432001,1877.97736576472
6,104,2,217,0.5,0.5,-0.5,1,1,0.6,1,619,1,1,619,1,0,1.2,NaN,-0.127766429643964,-0.127766429643964,750,1,0,congruent,1,5009.13808693825,1576.16288490533
6,104,2,218,-0.5,-0.5,0,3,NaN,0.6,3,372,1,1,372,1,0,1.2,0.8,-1.88082933428085,-1.88082933428085,750,0,0,neutral,0.1,3006.39201860642,1043.36809454202
6,104,2,219,-0.5,-0.5,-0.5,1,1,0.6,2,524,0,1,NaN,0,0,1.4,0.8,-0.802021392965842,NaN,750,0,1,congruent,0,5792.63891048638,2098.08634379601
6,104,2,220,0.5,-0.5,-0.5,3,3,0.6,3,617,1,1,617,1,0,1.4,NaN,-0.141961270977056,-0.141961270977056,750,1,0,congruent,1,1490.41318594664,2376.71714884928
6,104,2,221,0.5,-0.5,-0.5,2,2,0.6,2,597,1,1,597,1,0,1.4,NaN,-0.283909684307978,-0.283909684307978,750,1,0,congruent,1,1038.93789187514,2764.30438121218
6,104,2,222,-0.5,-0.5,0.5,4,1,0.6,2,563,0,1,NaN,1,0,1.4,0.8,-0.525221986970545,NaN,750,0,1,incongruent,0.1,3505.49040962141,1792.00819625973
6,104,2,223,-0.5,-0.5,0.5,1,2,0.6,3,503,0,1,NaN,1,0,1.2,0.8,-0.951067226963309,NaN,750,0,1,incongruent,0.1,2749.39397518572,4525.03419044426
6,104,2,224,-0.5,-0.5,-0.5,3,3,0.6,3,695,1,1,695,1,0,1.2,0.8,0.411637541013538,0.411637541013538,750,1,0,congruent,0.1,6373.24962093151,3347.26396692301
6,104,2,225,-0.5,0.5,0,1,NaN,0.6,1,473,1,1,473,1,0,1.4,0.4,-1.16398984695969,-1.16398984695969,750,0,0,neutral,0.1,2920.93132223085,1180.57754682992
6,104,2,226,0.5,-0.5,0.5,2,3,0.6,2,579,1,1,579,1,0,1.2,NaN,-0.411663256305807,-0.411663256305807,750,0,0,incongruent,1,3498.52953736611,3180.47724040803
6,104,2,227,0.5,-0.5,0.5,4,1,0.6,3,487,0,1,NaN,0,0,1.2,NaN,-1.06462595762805,NaN,750,0,1,incongruent,0,3094.21238044649,685.518924345367
6,104,2,228,-0.5,-0.5,0.5,1,3,0.6,1,405,1,1,405,1,0,1,0.8,-1.64661445228482,-1.64661445228482,750,0,0,incongruent,0.1,5189.24504908646,1936.69166238471
6,104,2,229,0.5,-0.5,-0.5,2,2,0.6,2,620,1,1,620,1,0,1,NaN,-0.120669008977418,-0.120669008977418,750,1,0,congruent,1,2483.52139722072,2035.58990178475
6,104,2,230,0.5,0.5,0,3,NaN,0.6,3,720,1,1,720,1,0,1.2,NaN,0.58907305767719,0.58907305767719,750,0,0,neutral,1,958.233225992483,2634.07159312514
6,104,2,231,0.5,-0.5,0.5,2,3,0.8,2,577,1,1,577,1,0,1.4,NaN,-0.4258580976389,-0.4258580976389,750,0,0,incongruent,1,2671.92548913293,3237.28286594192
6,104,2,232,0.5,-0.5,0.5,1,2,0.8,1,492,1,1,492,1,0,1.4,NaN,-1.02913885429532,-1.02913885429532,750,0,0,incongruent,1,3393.22809227558,1690.49913553572
6,104,2,233,0.5,0.5,-0.5,3,3,0.8,3,468,1,1,468,1,0,1.8,NaN,-1.19947695029242,-1.19947695029242,750,1,0,congruent,1,834.212221660817,2884.05623323137
6,104,2,234,-0.5,0.5,0.5,4,1,1,4,769,1,0,769,0,0,2,0.4,0.936846670337947,0.936846670337947,750,0,0,incongruent,0,4630.87102740226,3830.29345079554
6,104,2,235,-0.5,0.5,0.5,3,4,0.8,3,712,1,1,712,1,0,1.6,0.4,0.532293692344821,0.532293692344821,750,0,0,incongruent,0.1,1599.1138170675,2302.64709954953
6,104,2,236,0.5,-0.5,0,4,NaN,0.8,2,591,0,1,NaN,1,0,1.4,NaN,-0.326494208307255,NaN,750,0,1,neutral,1,8884.52446807234,3701.3552193629
6,104,2,237,0.5,-0.5,-0.5,1,1,0.8,1,463,1,1,463,1,0,1.4,NaN,-1.23496405362515,-1.23496405362515,750,1,0,congruent,1,5531.30279569243,1817.69005983689
6,104,2,238,-0.5,-0.5,0,4,NaN,0.8,3,686,0,1,NaN,1,0,1.4,0.8,0.347760755014623,NaN,750,0,1,neutral,0.1,1507.2482206471,734.803314244593
6,104,2,239,0.5,-0.5,0.5,3,1,0.8,2,590,0,1,NaN,1,0,1.2,NaN,-0.333591628973801,NaN,750,0,1,incongruent,1,545.505902486546,1448.31942926223
6,104,2,240,-0.5,-0.5,-0.5,4,4,0.8,3,669,0,1,NaN,0,0,1.6,1,0.22710460368334,NaN,750,0,1,congruent,0,1413.60527295879,1263.45600878031
6,104,2,241,-0.5,0.5,-0.5,3,3,0.8,3,713,1,1,713,1,0,1.4,0.4,0.539391113011367,0.539391113011367,750,1,0,congruent,0.1,1501.44761969543,6316.12753625569
6,104,2,242,-0.5,-0.5,-0.5,4,4,0.8,3,692,0,1,NaN,0,0,1.2,0.8,0.390345279013899,NaN,750,0,1,congruent,0,4034.71609827119,6762.97475876433
6,104,2,243,0.5,0.5,0,2,NaN,0.8,2,589,1,1,589,1,0,0.8,NaN,-0.340689049640347,-0.340689049640347,750,0,0,neutral,1,2458.01237524235,3162.18858579119
6,104,2,244,0.5,-0.5,-0.5,3,3,0.8,3,612,1,1,612,1,0,1,NaN,-0.177448374309787,-0.177448374309787,750,1,0,congruent,1,6912.00249952719,1404.33438957731
6,104,2,245,-0.5,0.5,-0.5,1,1,0.8,2,627,0,1,NaN,0,0,1,0.6,-0.0709870643115957,NaN,750,0,1,congruent,0,2073.5442410927,2454.68427531126
6,104,2,246,0.5,-0.5,0,4,NaN,0.6,3,716,0,1,NaN,0,0,1,NaN,0.560683375011005,NaN,750,0,1,neutral,0,3957.95218327894,3949.84267860468
6,104,2,247,-0.5,0.5,0.5,3,1,0.6,3,853,1,0,853,0,0,0.8,0.6,1.53303000632782,1.53303000632782,750,0,0,incongruent,0,1900.97388784688,2288.56698157261
6,104,2,248,-0.5,0.5,-0.5,4,4,0.6,3,559,0,1,NaN,0,0,0.8,0.4,-0.553611669636729,NaN,750,0,1,congruent,0,7499.61142271394,1402.73655452702
6,104,2,249,0.5,-0.5,-0.5,3,3,0.4,3,587,1,1,587,1,0,0.4,NaN,-0.354883890973439,-0.354883890973439,750,1,0,congruent,1,6516.68612042472,1591.25594132376
6,104,2,250,0.5,0.5,0,1,NaN,0.4,1,451,1,1,451,1,0,0.4,NaN,-1.32013310162371,-1.32013310162371,750,0,0,neutral,1,3097.7219954072,1246.50301653129
6,104,2,251,-0.5,-0.5,0.5,4,2,0.4,2,608,0,1,NaN,1,0,0.8,0.6,-0.205838056975971,NaN,750,1,0,incongruent,0.1,2525.67395949638,1988.38393317036
6,104,2,252,0.5,-0.5,-0.5,1,1,0.4,1,555,1,1,555,0,0,1,NaN,-0.582001352302913,-0.582001352302913,750,1,0,congruent,0,1275.49714416822,1157.58533338958
6,104,2,253,0.5,-0.5,0,3,NaN,0.4,2,635,0,1,NaN,0,0,1,NaN,-0.0142076989792271,NaN,750,0,1,neutral,0,2024.23992828765,2353.22000945654
6,104,2,254,0.5,-0.5,-0.5,1,1,0.4,1,668,1,1,668,1,0,1,NaN,0.220007183016794,0.220007183016794,750,1,0,congruent,1,2953.84971727553,1420.14525283975
6,104,2,255,0.5,0.5,0,4,NaN,0.4,3,713,0,1,NaN,0,0,1,NaN,0.539391113011367,NaN,750,0,1,neutral,0,2571.34667017418,4736.65274979842
6,104,2,256,0.5,-0.5,-0.5,3,3,0.2,3,612,1,1,612,0,0,0.6,NaN,-0.177448374309787,-0.177448374309787,750,1,0,congruent,0,2523.61760870191,4857.80736590055
6,104,2,257,0.5,-0.5,0.5,2,4,0.2,2,487,1,1,487,0,0,0.4,NaN,-1.06462595762805,-1.06462595762805,750,0,0,incongruent,0,1816.39868566801,1923.60067607422
6,104,2,258,0.5,0.5,-0.5,3,3,0.2,2,622,0,1,NaN,0,0,0.4,NaN,-0.106474167644326,NaN,750,0,1,congruent,0,2091.14635867256,3286.61382125346
6,104,2,259,0.5,-0.5,0,1,NaN,0.2,1,543,1,1,543,0,0,0.4,NaN,-0.667170400301466,-0.667170400301466,750,0,0,neutral,0,3211.8527521278,1518.67536211242
6,104,2,260,0.5,-0.5,0.5,2,3,0.2,2,578,1,1,578,0,0,0,NaN,-0.418760676972353,-0.418760676972353,750,0,0,incongruent,0,3058.38001110223,4701.30112002435
6,104,2,261,-0.5,0.5,-0.5,1,1,0.2,1,549,1,1,549,1,0,0,0.4,-0.62458587630219,-0.62458587630219,750,1,0,congruent,0.1,727.177768152288,1119.12685908567
6,104,2,262,-0.5,-0.5,0.5,4,3,0.4,3,582,0,1,NaN,0,0,0.2,0.6,-0.390370994306169,NaN,750,1,0,incongruent,0,1191.31470877154,6770.61521589132
6,104,2,263,-0.5,0.5,0.5,2,4,0.4,2,555,1,1,555,1,0,0.2,0.4,-0.582001352302913,-0.582001352302913,750,0,0,incongruent,0.1,2791.49895826563,2406.88731487307
6,104,2,264,0.5,-0.5,0.5,3,2,0.6,3,775,1,0,775,0,0,0.4,NaN,0.979431194337224,0.979431194337224,750,0,0,incongruent,0,2471.70236906198,996.778588563908
6,104,2,265,0.5,-0.5,0,2,NaN,0.6,2,658,1,1,658,1,0,0.4,NaN,0.149032976351333,0.149032976351333,750,0,0,neutral,1,584.764355171461,8302.10595241997
6,104,2,266,-0.5,-0.5,-0.5,4,4,0.6,4,869,1,0,869,1,0,0.8,0.4,1.64658873699256,1.64658873699256,750,1,0,congruent,0.1,1440.0181280901,11871.1694908992
6,104,2,267,0.5,0.5,0.5,2,3,0.6,2,442,1,1,442,1,0,0.8,NaN,-1.38400988762262,-1.38400988762262,750,0,0,incongruent,1,5744.67290172362,3462.05181205243
6,104,2,268,-0.5,-0.5,-0.5,1,1,0.6,1,673,1,1,673,1,0,1.2,0.4,0.255494286349524,0.255494286349524,750,1,0,congruent,0.1,1490.36067554596,2511.70034086697
6,104,2,269,0.5,-0.5,0.5,4,3,0.6,2,811,0,0,NaN,1,0,1.2,NaN,1.23493833833288,NaN,750,0,1,incongruent,1,2681.75468813455,726.319764920255
6,104,2,270,-0.5,-0.5,0.5,1,4,0.6,1,704,1,1,704,0,0,1.6,0.6,0.475514327012452,0.475514327012452,750,0,0,incongruent,0,606.73808035942,2026.60183936286
6,104,2,271,-0.5,0.5,-0.5,3,3,0.6,3,603,1,1,603,1,0,1.2,0.4,-0.241325160308702,-0.241325160308702,750,1,0,congruent,0.1,1876.18029588512,1244.19554834087
6,104,2,272,-0.5,-0.5,0.5,4,2,0.8,2,830,0,0,NaN,1,0,1.2,0.6,1.36978933099726,NaN,750,1,0,incongruent,0.1,4999.47249211875,3146.50244995558
6,104,2,273,-0.5,0.5,-0.5,1,1,0.8,1,583,1,1,583,1,0,1,0.6,-0.383273573639623,-0.383273573639623,750,1,0,congruent,0.1,3405.28145927165,1309.33700135837
6,104,2,274,-0.5,-0.5,0.5,2,4,1,2,646,1,1,646,1,0,1,0.6,0.0638639283527798,0.0638639283527798,750,0,0,incongruent,0.1,1848.65121984876,1856.14251181571
6,104,2,275,0.5,-0.5,-0.5,3,3,1,2,738,0,1,NaN,1,0,0.8,NaN,0.716826629675019,NaN,750,0,1,congruent,1,7164.75848438995,1260.14512199904
6,104,2,276,0.5,0.5,0,4,NaN,1,2,615,0,1,NaN,0,0,1.2,NaN,-0.156156112310149,NaN,750,0,1,neutral,0,1332.79224477507,4548.70444927618
6,104,2,277,0.5,0.5,-0.5,3,3,0.8,3,559,1,1,559,1,0,1,NaN,-0.553611669636729,-0.553611669636729,750,1,0,congruent,1,3831.06091478902,2881.9066122157
6,104,2,278,0.5,-0.5,0.5,2,4,0.8,2,734,1,1,734,1,0,1.2,NaN,0.688436947008835,0.688436947008835,750,0,0,incongruent,1,3056.68711431984,7474.03799058116
6,104,2,279,0.5,0.5,0,1,NaN,0.8,2,535,0,1,NaN,0,0,1.4,NaN,-0.723949765633835,NaN,750,0,1,neutral,0,3893.10349946126,5196.95743846081
6,104,2,280,-0.5,0.5,0.5,3,1,0.6,3,896,1,0,896,0,0,1.2,0.8,1.8382190949893,1.8382190949893,750,0,0,incongruent,0,2592.24357894825,11587.721921736
6,104,2,281,-0.5,-0.5,-0.5,2,2,0.4,2,630,1,1,630,0,0,0.8,0.8,-0.0496948023119574,-0.0496948023119574,750,1,0,congruent,0,481.61193148278,2640.0394283836
6,104,2,282,-0.5,-0.5,0.5,1,4,0.4,2,672,0,1,NaN,1,0,0.8,0.6,0.248396865682978,NaN,750,0,1,incongruent,0.1,4070.51230839414,1428.13354515335
6,104,2,283,0.5,-0.5,0.5,2,1,0.4,3,731,0,1,NaN,1,0,0.6,NaN,0.667144685009196,NaN,750,0,1,incongruent,1,1189.74784487723,782.955661975553
6,104,2,284,-0.5,-0.5,-0.5,4,4,0.4,2,626,0,1,NaN,0,0,0.6,0.6,-0.0780844849781418,NaN,750,0,1,congruent,0,3747.58675968009,2729.46157110198
6,104,2,285,0.5,0.5,0,2,NaN,0.4,2,709,1,1,709,1,0,0.6,NaN,0.511001430345183,0.511001430345183,750,0,0,neutral,1,4755.18043868964,1849.05844288566
6,104,2,286,0.5,-0.5,0.5,1,4,0.4,1,744,1,1,744,0,0,1,NaN,0.759411153674295,0.759411153674295,750,0,0,incongruent,0,5661.09451533666,4861.09924122566
6,104,2,287,0.5,0.5,-0.5,2,2,0.4,2,607,1,1,607,1,0,1,NaN,-0.212935477642517,-0.212935477642517,750,1,0,congruent,1,1854.59590768788,1951.65621125486
6,104,2,288,-0.5,-0.5,0.5,4,3,0.6,2,708,0,1,NaN,0,0,1.2,0.6,0.503904009678637,NaN,750,0,1,incongruent,0,2618.73953273939,2374.46125423125
6,104,2,289,0.5,0.5,0.5,3,1,0.6,3,810,1,0,810,0,0,0.8,NaN,1.22784091766634,1.22784091766634,750,0,0,incongruent,0,4109.68120844076,12204.701776659
6,104,2,290,0.5,0.5,-0.5,4,4,0.4,4,719,1,1,719,1,0,0.8,NaN,0.581975637010643,0.581975637010643,750,1,0,congruent,1,2534.15802004615,1985.62876418379
6,104,2,291,0.5,0.5,0.5,3,1,0.6,3,683,1,1,683,1,0,0.8,NaN,0.326468493014985,0.326468493014985,750,0,0,incongruent,1,5442.93238369453,1949.17016184925
6,104,2,292,-0.5,-0.5,0.5,2,4,0.8,1,781,0,0,NaN,1,0,1.2,0.4,1.0220157183365,NaN,750,0,1,incongruent,0.1,312.355766715896,3523.19682546536
6,104,2,293,-0.5,-0.5,0,1,NaN,0.8,3,464,0,1,NaN,1,0,1,0.4,-1.22786663295861,NaN,750,0,1,neutral,0.1,2636.32256335085,977.75525849572
6,104,2,294,-0.5,0.5,-0.5,3,3,0.8,2,730,0,1,NaN,0,0,1.2,0.8,0.66004726434265,NaN,750,0,1,congruent,0,1606.83840201437,3231.47205979515
6,104,2,295,0.5,0.5,0.5,4,2,0.6,2,647,0,1,NaN,0,0,1.2,NaN,0.0709613490193259,NaN,750,1,0,incongruent,0,1249.92812844228,936.601415941012
6,104,2,296,0.5,0.5,0.5,3,1,0.4,3,665,1,1,665,1,0,0.8,NaN,0.198714921017155,0.198714921017155,750,0,0,incongruent,1,1827.75678983868,2182.85099901748
6,104,2,297,-0.5,-0.5,0,4,NaN,0.6,2,628,0,1,NaN,1,0,0.8,0.6,-0.0638896436450496,NaN,750,0,1,neutral,0.1,1510.37794237226,1397.06545125838
6,104,2,298,-0.5,-0.5,-0.5,2,2,0.6,4,578,0,1,NaN,0,0,0.8,0.6,-0.418760676972353,NaN,750,0,1,congruent,0,3556.68944278594,1620.62070679659
6,104,2,299,-0.5,-0.5,0,1,NaN,0.6,2,636,0,1,NaN,1,0,0.6,0.6,-0.00711027831268097,NaN,750,0,1,neutral,0.1,5123.98481592782,1372.88267124055
6,104,2,300,0.5,0.5,-0.5,4,4,0.6,3,697,0,1,NaN,0,0,0.8,NaN,0.42583238234663,NaN,750,0,1,congruent,0,903.837723679819,3576.69778567088
6,104,3,301,0.5,-0.5,-0.5,3,3,0.4,3,708,1,1,708,1,0,0.8,NaN,0.503904009678637,0.503904009678637,750,1,0,congruent,1,618.994893988103,2253.93233933404
6,104,3,302,-0.5,0.5,0.5,2,1,0.4,2,554,1,1,554,1,0,0.8,0.6,-0.589098772969459,-0.589098772969459,750,0,0,incongruent,0.1,2171.80449501943,4347.36005499303
6,104,3,303,0.5,0.5,-0.5,3,3,0.4,3,445,1,1,445,1,0,0.8,NaN,-1.36271762562298,-1.36271762562298,750,1,0,congruent,1,7190.74096104023,1850.78175075574
6,104,3,304,-0.5,0.5,-0.5,2,2,0.6,2,590,1,1,590,1,0,1.2,0.6,-0.333591628973801,-0.333591628973801,750,1,0,congruent,0.1,1587.92434740737,3549.02688935161
6,104,3,305,-0.5,-0.5,-0.5,1,1,0.8,1,664,1,1,664,1,0,1.2,0.8,0.191617500350609,0.191617500350609,750,1,0,congruent,0.1,1806.77174328967,3839.43486829469
6,104,3,306,-0.5,0.5,-0.5,2,2,0.8,2,582,1,1,582,1,0,1.4,0.6,-0.390370994306169,-0.390370994306169,750,1,0,congruent,0.1,1862.83282769963,2666.07787218983
6,104,3,307,0.5,-0.5,0,4,NaN,0.8,3,729,0,1,NaN,1,0,1.2,NaN,0.652949843676104,NaN,750,0,1,neutral,1,4958.73811345699,5349.35274367906
6,104,3,308,-0.5,-0.5,-0.5,3,3,0.8,3,680,1,1,680,1,0,1.4,0.8,0.305176231015346,0.305176231015346,750,1,0,congruent,0.1,1426.1195525737,1450.06116815973
6,104,3,309,0.5,0.5,0.5,2,1,0.8,2,417,1,1,417,1,0,1.2,NaN,-1.56144540428627,-1.56144540428627,750,0,0,incongruent,1,5472.60235643439,880.096058777659
6,104,3,310,0.5,0.5,0.5,3,2,1,3,375,1,1,375,1,0,1.4,NaN,-1.85953707228121,-1.85953707228121,750,0,0,incongruent,1,3992.28245484834,1622.81802962218
6,104,3,311,-0.5,-0.5,-0.5,4,4,1,3,734,0,1,NaN,1,0,1.6,0.8,0.688436947008835,NaN,750,0,1,congruent,0.1,3768.03928637488,2430.52485947581
6,104,3,312,0.5,0.5,-0.5,2,2,1,2,431,1,1,431,1,0,1.6,NaN,-1.46208151495463,-1.46208151495463,750,1,0,congruent,1,12569.2196881001,2061.79660047746
6,104,3,313,-0.5,-0.5,0,1,NaN,1,1,646,1,1,646,1,0,1.6,0.8,0.0638639283527798,0.0638639283527798,750,0,0,neutral,0.1,2154.92853884835,2733.34198565649
6,104,3,314,0.5,-0.5,-0.5,2,2,1,2,664,1,1,664,1,0,1.6,NaN,0.191617500350609,0.191617500350609,750,1,0,congruent,1,518.568382666009,4936.01238670503
6,104,3,315,-0.5,0.5,0,3,NaN,1,3,759,1,0,759,0,0,1.6,0.6,0.865872463672487,0.865872463672487,750,0,0,neutral,0,3462.52491463355,4457.38707653416
6,104,3,316,0.5,0.5,-0.5,4,4,0.8,4,392,1,1,392,1,0,1.2,NaN,-1.73888092094992,-1.73888092094992,750,1,0,congruent,1,5603.52126465094,508.239987312196
6,104,3,317,0.5,0.5,0.5,3,1,0.8,3,584,1,1,584,1,0,1.4,NaN,-0.376176152973077,-0.376176152973077,750,0,0,incongruent,1,3165.52312186796,1319.69563010603
6,104,3,318,0.5,-0.5,0,4,NaN,0.8,2,873,0,0,NaN,1,0,1.4,NaN,1.67497841965874,NaN,750,0,1,neutral,1,2299.3918260196,4164.92611197465
6,104,3,319,0.5,0.5,-0.5,1,1,0.8,1,712,1,1,712,1,0,1.6,NaN,0.532293692344821,0.532293692344821,750,1,0,congruent,1,1271.30656264687,1419.78243077949
6,104,3,320,-0.5,-0.5,-0.5,4,4,0.8,4,685,1,1,685,1,0,1.6,1,0.340663334348077,0.340663334348077,750,1,0,congruent,0.1,1417.10924407542,2074.80280062493
6,104,3,321,-0.5,0.5,0.5,1,2,0.8,1,613,1,1,613,1,0,1.8,0.6,-0.170350953643241,-0.170350953643241,750,0,0,incongruent,0.1,1489.14234618137,1821.45730389147
6,104,3,322,-0.5,0.5,0.5,2,3,0.8,2,586,1,1,586,1,0,1.6,0.8,-0.361981311639985,-0.361981311639985,750,0,0,incongruent,0.1,3070.0711122724,945.285945901661
6,104,3,323,0.5,0.5,-0.5,1,1,1,1,639,1,1,639,1,0,1.4,NaN,0.0141819836869573,0.0141819836869573,750,1,0,congruent,1,603.340638086601,621.919523519288
6,104,3,324,-0.5,-0.5,-0.5,4,4,1,4,860,1,0,860,1,0,1.4,1,1.58271195099364,1.58271195099364,750,1,0,congruent,0.1,2555.17587717187,2371.74043600621
6,104,3,325,-0.5,0.5,-0.5,3,3,1,3,388,1,1,388,1,0,1.2,0.8,-1.76727060361611,-1.76727060361611,750,1,0,congruent,0.1,4129.49333748343,619.500962491428
6,104,3,326,-0.5,-0.5,0.5,2,4,1,2,640,1,1,640,1,0,1.2,1,0.0212794043535033,0.0212794043535033,750,0,0,incongruent,0.1,871.213590546164,2327.55109564746
6,104,3,327,0.5,0.5,0.5,4,1,1,3,630,0,1,NaN,0,0,1.2,NaN,-0.0496948023119574,NaN,750,0,1,incongruent,0,7969.15872964734,1303.61387719465
6,104,3,328,0.5,0.5,0,1,NaN,0.8,1,530,1,1,530,1,0,1,NaN,-0.759436868966565,-0.759436868966565,750,0,0,neutral,1,1944.80078291214,409.727522364063
6,104,3,329,0.5,-0.5,-0.5,2,2,0.8,2,572,1,1,572,1,0,1,NaN,-0.46134520097163,-0.46134520097163,750,1,0,congruent,1,3986.55914988287,826.562567718299
6,104,3,330,0.5,-0.5,-0.5,3,3,0.8,3,342,1,1,342,0,0,1.2,NaN,-2.09375195427723,-2.09375195427723,750,1,0,congruent,0,2007.67112046959,1429.53115580177
6,104,3,331,0.5,0.5,0,2,NaN,0.8,2,539,1,1,539,1,0,1,NaN,-0.695560082967651,-0.695560082967651,750,0,0,neutral,1,2783.64123386834,2130.1680220286
6,104,3,332,-0.5,-0.5,-0.5,1,1,0.8,1,616,1,1,616,1,0,1.2,1,-0.149058691643603,-0.149058691643603,750,1,0,congruent,0.1,2656.23024919766,3598.5726994536
6,104,3,333,-0.5,0.5,0,4,NaN,0.8,3,689,0,1,NaN,0,0,1.4,0.8,0.369053017014261,NaN,750,0,1,neutral,0,3945.48653779847,2468.32941427217
6,104,3,334,0.5,-0.5,-0.5,2,2,0.6,2,568,1,1,568,0,0,1,NaN,-0.489734883637814,-0.489734883637814,750,1,0,congruent,0,1251.39882011911,1412.89733970574
6,104,3,335,0.5,0.5,0,3,NaN,0.6,3,779,1,0,779,0,0,0.6,NaN,1.00782087700341,1.00782087700341,750,0,0,neutral,0,2013.70501795837,7349.87152691911
6,104,3,336,0.5,0.5,-0.5,4,4,0.4,4,372,1,1,372,1,0,0.6,NaN,-1.88082933428085,-1.88082933428085,750,1,0,congruent,1,4940.24073896243,636.098286998901
6,104,3,337,0.5,0.5,0,2,NaN,0.6,2,538,1,1,538,1,0,0.6,NaN,-0.702657503634197,-0.702657503634197,750,0,0,neutral,1,3416.03982348646,1929.97162043139
6,104,3,338,-0.5,-0.5,-0.5,1,1,0.6,2,604,0,1,NaN,1,0,0.8,1,-0.234227739642155,NaN,750,0,1,congruent,0.1,3738.6009456369,2116.27548242214
6,104,3,339,-0.5,0.5,0.5,2,4,0.6,2,714,1,1,714,1,0,1,0.6,0.546488533677913,0.546488533677913,750,0,0,incongruent,0.1,2489.265269216,2330.92312481138
6,104,3,340,-0.5,-0.5,0,4,NaN,0.6,4,620,1,1,620,1,0,1.2,1,-0.120669008977418,-0.120669008977418,750,0,0,neutral,0.1,4322.58760109624,1692.90564456458
6,104,3,341,0.5,0.5,0.5,1,2,0.6,1,573,1,1,573,1,0,1.4,NaN,-0.454247780305084,-0.454247780305084,750,0,0,incongruent,1,1548.97398125917,1005.69754282628
6,104,3,342,-0.5,0.5,-0.5,4,4,0.8,3,727,0,1,NaN,0,0,1.4,0.8,0.638755002343012,NaN,750,0,1,congruent,0,4703.00952917449,1837.67980101968
6,104,3,343,-0.5,-0.5,0,1,NaN,0.8,1,607,1,1,607,1,0,1,1,-0.212935477642517,-0.212935477642517,750,0,0,neutral,0.1,435.285190597044,1288.76334077663
6,104,3,344,-0.5,-0.5,-0.5,3,3,0.8,3,562,1,1,562,1,0,1,1,-0.532319407637091,-0.532319407637091,750,1,0,congruent,0.1,1556.80184237387,1821.37446495283
6,104,3,345,0.5,0.5,-0.5,2,2,0.8,3,482,0,1,NaN,0,0,1,NaN,-1.10011306096078,NaN,750,0,1,congruent,0,1584.46223005778,1627.51256780091
6,104,3,346,0.5,-0.5,-0.5,1,1,0.6,1,736,1,1,736,1,0,0.8,NaN,0.702631788341927,0.702631788341927,750,1,0,congruent,1,9299.44627665623,2544.52052940844
6,104,3,347,-0.5,-0.5,0.5,4,2,0.6,3,809,0,0,NaN,1,0,0.8,1,1.22074349699979,NaN,750,0,1,incongruent,0.1,5086.32698425114,2714.87002386881
6,104,3,348,0.5,0.5,0.5,3,4,0.6,3,550,1,1,550,1,0,1,NaN,-0.617488455635644,-0.617488455635644,750,0,0,incongruent,1,2596.50006038748,1568.25275940328
6,104,3,349,0.5,-0.5,0.5,1,3,0.6,1,636,1,1,636,1,0,1.2,NaN,-0.00711027831268097,-0.00711027831268097,750,0,0,incongruent,1,2791.4889446378,2900.78211076218
6,104,3,350,0.5,0.5,-0.5,4,4,0.6,4,529,1,1,529,1,0,1.4,NaN,-0.766534289633111,-0.766534289633111,750,1,0,congruent,1,898.31493256355,1672.25720052528
6,104,3,351,-0.5,0.5,0,2,NaN,0.6,2,388,1,1,388,1,0,1.8,0.6,-1.76727060361611,-1.76727060361611,750,0,0,neutral,0.1,5279.52788396128,801.896624800673
6,104,3,352,0.5,-0.5,0.5,3,4,0.6,3,624,1,1,624,0,0,1.6,NaN,-0.0922793263112339,-0.0922793263112339,750,0,0,incongruent,0,396.814484571062,3440.34255672707
6,104,3,353,-0.5,-0.5,-0.5,1,1,0.6,2,507,0,1,NaN,1,0,1.4,1,-0.922677544297125,NaN,750,0,1,congruent,0.1,2184.57639539868,5779.4852280819
6,104,3,354,0.5,-0.5,0,3,NaN,0.6,2,697,0,1,NaN,1,0,1.2,NaN,0.42583238234663,NaN,750,0,1,neutral,1,4144.58497814609,4735.08312546807
6,104,3,355,-0.5,0.5,0.5,4,1,0.6,3,749,0,1,NaN,0,0,1.2,0.6,0.794898257007026,NaN,750,0,1,incongruent,0,2759.49613375847,7124.32643676992
6,104,3,356,-0.5,-0.5,0.5,1,3,0.6,3,740,0,1,NaN,1,0,0.8,1,0.731021471008111,NaN,750,1,0,incongruent,0.1,11999.9934196422,3187.07200448239
6,104,3,357,-0.5,-0.5,0,3,NaN,0.6,1,613,0,1,NaN,0,0,0.8,1,-0.170350953643241,NaN,750,0,1,neutral,0,2178.13227173593,2741.41765662725
6,104,3,358,-0.5,-0.5,0.5,2,1,0.6,2,633,1,1,633,1,0,0.8,0.8,-0.0284025403123192,-0.0284025403123192,750,0,0,incongruent,0.1,3797.27379232982,4601.1446108979
6,104,3,359,-0.5,-0.5,0,4,NaN,0.6,4,659,1,1,659,0,0,0.8,0.8,0.156130397017879,0.156130397017879,750,0,0,neutral,0,445.517380705091,6316.61178152141
6,104,3,360,-0.5,0.5,0.5,2,3,0.6,2,378,1,1,378,1,0,0.4,0.4,-1.83824481028157,-1.83824481028157,750,0,0,incongruent,0.1,4282.21377086989,1094.53028936557
6,104,3,361,-0.5,-0.5,-0.5,4,4,0.8,3,752,0,0,NaN,1,0,0.6,0.6,0.816190519006664,NaN,750,0,1,congruent,0.1,703.580384714332,6253.838935742
6,104,3,362,0.5,-0.5,-0.5,3,3,0.8,3,618,1,1,618,1,0,0.6,NaN,-0.13486385031051,-0.13486385031051,750,1,0,congruent,1,5436.3848042285,2161.22563590928
6,104,3,363,0.5,0.5,0.5,1,4,0.8,1,353,1,1,353,1,0,1,NaN,-2.01568032694522,-2.01568032694522,750,0,0,incongruent,1,916.045112753767,525.157358410457
6,104,3,364,0.5,0.5,-0.5,2,2,0.8,2,354,1,1,354,1,0,1.2,NaN,-2.00858290627867,-2.00858290627867,750,1,0,congruent,1,7015.9417333246,1340.51596953938
6,104,3,365,-0.5,0.5,0,4,NaN,0.8,3,687,0,1,NaN,0,0,1.6,0.6,0.354858175681169,NaN,750,0,1,neutral,0,1252.67080386929,3246.95104261731
6,104,3,366,0.5,0.5,0.5,1,4,0.6,2,549,0,1,NaN,0,0,1.4,NaN,-0.62458587630219,NaN,750,0,1,incongruent,0,1259.71035367233,748.305171652009
6,104,3,367,0.5,-0.5,0.5,4,3,0.6,4,849,1,0,849,1,0,1.2,NaN,1.50464032366163,1.50464032366163,750,0,0,incongruent,1,1726.97273990423,3144.47325580712
6,104,3,368,0.5,0.5,0,2,NaN,0.6,2,551,1,1,551,1,0,1.2,NaN,-0.610391034969098,-0.610391034969098,750,0,0,neutral,1,1829.55740810331,2530.56162054378
6,104,3,369,-0.5,-0.5,0.5,1,2,0.6,1,402,1,1,402,1,0,1.2,0.6,-1.66790671428446,-1.66790671428446,750,0,0,incongruent,0.1,2976.71632529218,1241.04165098971
6,104,3,370,-0.5,0.5,0.5,3,1,0.6,3,422,1,1,422,1,0,1,0.4,-1.52595830095354,-1.52595830095354,750,0,0,incongruent,0.1,1564.33462166764,1986.53023338616
6,104,3,371,0.5,-0.5,0.5,2,4,0.6,2,471,1,1,471,1,0,1.2,NaN,-1.17818468829278,-1.17818468829278,750,0,0,incongruent,1,6721.2441084086,5658.09223644767
6,104,3,372,0.5,0.5,-0.5,3,3,0.6,3,694,1,1,694,1,0,1.6,NaN,0.404540120346992,0.404540120346992,750,1,0,congruent,1,3871.78549812475,1222.65172514975
6,104,3,373,0.5,-0.5,0,2,NaN,0.6,1,606,0,1,NaN,1,0,1.6,NaN,-0.220032898309063,NaN,750,0,1,neutral,1,963.903577751881,4572.31299677267
6,104,3,374,-0.5,-0.5,-0.5,1,1,0.6,1,667,1,1,667,1,0,1.6,0.6,0.212909762350247,0.212909762350247,750,1,0,congruent,0.1,3447.74296034755,3181.53639487847
6,104,3,375,-0.5,-0.5,0,3,NaN,0.6,3,708,1,1,708,0,0,1.6,0.8,0.503904009678637,0.503904009678637,750,0,0,neutral,0,3081.07277102196,1091.65232806211
6,104,3,376,-0.5,-0.5,0.5,2,3,0.6,2,592,1,1,592,1,0,1.4,0.6,-0.319396787640708,-0.319396787640708,750,0,0,incongruent,0.1,4766.45032475966,935.401849765565
6,104,3,377,-0.5,-0.5,0,1,NaN,0.6,1,516,1,1,516,0,0,1.2,0.8,-0.85880075829821,-0.85880075829821,750,0,0,neutral,0,332.50229929602,1718.98481789646
6,104,3,378,0.5,0.5,-0.5,3,3,0.6,3,487,1,1,487,1,0,0.8,NaN,-1.06462595762805,-1.06462595762805,750,1,0,congruent,1,921.03579192178,2053.81600542641
6,104,3,379,0.5,-0.5,0.5,4,2,0.8,4,404,1,1,404,0,0,0.8,NaN,-1.65371187295137,-1.65371187295137,750,0,0,incongruent,0,1444.67193451692,1341.41802031823
6,104,3,380,-0.5,-0.5,0,1,NaN,0.8,1,484,1,1,484,0,0,0.6,0.6,-1.08591821962768,-1.08591821962768,750,0,0,neutral,0,710.841434504789,1491.80167151673
6,104,3,381,-0.5,0.5,-0.5,3,3,0.8,3,404,1,1,404,1,0,0.6,0.6,-1.65371187295137,-1.65371187295137,750,1,0,congruent,0.1,5827.55243524014,1808.49855134199
6,104,3,382,-0.5,-0.5,-0.5,2,2,1,2,537,1,1,537,1,0,0.6,0.4,-0.709754924300743,-0.709754924300743,750,1,0,congruent,0.1,5251.23982625104,1517.42489643802
6,104,3,383,0.5,0.5,0.5,3,4,1,3,506,1,1,506,1,0,0.8,NaN,-0.929774964963671,-0.929774964963671,750,0,0,incongruent,1,1727.95687420057,1112.62613701035
6,104,3,384,-0.5,-0.5,0,4,NaN,1,4,658,1,1,658,1,0,0.8,0.4,0.149032976351333,0.149032976351333,750,0,0,neutral,0.1,1319.7760188105,2209.89694122638
6,104,3,385,-0.5,-0.5,-0.5,3,3,1,3,578,1,1,578,1,0,1,0.6,-0.418760676972353,-0.418760676972353,750,1,0,congruent,0.1,3292.41108205629,475.895157317426
6,104,3,386,-0.5,-0.5,-0.5,2,2,1,2,610,1,1,610,1,0,1.2,0.6,-0.191643215642879,-0.191643215642879,750,1,0,congruent,0.1,4604.50199985761,1617.72837739013
6,104,3,387,0.5,-0.5,0,1,NaN,1,1,495,1,1,495,1,0,1.2,NaN,-1.00784659229568,-1.00784659229568,750,0,0,neutral,1,3289.27365310625,1820.19892704382
6,104,3,388,-0.5,0.5,-0.5,4,4,1,4,569,1,1,569,1,0,1.4,0.6,-0.482637462971268,-0.482637462971268,750,1,0,congruent,0.1,1180.12906573992,1832.36099611036
6,104,3,389,-0.5,0.5,-0.5,2,2,1,2,403,1,1,403,1,0,1.2,0.8,-1.66080929361792,-1.66080929361792,750,1,0,congruent,0.1,4354.27011504711,2012.14139559664
6,104,3,390,0.5,-0.5,0,4,NaN,1,4,772,1,0,772,1,0,1.2,NaN,0.958138932337586,0.958138932337586,750,0,0,neutral,1,1390.33774898403,4819.46835683893
6,104,3,391,0.5,0.5,-0.5,3,3,1,3,352,1,1,352,1,0,1.4,NaN,-2.02277774761177,-2.02277774761177,750,1,0,congruent,1,5008.01231487203,1387.65275204104
6,104,3,392,0.5,-0.5,0.5,4,1,1,2,885,0,0,NaN,1,0,1.6,NaN,1.76014746765729,NaN,750,0,1,incongruent,1,1569.56822737328,3703.24199541027
6,104,3,393,0.5,0.5,0,1,NaN,1,2,527,0,1,NaN,0,0,1.6,NaN,-0.780729130966203,NaN,750,0,1,neutral,0,4401.34323742446,4316.62265104802
6,104,3,394,-0.5,-0.5,0.5,4,2,0.8,4,728,1,1,728,1,0,1.4,0.8,0.645852423009558,0.645852423009558,750,0,0,incongruent,0.1,1925.16015571319,1005.30168271175
6,104,3,395,-0.5,-0.5,-0.5,1,1,0.8,2,667,0,1,NaN,1,0,1.4,1,0.212909762350247,NaN,750,0,1,congruent,0.1,3798.35464861748,1002.91896333295
6,104,3,396,-0.5,-0.5,0.5,2,3,0.8,3,695,0,1,NaN,1,0,1.2,1,0.411637541013538,NaN,750,1,0,incongruent,0.1,1160.78799535802,4506.36924993621
6,104,3,397,-0.5,-0.5,-0.5,4,4,0.8,2,904,0,0,NaN,1,0,1,1,1.89499846032167,NaN,750,0,1,congruent,0.1,367.678258364836,6027.98166119611
6,104,3,398,-0.5,-0.5,0,2,NaN,0.8,2,745,1,1,745,1,0,0.8,1,0.766508574340842,0.766508574340842,750,0,0,neutral,0.1,2918.52770199453,4600.68335846248
6,104,3,399,-0.5,0.5,0.5,4,1,0.8,4,738,1,1,738,1,0,1,0.8,0.716826629675019,0.716826629675019,750,0,0,incongruent,0.1,638.769402558506,5404.72151462487
6,104,3,400,-0.5,0.5,0.5,2,3,0.8,3,559,0,1,NaN,0,0,1,1,-0.553611669636729,NaN,750,1,0,incongruent,0,4838.57638669008,1822.63193714906
6,104,3,401,-0.5,0.5,-0.5,4,4,0.6,4,574,1,1,574,1,0,0.8,0.8,-0.447150359638538,-0.447150359638538,750,1,0,congruent,0.1,1526.80703885962,1428.16572885638
6,104,3,402,-0.5,-0.5,0,1,NaN,0.6,1,567,1,1,567,0,0,0.8,1,-0.49683230430436,-0.49683230430436,750,0,0,neutral,0,1055.26124964466,2201.13526466569
6,104,3,403,0.5,0.5,0.5,3,1,0.6,3,464,1,1,464,1,0,0.6,NaN,-1.22786663295861,-1.22786663295861,750,0,0,incongruent,1,1387.6263129569,2296.58029608153
6,104,3,404,-0.5,-0.5,0.5,1,2,0.6,2,586,0,1,NaN,0,0,0.8,0.8,-0.361981311639985,NaN,750,1,0,incongruent,0,3658.10098003,988.917788272264
6,104,3,405,-0.5,-0.5,0,3,NaN,0.6,4,742,0,1,NaN,0,0,0.6,0.6,0.745216312341203,NaN,750,0,1,neutral,0,1800.42541206194,5416.02248357965
6,104,3,406,-0.5,0.5,-0.5,1,1,0.6,1,644,1,1,644,1,0,0.6,0.8,0.0496690870196876,0.0496690870196876,750,1,0,congruent,0.1,4386.29832661085,3806.53615800164
6,104,3,407,0.5,0.5,-0.5,4,4,0.8,4,728,1,1,728,1,0,0.6,NaN,0.645852423009558,0.645852423009558,750,1,0,congruent,1,1268.06216437544,2794.4460749881
6,104,3,408,0.5,-0.5,0.5,2,1,0.8,2,749,1,1,749,0,0,1,NaN,0.794898257007026,0.794898257007026,750,0,0,incongruent,0,2711.47259974372,2862.81974482122
6,104,3,409,0.5,-0.5,0.5,3,2,0.8,3,948,1,0,948,1,0,0.6,NaN,2.2072849696497,2.2072849696497,750,0,0,incongruent,1,2356.268068858,1826.65526788138
6,104,3,410,0.5,0.5,-0.5,4,4,0.8,4,374,1,1,374,1,0,1,NaN,-1.86663449294775,-1.86663449294775,750,1,0,congruent,1,4749.72269435563,965.506417209095
6,104,3,411,-0.5,0.5,-0.5,3,3,1,3,716,1,1,716,1,0,1.4,0.8,0.560683375011005,0.560683375011005,750,1,0,congruent,0.1,2097.96492216086,5820.77665418772
6,104,3,412,0.5,-0.5,-0.5,4,4,1,4,673,1,1,673,1,0,1.4,NaN,0.255494286349524,0.255494286349524,750,1,0,congruent,1,470.800773874145,955.04419143079
6,104,3,413,0.5,0.5,-0.5,2,2,1,2,636,1,1,636,1,0,1.4,NaN,-0.00711027831268097,-0.00711027831268097,750,1,0,congruent,1,499.450489609308,1071.27172595002
6,104,3,414,-0.5,0.5,0,3,NaN,1,3,746,1,1,746,1,0,1.8,0.8,0.773605995007388,0.773605995007388,750,0,0,neutral,0.1,2251.89701951125,3638.47417058756
6,104,3,415,-0.5,0.5,-0.5,1,1,1,1,606,1,1,606,1,0,1.6,0.8,-0.220032898309063,-0.220032898309063,750,1,0,congruent,0.1,7434.63416770261,716.254180200709
6,104,3,416,0.5,0.5,0,4,NaN,1,3,861,0,0,NaN,0,0,1.4,NaN,1.58980937166019,NaN,750,0,1,neutral,0,1913.00067874906,1174.08847524078
6,104,3,417,-0.5,-0.5,0.5,1,4,0.8,1,709,1,1,709,1,0,1.2,0.4,0.511001430345183,0.511001430345183,750,0,0,incongruent,0.1,6402.97777693324,6389.82984558255
6,104,3,418,-0.5,-0.5,0,3,NaN,0.8,3,607,1,1,607,1,0,1,0.4,-0.212935477642517,-0.212935477642517,750,0,0,neutral,0.1,5673.65833583386,186.781436035817
6,104,3,419,-0.5,-0.5,-0.5,2,2,0.8,2,738,1,1,738,1,0,0.8,0.4,0.716826629675019,0.716826629675019,750,1,0,congruent,0.1,3846.95891804516,5274.8416083413
6,104,3,420,-0.5,-0.5,0.5,1,4,0.8,1,631,1,1,631,1,0,0.8,0.6,-0.0425973816454114,-0.0425973816454114,750,0,0,incongruent,0.1,935.518721505999,947.829116763098
6,104,3,421,-0.5,-0.5,-0.5,2,2,0.8,2,592,1,1,592,1,0,0.8,0.8,-0.319396787640708,-0.319396787640708,750,1,0,congruent,0.1,1232.04754858831,2347.02221972291
6,104,3,422,-0.5,0.5,0.5,4,3,0.8,4,489,1,1,489,1,0,1,1,-1.05043111629495,-1.05043111629495,750,0,0,incongruent,0.1,1489.91097739075,2591.56697121819
6,104,3,423,-0.5,0.5,0.5,2,1,0.8,2,558,1,1,558,1,0,1,1,-0.560709090303275,-0.560709090303275,750,0,0,incongruent,0.1,1048.04099741575,2805.94238014321
6,104,3,424,-0.5,-0.5,0,4,NaN,0.8,3,874,0,0,NaN,1,0,1,1,1.68207584032529,NaN,750,0,1,neutral,0.1,939.864476587397,2279.90605747568
6,104,3,425,-0.5,0.5,-0.5,2,2,0.8,2,561,1,1,561,1,0,1,1,-0.539416828303637,-0.539416828303637,750,1,0,congruent,0.1,992.621950280215,2227.37471263087
6,104,3,426,0.5,0.5,0.5,4,1,0.8,4,597,1,1,597,1,0,1,NaN,-0.283909684307978,-0.283909684307978,750,0,0,incongruent,1,3243.50883941596,2733.93163420024
6,104,3,427,-0.5,0.5,0,3,NaN,0.8,3,719,1,1,719,1,0,1.2,1,0.581975637010643,0.581975637010643,750,0,0,neutral,0.1,1932.50304117575,7543.85436467606
6,104,3,428,-0.5,0.5,-0.5,1,1,1,2,622,0,1,NaN,0,0,1.2,1,-0.106474167644326,NaN,750,0,1,congruent,0,865.2595396203,2989.75786146274
6,104,3,429,0.5,-0.5,0,4,NaN,0.8,4,509,1,1,509,1,0,1,NaN,-0.908482702964033,-0.908482702964033,750,0,0,neutral,1,1075.158615157,3452.26946464715
6,104,3,430,0.5,-0.5,0.5,1,2,0.8,1,612,1,1,612,1,0,1.2,NaN,-0.177448374309787,-0.177448374309787,750,0,0,incongruent,1,796.252708857466,3011.84216675079
6,104,3,431,-0.5,-0.5,0.5,2,4,0.8,2,584,1,1,584,1,0,1.4,1,-0.376176152973077,-0.376176152973077,750,0,0,incongruent,0.1,4047.79433733755,2988.04928053083
6,104,3,432,0.5,0.5,0,4,NaN,0.8,4,545,1,1,545,1,0,1.2,NaN,-0.652975558968374,-0.652975558968374,750,0,0,neutral,1,2997.32939851565,1383.59938769868
6,104,3,433,-0.5,0.5,0.5,1,3,0.8,1,646,1,1,646,1,0,1.4,0.8,0.0638639283527798,0.0638639283527798,750,0,0,incongruent,0.1,1320.06274473736,1062.08836861876
6,104,3,434,0.5,-0.5,0.5,4,1,0.8,3,716,0,1,NaN,1,0,1.6,NaN,0.560683375011005,NaN,750,0,1,incongruent,1,1906.99031057172,2074.76797774317
6,104,3,435,0.5,0.5,0.5,1,4,0.8,4,661,0,1,NaN,0,0,1.6,NaN,0.170325238350971,NaN,750,1,0,incongruent,0,5267.1379831423,767.799116041017
6,104,3,436,0.5,-0.5,0.5,2,1,0.6,2,470,1,1,470,0,0,1.2,NaN,-1.18528210895933,-1.18528210895933,750,0,0,incongruent,0,2993.48041694335,805.458718237967
6,104,3,437,-0.5,0.5,0,4,NaN,0.6,3,751,0,0,NaN,0,0,1,0.8,0.809093098340118,NaN,750,0,1,neutral,0,1123.18952109693,6967.51472274261
6,104,3,438,0.5,-0.5,0.5,1,4,0.4,1,837,1,0,837,1,0,0.6,NaN,1.41947127566308,1.41947127566308,750,0,0,incongruent,1,2178.05313533847,4080.64172513691
6,104,3,439,-0.5,-0.5,0,3,NaN,0.4,3,756,1,0,756,0,0,0.8,1,0.844580201672848,0.844580201672848,750,0,0,neutral,0,2890.26937220929,4284.26455946566
6,104,3,440,-0.5,-0.5,0.5,4,3,0.4,3,626,0,1,NaN,1,0,0.4,0.8,-0.0780844849781418,NaN,750,1,0,incongruent,0.1,3766.01749124657,1392.94839057146
6,104,3,441,-0.5,-0.5,0,3,NaN,0.4,3,612,1,1,612,0,0,0.6,0.8,-0.177448374309787,-0.177448374309787,750,0,0,neutral,0,3920.60458900402,1333.07800245433
6,104,3,442,-0.5,0.5,-0.5,4,4,0.4,3,596,0,1,NaN,0,0,0.6,0.6,-0.291007104974524,NaN,750,0,1,congruent,0,1070.54201833357,3031.30673927632
6,104,3,443,-0.5,-0.5,0,2,NaN,0.4,3,671,0,1,NaN,1,0,0.6,0.6,0.241299445016432,NaN,750,0,1,neutral,0.1,6895.41237115611,2264.28616121138
6,104,3,444,-0.5,0.5,-0.5,4,4,0.4,4,561,1,1,561,1,0,0.4,0.4,-0.539416828303637,-0.539416828303637,750,1,0,congruent,0.1,406.247189459129,878.426248679182
6,104,3,445,-0.5,0.5,0.5,3,1,0.4,3,746,1,1,746,1,0,0.6,0.4,0.773605995007388,0.773605995007388,750,0,0,incongruent,0.1,1003.96586476392,1846.1588732658
6,104,3,446,-0.5,-0.5,-0.5,2,2,0.4,2,684,1,1,684,0,0,0.6,0.6,0.333565913681531,0.333565913681531,750,1,0,congruent,0,915.605989641173,655.111371852343
6,104,3,447,-0.5,0.5,-0.5,3,3,0.4,3,889,1,0,889,0,0,0.6,0.6,1.78853715032348,1.78853715032348,750,1,0,congruent,0,7594.70185041725,2483.6332854325
6,104,3,448,-0.5,-0.5,0.5,2,4,0.4,2,600,1,1,600,1,0,0.6,0.4,-0.26261742230834,-0.26261742230834,750,0,0,incongruent,0.1,909.224594838571,1104.89196028151
6,104,3,449,0.5,0.5,0.5,4,3,0.4,4,559,1,1,559,1,0,0.6,NaN,-0.553611669636729,-0.553611669636729,750,0,0,incongruent,1,4550.89959594534,811.160304418769
6,104,3,450,0.5,0.5,0,1,NaN,0.6,1,549,1,1,549,1,0,0.8,NaN,-0.62458587630219,-0.62458587630219,750,0,0,neutral,1,811.46587434623,1392.37826990304
6,104,4,451,0.5,-0.5,0.5,3,2,0.8,3,707,1,1,707,1,0,1,NaN,0.496806589012091,0.496806589012091,750,0,0,incongruent,1,4032.97822071131,3357.61153490467
6,104,4,452,-0.5,-0.5,0,1,NaN,0.8,1,594,1,1,594,0,0,1.4,0.6,-0.305201946307616,-0.305201946307616,750,0,0,neutral,0,2735.96673555664,2480.4935088037
6,104,4,453,0.5,-0.5,0.5,2,1,0.8,2,610,1,1,610,1,0,1.4,NaN,-0.191643215642879,-0.191643215642879,750,0,0,incongruent,1,1509.12610851393,7660.82120332209
6,104,4,454,0.5,-0.5,0,4,NaN,0.8,4,885,1,0,885,1,0,1.6,NaN,1.76014746765729,1.76014746765729,750,0,0,neutral,1,898.524157651927,8512.30543789445
6,104,4,455,0.5,0.5,-0.5,1,1,0.8,1,443,1,1,443,1,0,1.6,NaN,-1.37691246695607,-1.37691246695607,750,1,0,congruent,1,1406.0607472029,889.500988471827
6,104,4,456,0.5,0.5,-0.5,2,2,0.8,2,351,1,1,351,1,0,1.6,NaN,-2.02987516827831,-2.02987516827831,750,1,0,congruent,1,6157.87743734008,2583.65175672208
6,104,4,457,-0.5,-0.5,-0.5,1,1,0.8,4,395,0,1,NaN,0,0,1.6,0.4,-1.71758865895029,NaN,750,0,1,congruent,0,3268.83059061129,1116.13326452291
6,104,4,458,0.5,-0.5,-0.5,3,3,0.8,3,643,1,1,643,1,0,1.6,NaN,0.0425716663531416,0.0425716663531416,750,1,0,congruent,1,2189.12682939006,2964.58535233729
6,104,4,459,0.5,-0.5,-0.5,2,2,0.8,2,365,1,1,365,1,0,1.6,NaN,-1.93051127894667,-1.93051127894667,750,1,0,congruent,1,3271.80769848115,1397.38531213315
6,104,4,460,-0.5,-0.5,0.5,1,4,0.8,1,350,1,1,350,1,0,1.6,0.4,-2.03697258894486,-2.03697258894486,750,0,0,incongruent,0.1,6653.04224414466,1376.16759007201
6,104,4,461,0.5,0.5,-0.5,2,2,0.8,2,495,1,1,495,1,0,1.4,NaN,-1.00784659229568,-1.00784659229568,750,1,0,congruent,1,1784.50395101364,730.488760483779
6,104,4,462,0.5,0.5,0,4,NaN,1,4,553,1,1,553,1,0,1.4,NaN,-0.596196193636005,-0.596196193636005,750,0,0,neutral,1,1738.82073277704,2223.23498892287
6,104,4,464,0.5,-0.5,0.5,1,2,0.8,1,501,1,1,501,1,0,1.4,NaN,-0.965262068296401,-0.965262068296401,750,0,0,incongruent,1,1400.40133374478,3107.05324260182
6,104,4,465,0.5,0.5,-0.5,4,4,0.8,3,502,0,1,NaN,0,0,1.4,NaN,-0.958164647629855,NaN,750,0,1,congruent,0,6052.66509712261,1934.88225044331
6,104,4,466,0.5,0.5,0.5,3,1,0.6,3,369,1,1,369,1,0,1.2,NaN,-1.90212159628048,-1.90212159628048,750,0,0,incongruent,1,4037.14025542826,321.634898308715
6,104,4,467,0.5,-0.5,-0.5,2,2,0.6,2,364,1,1,364,1,0,1.2,NaN,-1.93760869961321,-1.93760869961321,750,1,0,congruent,1,1923.141545455,437.221657560108
6,104,4,468,0.5,-0.5,-0.5,4,4,0.6,4,715,1,1,715,0,0,1.2,NaN,0.553585954344459,0.553585954344459,750,1,0,congruent,0,2040.49871220353,2798.08044912868
6,104,4,469,0.5,0.5,0,1,NaN,0.6,1,436,1,1,436,1,0,1.2,NaN,-1.4265944116219,-1.4265944116219,750,0,0,neutral,1,1995.335047979,1685.27108132488
6,104,4,470,0.5,0.5,-0.5,3,3,0.6,2,601,0,1,NaN,0,0,1.2,NaN,-0.255520001641794,NaN,750,0,1,congruent,0,9903.4983482042,2479.42274086784
6,104,4,471,0.5,-0.5,0.5,2,4,0.4,2,478,1,1,478,1,0,1.2,NaN,-1.12850274362696,-1.12850274362696,750,0,0,incongruent,1,962.765934291574,1362.57230167675
6,104,4,472,0.5,0.5,0.5,1,3,0.4,2,800,0,0,NaN,0,0,1.2,NaN,1.15686671100088,NaN,750,0,1,incongruent,0,3959.94482180293,808.710257678975
6,104,4,473,0.5,-0.5,0,2,NaN,0.4,1,462,0,1,NaN,1,0,0.8,NaN,-1.2420614742917,NaN,750,0,1,neutral,1,2607.41122219692,1165.91045906298
6,104,4,474,0.5,-0.5,0.5,4,2,0.4,2,858,0,0,NaN,1,0,1.2,NaN,1.56851710966055,NaN,750,1,0,incongruent,1,3540.76584675779,4795.10860510511
6,104,4,475,0.5,0.5,-0.5,3,3,0.4,3,596,1,1,596,1,0,1.2,NaN,-0.291007104974524,-0.291007104974524,750,1,0,congruent,1,3948.86882577333,5109.66447638983
6,104,4,476,0.5,0.5,-0.5,1,1,0.6,1,615,1,1,615,1,0,1.6,NaN,-0.156156112310149,-0.156156112310149,750,1,0,congruent,1,4724.60432742319,930.877457566938
6,104,4,477,0.5,-0.5,0,3,NaN,0.6,3,796,1,0,796,1,0,1.6,NaN,1.12847702833469,1.12847702833469,750,0,0,neutral,1,5923.64558014134,2550.06484040549
6,104,4,478,0.5,0.5,-0.5,4,4,0.6,4,818,1,0,818,0,0,2,NaN,1.28462028299871,1.28462028299871,750,1,0,congruent,0,3944.88263034254,1840.2039334486
6,104,4,479,-0.5,-0.5,0,1,NaN,0.4,1,587,1,1,587,1,0,1.6,0.4,-0.354883890973439,-0.354883890973439,750,0,0,neutral,0.1,5535.67645994708,1765.52324696345
6,104,4,480,-0.5,0.5,-0.5,3,3,0.4,3,682,1,1,682,1,0,1.4,0.4,0.319371072348439,0.319371072348439,750,1,0,congruent,0.1,2090.28289007864,1746.83183458133
6,104,4,481,0.5,-0.5,0.5,4,1,0.6,3,906,0,0,NaN,1,0,1.2,NaN,1.90919330165476,NaN,750,0,1,incongruent,1,6338.19099066967,866.143743402032
6,104,4,482,-0.5,-0.5,-0.5,2,2,0.6,2,641,1,1,641,0,0,1.2,0.6,0.0283768250200494,0.0283768250200494,750,1,0,congruent,0,1823.49844266378,1480.79610427051
6,104,4,483,-0.5,0.5,0.5,1,3,0.6,1,580,1,1,580,1,0,0.8,0.6,-0.404565835639261,-0.404565835639261,750,0,0,incongruent,0.1,848.314814115803,2254.64989943466
6,104,4,484,-0.5,-0.5,-0.5,2,2,0.8,2,569,1,1,569,1,0,1,0.4,-0.482637462971268,-0.482637462971268,750,1,0,congruent,0.1,1330.82779847749,675.436153906464
6,104,4,485,0.5,0.5,0,3,NaN,0.8,3,394,1,1,394,1,0,1,NaN,-1.72468607961683,-1.72468607961683,750,0,0,neutral,1,4519.54004585269,3884.83910023481
6,104,4,486,0.5,0.5,-0.5,1,1,0.8,1,557,1,1,557,1,0,1.2,NaN,-0.567806510969821,-0.567806510969821,750,1,0,congruent,1,1671.86080443469,1584.52376537938
6,104,4,487,-0.5,-0.5,0.5,2,4,0.8,3,590,0,1,NaN,1,0,1.2,0.6,-0.333591628973801,NaN,750,0,1,incongruent,0.1,531.984199005287,1712.2684124524
6,104,4,488,-0.5,0.5,0,3,NaN,0.8,3,492,1,1,492,1,0,1.4,0.6,-1.02913885429532,-1.02913885429532,750,0,0,neutral,0.1,2059.25428465699,1072.49375480544
6,104,4,489,0.5,0.5,-0.5,1,1,1,1,516,1,1,516,1,0,1.4,NaN,-0.85880075829821,-0.85880075829821,750,1,0,congruent,1,1670.03780208686,568.536376388325
6,104,4,490,-0.5,-0.5,0,4,NaN,1,3,605,0,1,NaN,1,0,1.6,0.8,-0.227130318975609,NaN,750,0,1,neutral,0.1,2611.00848457526,2780.81864346098
6,104,4,491,-0.5,0.5,-0.5,3,3,1,3,514,1,1,514,1,0,1.4,0.6,-0.872995599631302,-0.872995599631302,750,1,0,congruent,0.1,7826.73599312735,1350.56543875882
6,104,4,492,0.5,-0.5,0,4,NaN,1,4,631,1,1,631,1,0,1.2,NaN,-0.0425973816454114,-0.0425973816454114,750,0,0,neutral,1,2669.37071170829,2201.59964873219
6,104,4,493,0.5,-0.5,-0.5,3,3,1,3,565,1,1,565,1,0,1.4,NaN,-0.511027145637453,-0.511027145637453,750,1,0,congruent,1,1232.35636921581,2009.13830504677
6,104,4,494,-0.5,0.5,-0.5,2,2,1,2,662,1,1,662,1,0,1.6,0.8,0.177422659017517,0.177422659017517,750,1,0,congruent,0.1,578.077798146941,7006.86382150936
6,104,4,495,-0.5,0.5,0,1,NaN,1,1,609,1,1,609,1,0,1.4,1,-0.198740636309425,-0.198740636309425,750,0,0,neutral,0.1,2460.18349944718,3773.55737563185
6,104,4,496,0.5,-0.5,-0.5,2,2,1,2,532,1,1,532,1,0,1.4,NaN,-0.745242027633473,-0.745242027633473,750,1,0,congruent,1,1777.7246160443,1542.44187273321
6,104,4,497,0.5,0.5,0.5,4,1,1,4,765,1,0,765,0,0,1.6,NaN,0.908456987671763,0.908456987671763,750,0,0,incongruent,0,1038.25923610048,4400.0680827389
6,104,4,498,-0.5,-0.5,-0.5,3,3,0.8,3,94,1,1,94,0,0,1.2,0.8,-3.85391227958066,-3.85391227958066,750,1,0,congruent,0,2392.61463318516,3541.25651231363
6,104,4,499,0.5,-0.5,0.5,1,4,0.8,2,561,0,1,NaN,1,0,0.8,NaN,-0.539416828303637,NaN,750,0,1,incongruent,1,6227.28020322838,865.166856876652
6,104,4,500,0.5,0.5,0.5,2,1,0.8,2,644,1,1,644,1,0,1,NaN,0.0496690870196876,0.0496690870196876,750,0,0,incongruent,1,1884.49319742779,2400.47940778033
6,104,4,501,-0.5,-0.5,-0.5,3,3,0.8,3,506,1,1,506,1,0,1.2,0.6,-0.929774964963671,-0.929774964963671,750,1,0,congruent,0.1,1418.85135364953,2347.82302100371
6,104,4,502,-0.5,-0.5,-0.5,2,2,0.8,2,556,1,1,556,1,0,1,0.8,-0.574903931636367,-0.574903931636367,750,1,0,congruent,0.1,2047.5255465884,2838.41850337375
6,104,4,503,0.5,0.5,-0.5,4,4,0.8,2,839,0,0,NaN,0,0,1.2,NaN,1.43366611699617,NaN,750,0,1,congruent,0,3080.90281699887,7191.9281921066
6,104,4,504,-0.5,0.5,-0.5,3,3,0.6,3,448,1,1,448,1,0,1.2,1,-1.34142536362334,-1.34142536362334,750,1,0,congruent,0.1,3402.00679640897,4572.24798475447
6,104,4,505,-0.5,-0.5,0,4,NaN,0.6,4,698,1,1,698,1,0,1,0.8,0.432929803013176,0.432929803013176,750,0,0,neutral,0.1,1735.96670871323,2378.43081700771
6,104,4,506,-0.5,-0.5,0.5,1,3,0.6,3,717,0,1,NaN,1,0,0.8,0.8,0.567780795677551,NaN,750,1,0,incongruent,0.1,6634.26247050897,968.813982313339
6,104,4,507,0.5,0.5,0.5,3,1,0.6,3,673,1,1,673,1,0,0.8,NaN,0.255494286349524,0.255494286349524,750,0,0,incongruent,1,2347.1991492218,2378.99029328879
6,104,4,508,0.5,0.5,0.5,2,4,0.6,2,351,1,1,351,1,0,1,NaN,-2.02987516827831,-2.02987516827831,750,0,0,incongruent,1,2624.02920191993,1756.60927355067
6,104,4,509,0.5,0.5,0,3,NaN,0.8,3,458,1,1,458,1,0,1.4,NaN,-1.27045115695788,-1.27045115695788,750,0,0,neutral,1,3944.86731755144,1338.21860826371
6,104,4,510,-0.5,-0.5,0.5,1,2,0.8,2,749,0,1,NaN,1,0,1.6,0.8,0.794898257007026,NaN,750,1,0,incongruent,0.1,3556.21198807107,4616.17033101916
6,104,4,511,0.5,0.5,0.5,2,1,0.8,2,367,1,1,367,1,0,1.6,NaN,-1.91631643761358,-1.91631643761358,750,0,0,incongruent,1,4883.50016469813,2928.69900968026
6,104,4,512,0.5,-0.5,0.5,4,2,1,2,602,0,1,NaN,1,0,1.8,NaN,-0.248422580975248,NaN,750,1,0,incongruent,1,681.725136648475,765.954177008309
6,104,4,513,0.5,0.5,0.5,1,3,1,3,764,0,0,NaN,0,0,1.8,NaN,0.901359567005217,NaN,750,1,0,incongruent,0,3785.72392780255,852.532893487513
6,104,4,514,0.5,-0.5,-0.5,4,4,0.8,3,825,0,0,NaN,0,0,1.4,NaN,1.33430222766453,NaN,750,0,1,congruent,0,4229.32638823121,713.251164318622
6,104,4,515,-0.5,0.5,0.5,2,3,0.8,2,571,1,1,571,1,0,1,1,-0.468442621638176,-0.468442621638176,750,0,0,incongruent,0.1,2347.64215543728,2567.52021937246
6,104,4,516,0.5,-0.5,0,1,NaN,0.8,1,528,1,1,528,0,0,1,NaN,-0.773631710299657,-0.773631710299657,750,0,0,neutral,0,4320.60300965074,1898.6724714625
6,104,4,517,0.5,-0.5,-0.5,4,4,0.8,3,677,0,1,NaN,1,0,0.6,NaN,0.283883969015708,NaN,750,0,1,congruent,1,3765.17909966397,1936.94904468472
6,104,4,518,-0.5,-0.5,-0.5,2,2,0.8,2,242,1,1,242,0,0,0.6,1,-2.80349402093184,-2.80349402093184,750,1,0,congruent,0,944.463268566407,2641.9967322206
6,104,4,519,-0.5,-0.5,0,4,NaN,0.8,3,505,0,1,NaN,1,0,0.6,0.8,-0.936872385630217,NaN,750,0,1,neutral,0.1,2214.54808407266,1136.76414204797
6,104,4,520,-0.5,0.5,-0.5,2,2,0.8,2,635,1,1,635,1,0,0.8,1,-0.0142076989792271,-0.0142076989792271,750,1,0,congruent,0.1,916.778196218576,3174.44434105727
6,104,4,521,-0.5,-0.5,0,3,NaN,0.8,3,625,1,1,625,1,0,0.8,0.8,-0.0851819056446878,-0.0851819056446878,750,0,0,neutral,0.1,3451.44201387813,2739.54113736092
6,104,4,522,-0.5,-0.5,-0.5,2,2,0.8,2,872,1,0,872,1,0,1,0.8,1.66788099899219,1.66788099899219,750,1,0,congruent,0.1,896.15026482595,1441.19093650182
6,104,4,523,0.5,0.5,-0.5,1,1,0.8,1,626,1,1,626,1,0,0.8,NaN,-0.0780844849781418,-0.0780844849781418,750,1,0,congruent,1,1623.87449426372,2050.36962748812
6,104,4,524,0.5,0.5,-0.5,2,2,0.8,2,442,1,1,442,1,0,1.2,NaN,-1.38400988762262,-1.38400988762262,750,1,0,congruent,1,8787.05733871824,1090.41388480328
6,104,4,525,0.5,-0.5,0,3,NaN,0.8,3,690,1,1,690,0,0,1.4,NaN,0.376150437680807,0.376150437680807,750,0,0,neutral,0,798.407550391524,2180.20832880331
6,104,4,526,0.5,-0.5,0.5,4,3,0.8,3,653,0,1,NaN,1,0,1.2,NaN,0.113545873018602,NaN,750,1,0,incongruent,1,1268.99094205031,2770.51174968038
6,104,4,527,0.5,0.5,0,2,NaN,0.8,2,425,1,1,425,1,0,1.4,NaN,-1.5046660389539,-1.5046660389539,750,0,0,neutral,1,3337.45385543727,1288.82060113251
6,104,4,528,0.5,-0.5,0.5,3,1,1,3,689,1,1,689,1,0,1.6,NaN,0.369053017014261,0.369053017014261,750,0,0,incongruent,1,5555.8498086532,3354.05426945231
6,104,4,529,0.5,0.5,0,2,NaN,1,1,643,0,1,NaN,0,0,1.6,NaN,0.0425716663531416,NaN,750,0,1,neutral,0,2407.30789741015,3058.46456784426
6,104,4,530,-0.5,-0.5,0.5,4,3,0.8,2,823,0,0,NaN,1,0,1.2,0.8,1.32010738633144,NaN,750,0,1,incongruent,0.1,524.265740611599,1995.64836115903
6,104,4,531,0.5,0.5,0,1,NaN,0.8,1,725,1,1,725,1,0,1.4,NaN,0.62456016100992,0.62456016100992,750,0,0,neutral,1,734.151260700176,2037.85156228885
6,104,4,532,-0.5,-0.5,-0.5,3,3,0.8,3,755,1,0,755,1,0,1.4,0.8,0.837482781006302,0.837482781006302,750,1,0,congruent,0.1,861.75102127899,1803.08174933077
6,104,4,533,-0.5,-0.5,0.5,2,1,0.8,2,627,1,1,627,1,0,1.2,1,-0.0709870643115957,-0.0709870643115957,750,0,0,incongruent,0.1,6612.47288758289,2877.07594995524
6,104,4,534,0.5,-0.5,-0.5,3,3,0.8,3,668,1,1,668,1,0,1,NaN,0.220007183016794,0.220007183016794,750,1,0,congruent,1,2727.06516926455,2651.14632471568
6,104,4,535,0.5,-0.5,-0.5,1,1,0.8,2,670,0,1,NaN,1,0,1.4,NaN,0.234202024349886,NaN,750,0,1,congruent,1,1409.79252924438,1462.27612612623
6,104,4,536,0.5,-0.5,0,2,NaN,0.8,2,760,1,0,760,1,0,1.6,NaN,0.872969884339033,0.872969884339033,750,0,0,neutral,1,2955.15826286777,3853.02969040573
6,104,4,537,-0.5,-0.5,-0.5,4,4,0.8,3,691,0,1,NaN,1,0,1.6,1,0.383247858347353,NaN,750,0,1,congruent,0.1,1273.8188414144,1132.54021301096
6,104,4,538,0.5,0.5,0,3,NaN,0.8,1,845,0,0,NaN,0,0,1.6,NaN,1.47625064099545,NaN,750,0,1,neutral,0,1918.9375678924,1427.31903497671
6,104,4,539,-0.5,0.5,-0.5,2,2,0.6,2,709,1,1,709,1,0,1.4,1,0.511001430345183,0.511001430345183,750,1,0,congruent,0.1,4534.64302449132,2418.36378523397
6,104,4,540,-0.5,0.5,0.5,3,1,0.6,3,464,1,1,464,1,0,1.2,1,-1.22786663295861,-1.22786663295861,750,0,0,incongruent,0.1,3733.97741527783,452.482428544286
6,104,4,541,0.5,-0.5,0,4,NaN,0.6,3,890,0,0,NaN,1,0,1,NaN,1.79563457099002,NaN,750,0,1,neutral,1,1790.17508719433,5390.97742915103
6,104,4,542,-0.5,-0.5,-0.5,2,2,0.6,1,819,0,0,NaN,0,0,1,1,1.29171770366525,NaN,750,0,1,congruent,0,1817.80120461776,1400.54922724087
6,104,4,543,0.5,-0.5,-0.5,3,3,0.6,3,624,1,1,624,0,0,0.8,NaN,-0.0922793263112339,-0.0922793263112339,750,1,0,congruent,0,6809.87950254748,2474.56670797926
6,104,4,544,0.5,0.5,-0.5,2,2,0.6,2,350,1,1,350,1,0,0.8,NaN,-2.03697258894486,-2.03697258894486,750,1,0,congruent,1,1490.10244381672,854.239803251786
6,104,4,545,0.5,0.5,0.5,3,1,0.8,3,531,1,1,531,1,0,1,NaN,-0.752339448300019,-0.752339448300019,750,0,0,incongruent,1,7787.43953058786,1571.86568394123
6,104,4,546,-0.5,-0.5,0,4,NaN,0.8,4,815,1,0,815,1,0,1.2,0.8,1.26332802099907,1.26332802099907,750,0,0,neutral,0.1,916.279411991283,2571.90707211859
6,104,4,547,-0.5,-0.5,-0.5,1,1,0.8,2,685,0,1,NaN,1,0,1,0.8,0.340663334348077,NaN,750,0,1,congruent,0.1,2789.10411527598,988.559362700263
6,104,4,548,0.5,0.5,0,2,NaN,0.8,2,567,1,1,567,1,0,1.2,NaN,-0.49683230430436,-0.49683230430436,750,0,0,neutral,1,4709.36656108765,1467.83815759778
6,104,4,549,-0.5,-0.5,-0.5,1,1,1,1,730,1,1,730,1,0,1.6,0.8,0.66004726434265,0.66004726434265,750,1,0,congruent,0.1,1457.62015364255,3678.13002689619
6,104,4,550,0.5,-0.5,0,3,NaN,1,3,368,1,1,368,1,0,1.4,NaN,-1.90921901694703,-1.90921901694703,750,0,0,neutral,1,3305.78350788142,2006.75714542221
6,104,4,551,-0.5,-0.5,-0.5,1,1,1,1,685,1,1,685,1,0,1.4,0.8,0.340663334348077,0.340663334348077,750,1,0,congruent,0.1,733.394113672084,1843.93584877004
6,104,4,552,0.5,0.5,-0.5,4,4,1,2,722,0,1,NaN,0,0,1.4,NaN,0.603267899010282,NaN,750,0,1,congruent,0,1039.09887063233,2638.21578547484
6,104,4,553,0.5,0.5,-0.5,3,3,0.8,3,605,1,1,605,1,0,1.2,NaN,-0.227130318975609,-0.227130318975609,750,1,0,congruent,1,1434.79056476432,4222.23758147068
6,104,4,554,-0.5,-0.5,0.5,2,4,0.8,2,801,1,0,801,1,0,1.2,0.8,1.16396413166742,1.16396413166742,750,0,0,incongruent,0.1,1015.51883497292,1270.58531236276
6,104,4,555,0.5,-0.5,0,3,NaN,0.8,3,346,1,1,346,1,0,1.2,NaN,-2.06536227161104,-2.06536227161104,750,0,0,neutral,1,1822.59168757153,830.331231928574
6,104,4,556,0.5,-0.5,-0.5,4,4,0.8,4,601,1,1,601,1,0,1.2,NaN,-0.255520001641794,-0.255520001641794,750,1,0,congruent,1,1184.32617125321,5048.46689239021
6,104,4,557,0.5,0.5,0.5,3,1,0.8,3,586,1,1,586,1,0,1.4,NaN,-0.361981311639985,-0.361981311639985,750,0,0,incongruent,1,1638.77667507576,1916.79484748396
6,104,4,558,-0.5,0.5,0.5,1,4,0.8,1,724,1,1,724,1,0,1.8,1,0.617462740343374,0.617462740343374,750,0,0,incongruent,0.1,1089.17875280063,1414.43440994244
6,104,4,559,0.5,0.5,0.5,3,2,0.8,3,512,1,1,512,1,0,1.6,NaN,-0.887190440964395,-0.887190440964395,750,0,0,incongruent,1,2185.22404632802,1266.81557741029
6,104,4,560,0.5,0.5,-0.5,4,4,0.8,2,730,0,1,NaN,0,0,1.8,NaN,0.66004726434265,NaN,750,0,1,congruent,0,1536.3063700861,3448.53815818567
6,104,4,561,0.5,0.5,0.5,3,1,0.8,3,556,1,1,556,1,0,1.4,NaN,-0.574903931636367,-0.574903931636367,750,0,0,incongruent,1,1412.15532892925,3357.9961191548
6,104,4,562,-0.5,-0.5,0,4,NaN,0.8,1,754,0,0,NaN,1,0,1.4,1,0.830385360339756,NaN,750,0,1,neutral,0.1,3167.64134050708,3143.80214302997
6,104,4,563,0.5,-0.5,0.5,1,3,0.8,1,575,1,1,575,0,0,1.2,NaN,-0.440052938971992,-0.440052938971992,750,0,0,incongruent,0,1553.46274504666,4209.86555980047
6,104,4,564,0.5,0.5,-0.5,4,4,0.8,3,651,0,1,NaN,0,0,1,NaN,0.0993510316855102,NaN,750,0,1,congruent,0,2149.87268976075,3396.94453317481
6,104,4,565,-0.5,0.5,-0.5,2,2,0.6,2,734,1,1,734,1,0,0.6,1,0.688436947008835,0.688436947008835,750,1,0,congruent,0.1,1558.54629777839,2649.61141801041
6,104,4,566,-0.5,-0.5,0.5,1,3,0.6,3,679,0,1,NaN,1,0,0.8,1,0.2980788103488,NaN,750,1,0,incongruent,0.1,1067.31744982524,1464.2123249003
6,104,4,567,0.5,-0.5,-0.5,2,2,0.6,2,512,1,1,512,1,0,0.6,NaN,-0.887190440964395,-0.887190440964395,750,1,0,congruent,1,3707.87402541577,747.768372431158
6,104,4,568,0.5,-0.5,-0.5,4,4,0.6,3,665,0,1,NaN,1,0,0.8,NaN,0.198714921017155,NaN,750,0,1,congruent,1,1469.72989157132,4682.79779790728
6,104,4,569,0.5,0.5,0,1,NaN,0.6,1,572,1,1,572,1,0,1.2,NaN,-0.46134520097163,-0.46134520097163,750,0,0,neutral,1,621.849659478639,1500.12306892163
6,104,4,570,0.5,0.5,-0.5,2,2,0.6,2,611,1,1,611,1,0,1.6,NaN,-0.184545794976333,-0.184545794976333,750,1,0,congruent,1,534.531756273495,3530.18381020979
6,104,4,571,0.5,0.5,0.5,4,1,0.8,2,635,0,1,NaN,0,0,1.8,NaN,-0.0142076989792271,NaN,750,0,1,incongruent,0,1102.16867128585,3984.56753507152
6,104,4,572,-0.5,0.5,0,1,NaN,0.6,1,503,1,1,503,1,0,1.6,1,-0.951067226963309,-0.951067226963309,750,0,0,neutral,0.1,3411.18293085193,604.070319229286
6,104,4,573,0.5,-0.5,0.5,3,2,0.8,3,654,1,1,654,1,0,1.4,NaN,0.120643293685148,0.120643293685148,750,0,0,incongruent,1,2536.52893654151,956.537989454043
6,104,4,574,-0.5,0.5,0,2,NaN,0.8,1,616,0,1,NaN,0,0,1.4,1,-0.149058691643603,NaN,750,0,1,neutral,0,2466.6703788467,2650.41639131486
6,104,4,575,0.5,0.5,-0.5,4,4,0.6,3,781,0,0,NaN,0,0,1,NaN,1.0220157183365,NaN,750,0,1,congruent,0,3108.27000294259,4614.67078872336
6,104,4,576,-0.5,-0.5,-0.5,2,2,0.4,2,553,1,1,553,1,0,0.6,1,-0.596196193636005,-0.596196193636005,750,1,0,congruent,0.1,1933.04380727056,1314.9995748961
6,104,4,578,-0.5,-0.5,-0.5,2,2,0.4,2,534,1,1,534,1,0,0.8,1,-0.731047186300381,-0.731047186300381,750,1,0,congruent,0.1,1343.31527497326,962.409004016187
6,104,4,579,-0.5,-0.5,-0.5,3,3,0.4,3,437,1,1,437,1,0,0.6,1,-1.41949699095535,-1.41949699095535,750,1,0,congruent,0.1,2695.4725210929,1705.61206326047
6,104,4,580,-0.5,-0.5,-0.5,2,2,0.4,2,687,1,1,687,0,0,0.8,1,0.354858175681169,0.354858175681169,750,1,0,congruent,0,5758.86875482292,3449.05483765268
6,104,4,581,-0.5,-0.5,0.5,1,4,0.4,1,341,1,1,341,0,0,0.8,0.8,-2.10084937494377,-2.10084937494377,750,0,0,incongruent,0,2190.75644993255,1610.03295855011
6,104,4,582,0.5,0.5,-0.5,2,2,0.4,2,529,1,1,529,1,0,0.6,NaN,-0.766534289633111,-0.766534289633111,750,1,0,congruent,1,752.295713771783,2082.70638226634
6,104,4,583,-0.5,0.5,0,4,NaN,0.4,3,736,0,1,NaN,0,0,0.8,0.8,0.702631788341927,NaN,750,0,1,neutral,0,2564.34730330565,3460.37757985365
6,104,4,584,0.5,-0.5,-0.5,1,1,0.4,1,663,1,1,663,0,0,0.6,NaN,0.184520079684063,0.184520079684063,750,1,0,congruent,0,615.741538621457,1006.24755270581
6,104,4,585,-0.5,-0.5,0.5,3,4,0.4,3,737,1,1,737,0,0,0.4,0.6,0.709729209008473,0.709729209008473,750,0,0,incongruent,0,1199.0777996831,4911.10354948352
6,104,4,586,-0.5,0.5,0,1,NaN,0.4,1,471,1,1,471,1,0,0.4,0.6,-1.17818468829278,-1.17818468829278,750,0,0,neutral,0.1,3035.47455048776,2372.44224254183
6,104,4,587,0.5,0.5,-0.5,3,3,0.4,3,722,1,1,722,1,0,0.6,NaN,0.603267899010282,0.603267899010282,750,1,0,congruent,1,1908.73826581674,4623.19460321569
6,104,4,588,0.5,0.5,-0.5,2,2,0.6,2,537,1,1,537,1,0,0.6,NaN,-0.709754924300743,-0.709754924300743,750,1,0,congruent,1,601.083340990643,1662.53173090647
6,104,4,589,0.5,0.5,0.5,4,1,0.8,4,590,1,1,590,1,0,1,NaN,-0.333591628973801,-0.333591628973801,750,0,0,incongruent,1,2652.67558179527,2295.92805926237
6,104,4,590,0.5,0.5,0,3,NaN,0.8,3,811,1,0,811,0,0,1.4,NaN,1.23493833833288,1.23493833833288,750,0,0,neutral,0,10322.051074227,3094.88643303253
6,104,4,591,0.5,0.5,-0.5,1,1,0.8,1,463,1,1,463,1,0,1.4,NaN,-1.23496405362515,-1.23496405362515,750,1,0,congruent,1,1333.13328729349,1058.14144901791
6,104,4,592,0.5,0.5,0.5,2,3,0.8,2,398,1,1,398,1,0,1.6,NaN,-1.69629639695065,-1.69629639695065,750,0,0,incongruent,1,2318.48450949359,1231.34440540907
6,104,4,593,0.5,-0.5,-0.5,1,1,0.8,1,616,1,1,616,1,0,1.6,NaN,-0.149058691643603,-0.149058691643603,750,1,0,congruent,1,2531.43089812801,3257.856277311
6,104,4,594,0.5,0.5,0,3,NaN,0.8,3,750,1,1,750,0,0,1.6,NaN,0.801995677673572,0.801995677673572,750,0,0,neutral,0,1195.08911484893,4540.53405354269
6,104,4,595,-0.5,-0.5,-0.5,2,2,0.6,2,565,1,1,565,1,0,1.2,0.4,-0.511027145637453,-0.511027145637453,750,1,0,congruent,0.1,1219.68235905469,2531.43979156707
6,104,4,596,0.5,-0.5,0,3,NaN,0.6,3,526,1,1,526,1,0,1.4,NaN,-0.78782655163275,-0.78782655163275,750,0,0,neutral,1,2216.8439564581,3665.57811743667
6,104,4,597,0.5,0.5,-0.5,2,2,0.6,2,840,1,0,840,0,0,1.4,NaN,1.44076353766272,1.44076353766272,750,1,0,congruent,0,6375.5105791073,2184.2088014229
6,104,4,598,0.5,-0.5,0.5,4,3,0.4,2,706,0,1,NaN,1,0,1,NaN,0.489709168345545,NaN,750,0,1,incongruent,1,3015.19680962994,2393.24048672787
6,104,4,599,-0.5,-0.5,-0.5,2,2,0.4,3,613,0,1,NaN,0,0,1,0.4,-0.170350953643241,NaN,750,0,1,congruent,0,331.325118490787,1564.77253989291
6,104,4,600,0.5,-0.5,0,1,NaN,0.4,1,626,1,1,626,1,0,1,NaN,-0.0780844849781418,-0.0780844849781418,750,0,0,neutral,1,2515.32113543268,1077.08239255529
