subid,vers,block,trial,rewlvl,efflvl,congruency,targetresp,distractorresp,rollingefflvl,resp,rt,acc,fast,accrt,isrewarded,ismiss,runavgrrgen,runavgrrcond,zrt,acczrt,rtthreshold,isdisterror,isranderror,congruence,feedback,fcz_resp_theta,fcz_resp_theta_baseline
8,104,1,1,0.5,0.5,0.5,4,2,0.4,3,792,0,0,NaN,0,0,0,NaN,0.74873426727036,NaN,750,0,1,incongruent,0,863.426892982592,1371.30401865728
8,104,1,2,-0.5,0.5,-0.5,3,3,0.3,1,719,0,1,NaN,0,0,0,0,0.329928473210115,NaN,750,0,1,congruent,0,1507.51416954146,4357.52734106298
8,104,1,4,0.5,0.5,-0.5,3,3,0.3,3,965,1,0,965,0,0,0,NaN,1.74124662853642,1.74124662853642,750,1,0,congruent,0,3933.90334787841,2051.84798422201
8,104,1,5,0.5,-0.5,-0.5,4,4,0.1,4,611,1,1,611,0,0,0,NaN,-0.289674619372164,-0.289674619372164,750,1,0,congruent,0,672.891861624944,2142.32341630649
8,104,1,7,0.5,0.5,0,4,NaN,0.1,4,747,1,1,747,1,0,0,NaN,0.490566312027743,0.490566312027743,750,0,0,neutral,1,2309.70310674691,677.464608634465
8,104,1,8,-0.5,-0.5,-0.5,3,3,0.3,2,734,0,1,NaN,0,0,0.4,0,0.415984458290988,NaN,750,0,1,congruent,0,1225.98292537281,946.739202775378
8,104,1,9,0.5,-0.5,-0.5,1,1,0.3,1,477,1,1,477,1,0,0.4,NaN,-1.05844141942796,-1.05844141942796,750,1,0,congruent,1,1693.0830441068,1198.7181091099
8,104,1,10,0.5,0.5,0.5,2,3,0.3,2,870,1,0,870,0,0,0.8,NaN,1.1962253896909,1.1962253896909,750,0,0,incongruent,0,3254.93061092959,1188.92894633338
8,104,1,11,0.5,-0.5,0,3,NaN,0.2,3,945,1,0,945,1,0,0.8,NaN,1.62650531509526,1.62650531509526,750,0,0,neutral,1,2406.05870441399,1841.95706521507
8,104,1,12,0.5,-0.5,0.5,2,4,0.2,2,934,1,0,934,0,0,1.2,NaN,1.56339759270262,1.56339759270262,750,0,0,incongruent,0,1717.90860740317,8297.75941198057
8,104,1,13,-0.5,-0.5,0.5,3,1,0.2,3,964,1,0,964,0,0,0.8,0,1.73550956286436,1.73550956286436,750,0,0,incongruent,0,3634.34181335499,873.627114772261
8,104,1,14,0.5,0.5,-0.5,4,4,0.2,4,707,1,1,707,1,0,0.8,NaN,0.261083685145418,0.261083685145418,750,1,0,congruent,1,2358.08523364689,3385.73286064457
8,104,1,15,-0.5,-0.5,0.5,3,1,0.4,2,777,0,0,NaN,0,0,0.8,0,0.662678282189488,NaN,750,0,1,incongruent,0,6093.28687445118,2423.02250289841
8,104,1,16,0.5,0.5,0.5,1,4,0.4,2,954,0,0,NaN,0,0,0.8,NaN,1.67813890614378,NaN,750,0,1,incongruent,0,4857.77205267596,3318.9406165271
8,104,1,17,0.5,-0.5,0.5,3,2,0.4,3,790,1,0,790,0,0,0.4,NaN,0.737260135926244,0.737260135926244,750,0,0,incongruent,0,1288.92212629312,2494.2519135777
8,104,1,18,0.5,0.5,0.5,2,3,0.4,2,457,1,1,457,1,0,0.4,NaN,-1.17318273286912,-1.17318273286912,750,0,0,incongruent,1,1694.97288693056,2137.39871509292
8,104,1,19,-0.5,-0.5,-0.5,4,4,0.6,4,351,1,1,351,1,0,0.8,0,-1.78131169410728,-1.78131169410728,750,1,0,congruent,0.1,3092.58691532405,3069.82365367628
8,104,1,20,0.5,-0.5,0,3,NaN,0.6,3,665,1,1,665,0,0,0.6,NaN,0.0201269269189756,0.0201269269189756,750,0,0,neutral,0,1742.33068760414,1568.75131605557
8,104,1,21,0.5,0.5,-0.5,1,1,0.6,1,414,1,1,414,1,0,0.6,NaN,-1.41987655676762,-1.41987655676762,750,1,0,congruent,1,1374.6359406276,1450.29129057137
8,104,1,22,0.5,0.5,0.5,2,3,0.6,2,856,1,0,856,0,0,1,NaN,1.11590647028208,1.11590647028208,750,0,0,incongruent,0,1801.70919460615,4100.44462355328
8,104,1,23,0.5,-0.5,0.5,4,1,0.6,4,762,1,0,762,1,0,1,NaN,0.576622297108616,0.576622297108616,750,0,0,incongruent,1,1134.95382714151,929.538144946365
8,104,1,25,-0.5,-0.5,0,3,NaN,0.4,3,849,1,0,849,0,0,0.8,0.2,1.07574701057767,1.07574701057767,750,0,0,neutral,0,2832.22574119191,2531.69597927636
8,104,1,26,-0.5,-0.5,-0.5,4,4,0.4,4,681,1,1,681,0,0,0.8,0.2,0.111919977671906,0.111919977671906,750,1,0,congruent,0,2821.14670233181,4365.31307326843
8,104,1,27,0.5,0.5,0.5,1,2,0.4,1,813,1,0,813,0,0,0.4,NaN,0.869212646383581,0.869212646383581,750,0,0,incongruent,0,2977.27192598159,1380.92034334908
8,104,1,28,0.5,-0.5,0,4,NaN,0.4,4,639,1,1,639,0,0,0.4,NaN,-0.129036780554536,-0.129036780554536,750,0,0,neutral,0,2724.19984532562,2667.6617992028
8,104,1,29,0.5,0.5,-0.5,1,1,0.4,1,482,1,1,482,1,0,0,NaN,-1.02975609106767,-1.02975609106767,750,1,0,congruent,1,6444.92291369505,1753.21987792101
8,104,1,30,0.5,-0.5,0,4,NaN,0.4,4,571,1,1,571,0,0,0.4,NaN,-0.51915724625449,-0.51915724625449,750,0,0,neutral,0,2211.92267762202,1031.13963263996
8,104,1,31,0.5,-0.5,0.5,1,4,0.4,1,454,1,1,454,0,0,0.4,NaN,-1.19039392988529,-1.19039392988529,750,0,0,incongruent,0,1088.02255254117,2119.21141725276
8,104,1,32,-0.5,-0.5,0,4,NaN,0.4,4,622,1,1,622,0,0,0.4,0.2,-0.226566896979525,-0.226566896979525,750,0,0,neutral,0,532.342252612775,1752.32864435746
8,104,1,33,0.5,0.5,-0.5,3,3,0.4,3,605,1,1,605,1,0,0.4,NaN,-0.324097013404513,-0.324097013404513,750,1,0,congruent,1,1571.64372277949,784.484440688847
8,104,1,34,-0.5,-0.5,-0.5,4,4,0.4,4,531,1,1,531,1,0,0.8,0.2,-0.748639873136816,-0.748639873136816,750,1,0,congruent,0.1,2521.1119900705,3187.59438489891
8,104,1,35,0.5,0.5,0.5,1,2,0.4,1,536,1,1,536,1,0,0.6,NaN,-0.719954544776525,-0.719954544776525,750,0,0,incongruent,1,1968.40151281046,1799.36558021087
8,104,1,36,0.5,-0.5,0,3,NaN,0.6,4,506,0,1,NaN,0,0,1,NaN,-0.892066514938269,NaN,750,0,1,neutral,0,23266.4443984124,677.0808868505
8,104,1,37,-0.5,0.5,0.5,4,3,0.6,4,686,1,1,686,1,0,1,0,0.140605306032197,0.140605306032197,750,0,0,incongruent,0.1,3569.59812448834,2613.6905618329
8,104,1,38,-0.5,-0.5,0.5,3,2,0.8,3,800,1,0,800,0,0,1.2,0.4,0.794630792646825,0.794630792646825,750,0,0,incongruent,0,3349.12810047083,2820.60562550105
8,104,1,39,-0.5,-0.5,0.5,1,3,0.8,1,619,1,1,619,1,0,0.8,0.2,-0.243778093995699,-0.243778093995699,750,0,0,incongruent,0.1,5711.6161166455,2593.5014054709
8,104,1,40,-0.5,0.5,0.5,4,2,0.8,4,715,1,1,715,1,0,0.8,0.2,0.306980210521883,0.306980210521883,750,0,0,incongruent,0.1,2775.20298509028,2828.7113313329
8,104,1,41,0.5,-0.5,0.5,3,4,1,1,857,0,0,NaN,1,0,0.6,NaN,1.12164353595414,NaN,750,0,1,incongruent,1,11870.4272171264,3195.8725465177
8,104,1,42,0.5,0.5,0,1,NaN,1,1,530,1,1,530,1,0,1,NaN,-0.754376938808874,-0.754376938808874,750,0,0,neutral,1,1733.13064398187,821.403545361019
8,104,1,44,0.5,0.5,-0.5,1,1,0.8,1,937,1,0,937,0,0,1.2,NaN,1.58060878971879,1.58060878971879,750,1,0,congruent,0,3835.472516089,1770.92624383475
8,104,1,45,-0.5,-0.5,0.5,2,4,0.6,3,693,0,1,NaN,0,0,1,0.4,0.180764765736604,NaN,750,0,1,incongruent,0,1897.88510977569,922.00939195747
8,104,1,46,0.5,0.5,0,3,NaN,0.6,1,812,0,0,NaN,0,0,0.8,NaN,0.863475580711523,NaN,750,0,1,neutral,0,8437.16083291272,1496.49198603386
8,104,1,47,0.5,-0.5,-0.5,4,4,0.4,4,508,1,1,508,0,0,0.4,NaN,-0.880592383594153,-0.880592383594153,750,1,0,congruent,0,1374.80910125152,967.524382974747
8,104,1,48,-0.5,0.5,0,2,NaN,0.4,2,933,1,0,933,0,0,0,0.4,1.55766052703056,1.55766052703056,750,0,0,neutral,0,1609.63022748829,1087.12995911925
8,104,1,49,0.5,-0.5,0.5,3,2,0.2,1,951,0,0,NaN,0,0,0,NaN,1.66092770912761,NaN,750,0,1,incongruent,0,15157.3403275079,3333.43628331876
8,104,1,50,-0.5,0.5,0.5,2,3,0.2,2,907,1,0,907,0,0,0,0.4,1.40849681955705,1.40849681955705,750,0,0,incongruent,0,2880.13738925862,1911.35055778705
8,104,1,51,-0.5,0.5,0,3,NaN,0,3,988,1,0,988,0,0,0,0.4,1.87319913899376,1.87319913899376,750,0,0,neutral,0,1185.65902718009,1757.65996153356
8,104,1,52,-0.5,-0.5,-0.5,4,4,0,4,596,1,1,596,0,0,0,0.4,-0.375730604453036,-0.375730604453036,750,1,0,congruent,0,762.311943223601,1302.52888032531
8,104,1,53,0.5,0.5,-0.5,2,2,0,2,699,1,1,699,1,0,0,NaN,0.215187159768953,0.215187159768953,750,1,0,congruent,1,428.317155225322,1928.05109178893
8,104,1,54,-0.5,-0.5,0,4,NaN,0.2,4,798,1,0,798,0,0,0.4,0.4,0.783156661302709,0.783156661302709,750,0,0,neutral,0,683.946184800425,1758.24285893644
8,104,1,55,0.5,0.5,0.5,2,3,0.2,2,863,1,0,863,0,0,0.4,NaN,1.15606592998649,1.15606592998649,750,0,0,incongruent,0,3075.75842275749,632.773042911783
8,104,1,56,0.5,-0.5,0,1,NaN,0.2,1,938,1,0,938,0,0,0.4,NaN,1.58634585539085,1.58634585539085,750,0,0,neutral,0,1612.34678262434,5575.38056994088
8,104,1,57,-0.5,0.5,-0.5,3,3,0.2,3,410,1,1,410,1,0,0.4,0.4,-1.44282481945585,-1.44282481945585,750,1,0,congruent,0.1,458.1224280342,2988.8062432849
8,104,1,59,0.5,-0.5,0.5,2,1,0.4,2,927,1,0,927,1,0,0.2,NaN,1.52323813299821,1.52323813299821,750,0,0,incongruent,1,1310.556096736,5118.83912811975
8,104,1,60,-0.5,-0.5,-0.5,4,4,0.4,4,716,1,1,716,1,0,0.6,0.2,0.312717276193941,0.312717276193941,750,1,0,congruent,0.1,1626.13177216993,738.680794543662
8,104,1,61,0.5,-0.5,0.5,3,1,0.4,3,933,1,0,933,0,0,0.8,NaN,1.55766052703056,1.55766052703056,750,0,0,incongruent,0,18316.6234533058,1848.74546482168
8,104,1,62,-0.5,-0.5,0,2,NaN,0.4,2,942,1,0,942,0,0,0.8,0.4,1.60929411807908,1.60929411807908,750,0,0,neutral,0,378.423588400957,1033.26132947925
8,104,1,63,0.5,0.5,-0.5,4,4,0.4,4,741,1,1,741,1,0,0.6,NaN,0.456143917995395,0.456143917995395,750,1,0,congruent,1,557.717504184197,4040.35072335071
8,104,1,65,-0.5,-0.5,0.5,4,1,0.4,4,656,1,1,656,0,0,0.6,0.2,-0.0315066641295477,-0.0315066641295477,750,0,0,incongruent,0,486.888368349837,661.525828921503
8,104,1,66,-0.5,0.5,-0.5,2,2,0.4,2,724,1,1,724,1,0,0.4,0.2,0.358613801570406,0.358613801570406,750,1,0,congruent,0.1,1178.54794929209,559.31221469517
8,104,1,68,-0.5,-0.5,0.5,4,3,0.6,4,438,1,1,438,0,0,0.8,0.4,-1.28218698063822,-1.28218698063822,750,0,0,incongruent,0,2033.64917257746,508.742303515085
8,104,1,69,-0.5,-0.5,0,2,NaN,0.6,4,599,0,1,NaN,0,0,0.4,0.4,-0.358519407436862,NaN,750,0,1,neutral,0,1678.21649315387,2103.01240158197
8,104,1,71,-0.5,0.5,-0.5,4,4,0.4,4,480,1,1,480,1,0,0.4,0.4,-1.04123022241178,-1.04123022241178,750,1,0,congruent,0.1,783.027448569361,908.958646480174
8,104,1,72,-0.5,0.5,0.5,2,1,0.6,2,915,1,0,915,0,0,0.4,0.6,1.45439334493351,1.45439334493351,750,0,0,incongruent,0,3157.83233273438,4165.55478086524
8,104,1,74,-0.5,-0.5,0.5,3,1,0.4,3,899,1,0,899,0,0,0.2,0.2,1.36260029418058,1.36260029418058,750,0,0,incongruent,0,1576.96879565272,5827.15399717168
8,104,1,75,-0.5,-0.5,-0.5,2,2,0.4,2,878,1,0,878,0,0,0.2,0.2,1.24212191506736,1.24212191506736,750,1,0,congruent,0,3423.8734601343,3568.09192119423
8,104,1,76,0.5,-0.5,0,4,NaN,0.4,4,737,1,1,737,0,0,0.2,NaN,0.433195655307162,0.433195655307162,750,0,0,neutral,0,953.836232639175,522.217930082181
8,104,1,77,0.5,0.5,-0.5,2,2,0.4,3,725,0,1,NaN,0,0,0,NaN,0.364350867242464,NaN,750,0,1,congruent,0,3878.83250792449,598.962798831999
8,104,1,78,0.5,0.5,-0.5,4,4,0.2,4,498,1,1,498,1,0,0,NaN,-0.937963040314735,-0.937963040314735,750,1,0,congruent,1,3374.43256808747,1431.25712857887
8,104,1,79,-0.5,-0.5,0,3,NaN,0.4,3,825,1,0,825,1,0,0.4,0.2,0.938057434448279,0.938057434448279,750,0,0,neutral,0.1,3359.86614044781,2357.1915013156
8,104,1,80,-0.5,0.5,0.5,2,3,0.4,3,826,0,0,NaN,0,0,0.6,0.4,0.943794500120337,NaN,750,1,0,incongruent,0,4653.88844432725,1612.41266479537
8,104,1,81,0.5,-0.5,0,4,NaN,0.2,4,741,1,1,741,0,0,0.6,NaN,0.456143917995395,0.456143917995395,750,0,0,neutral,0,568.336521297885,5533.55319726601
8,104,1,83,-0.5,-0.5,0.5,4,1,0.2,4,665,1,1,665,0,0,0.6,0.2,0.0201269269189756,0.0201269269189756,750,0,0,incongruent,0,848.59651352937,735.573344992123
8,104,1,84,-0.5,-0.5,0.5,2,4,0.2,4,672,0,1,NaN,0,0,0.2,0.2,0.0602863866233826,NaN,750,1,0,incongruent,0,4687.88822962315,4730.50823921806
8,104,1,86,0.5,0.5,0.5,4,3,0.2,3,933,0,0,NaN,0,0,0.4,NaN,1.55766052703056,NaN,750,1,0,incongruent,0,1780.2395415472,7466.34760714632
8,104,1,87,0.5,0.5,-0.5,1,1,0.2,1,804,1,0,804,0,0,0.4,NaN,0.817579055335058,0.817579055335058,750,1,0,congruent,0,2792.30570996963,7270.04481744885
8,104,1,89,0.5,-0.5,-0.5,2,2,0.2,1,845,0,0,NaN,1,0,0.6,NaN,1.05279874788944,NaN,750,0,1,congruent,1,3509.38853781781,2970.69118603472
8,104,1,90,-0.5,-0.5,0,4,NaN,0.2,4,620,1,1,620,1,0,1,0.4,-0.238041028323641,-0.238041028323641,750,0,0,neutral,0.1,2425.30303382731,1379.82199593887
8,104,1,91,0.5,-0.5,-0.5,2,2,0.2,2,849,1,0,849,0,0,0.8,NaN,1.07574701057767,1.07574701057767,750,1,0,congruent,0,2182.24442265326,768.21363966778
8,104,1,93,-0.5,0.5,0.5,2,3,0.2,2,965,1,0,965,0,0,0.8,0.4,1.74124662853642,1.74124662853642,750,0,0,incongruent,0,4350.49920018884,10889.5092086859
8,104,1,94,0.5,0.5,-0.5,4,4,0,4,511,1,1,511,1,0,0.6,NaN,-0.863381186577979,-0.863381186577979,750,1,0,congruent,1,730.899643435618,640.141889346174
8,104,1,95,-0.5,0.5,0,1,NaN,0.2,1,363,1,1,363,1,0,0.6,0.2,-1.71246690604258,-1.71246690604258,750,0,0,neutral,0.1,1442.85526230439,679.267789667447
8,104,1,97,0.5,-0.5,0,4,NaN,0.4,4,726,1,1,726,0,0,1,NaN,0.370087932914522,0.370087932914522,750,0,0,neutral,0,2400.35797111725,4357.5388350726
8,104,1,98,-0.5,-0.5,-0.5,2,2,0.4,3,690,0,1,NaN,1,0,1,0.6,0.163553568720429,NaN,750,0,1,congruent,0.1,2149.93659792714,4026.24555094916
8,104,1,100,-0.5,0.5,0,2,NaN,0.4,2,846,1,0,846,0,0,1,0.2,1.0585358135615,1.0585358135615,750,0,0,neutral,0,1702.67131624,2814.24341962333
8,104,1,101,-0.5,-0.5,-0.5,4,4,0.4,4,590,1,1,590,1,0,0.8,0.8,-0.410152998485385,-0.410152998485385,750,1,0,congruent,0.1,867.316154000634,1773.62104933616
8,104,1,103,0.5,0.5,0,4,NaN,0.4,4,519,1,1,519,1,0,0.6,NaN,-0.817484661201514,-0.817484661201514,750,0,0,neutral,1,1407.60689032023,1316.18979282436
8,104,1,104,-0.5,-0.5,-0.5,3,3,0.6,3,946,1,0,946,0,0,0.8,1,1.63224238076731,1.63224238076731,750,1,0,congruent,0,1733.44645045033,1993.76553445141
8,104,1,105,-0.5,0.5,0.5,1,4,0.6,1,959,1,0,959,0,0,0.6,0.2,1.70682423450407,1.70682423450407,750,0,0,incongruent,0,3984.18891552196,1155.74619207136
8,104,1,106,0.5,-0.5,0.5,4,1,0.4,4,854,1,0,854,0,0,0.6,NaN,1.10443233893797,1.10443233893797,750,0,0,incongruent,0,4964.71271546266,2568.06618565251
8,104,1,107,0.5,-0.5,0,1,NaN,0.4,1,973,1,0,973,1,0,0.4,NaN,1.78714315391288,1.78714315391288,750,0,0,neutral,1,1209.12641401467,619.237310776177
8,104,1,108,0.5,-0.5,-0.5,3,3,0.4,3,786,1,0,786,0,0,0.8,NaN,0.714311873238011,0.714311873238011,750,1,0,congruent,0,10959.6387681111,1478.01411153747
8,104,1,110,-0.5,-0.5,0.5,3,4,0.4,1,688,0,1,NaN,0,0,0.4,0.6,0.152079437376313,NaN,750,0,1,incongruent,0,9128.08178816156,5225.90049784023
8,104,1,111,-0.5,-0.5,0,1,NaN,0.4,1,727,1,1,727,1,0,0.4,0.4,0.375824998586581,0.375824998586581,750,0,0,neutral,0.1,594.907695068194,3925.90874190044
8,104,1,112,-0.5,0.5,0.5,2,3,0.4,2,711,1,1,711,1,0,0.6,0.2,0.28403194783365,0.28403194783365,750,0,0,incongruent,0.1,2089.69259626531,2932.13684760718
8,104,1,114,0.5,0.5,0.5,4,2,0.4,4,950,1,0,950,0,0,0.4,NaN,1.65519064345555,1.65519064345555,750,0,0,incongruent,0,1229.62048445813,3074.74313542922
8,104,1,115,0.5,-0.5,0.5,3,1,0.4,3,952,1,0,952,1,0,0.4,NaN,1.66666477479966,1.66666477479966,750,0,0,incongruent,1,1235.51676043462,774.451126870767
8,104,1,116,-0.5,0.5,-0.5,4,4,0.4,4,573,1,1,573,1,0,0.8,0.4,-0.507683114910374,-0.507683114910374,750,1,0,congruent,0.1,2160.99337111428,921.965348508896
8,104,1,117,-0.5,-0.5,0,3,NaN,0.6,2,841,0,0,NaN,0,0,0.8,0.4,1.02985048520121,NaN,750,0,1,neutral,0,2616.42131749041,4376.15057693195
8,104,1,118,0.5,0.5,-0.5,2,2,0.6,2,975,1,0,975,0,0,0.6,NaN,1.798617285257,1.798617285257,750,1,0,congruent,0,19737.1925815738,5183.91287606822
8,104,1,119,0.5,0.5,-0.5,3,3,0.4,3,820,1,0,820,0,0,0.6,NaN,0.909372106087988,0.909372106087988,750,1,0,congruent,0,3717.9697534562,4653.09476557589
8,104,1,120,0.5,0.5,0,1,NaN,0.4,1,773,1,0,773,0,0,0.6,NaN,0.639730019501255,0.639730019501255,750,0,0,neutral,0,523.94450966477,1037.41769210147
8,104,1,121,0.5,-0.5,-0.5,4,4,0.2,4,746,1,1,746,0,0,0.2,NaN,0.484829246355685,0.484829246355685,750,1,0,congruent,0,4690.31325648078,7858.91066402424
8,104,1,122,0.5,0.5,0.5,2,3,0.2,2,951,1,0,951,0,0,0,NaN,1.66092770912761,1.66092770912761,750,0,0,incongruent,0,9837.69092999068,2228.92707220752
8,104,1,123,0.5,-0.5,0.5,1,2,0.2,1,686,1,1,686,0,0,0,NaN,0.140605306032197,0.140605306032197,750,0,0,incongruent,0,1827.43541659854,1054.43315587186
8,104,1,124,0.5,-0.5,-0.5,3,3,0.2,4,951,0,0,NaN,1,0,0,NaN,1.66092770912761,NaN,750,0,1,congruent,1,6840.16809040274,3644.39526380393
8,104,1,125,0.5,-0.5,0.5,4,2,0.2,4,757,1,0,757,1,0,0.4,NaN,0.547936968748325,0.547936968748325,750,0,0,incongruent,1,2105.26447095239,1364.94043889348
8,104,1,126,-0.5,-0.5,0,2,NaN,0.2,2,974,1,0,974,0,0,0.8,0.2,1.79288021958494,1.79288021958494,750,0,0,neutral,0,1614.61906242964,1587.86329899965
8,104,1,127,0.5,-0.5,0.5,4,3,0.2,4,599,1,1,599,0,0,0.8,NaN,-0.358519407436862,-0.358519407436862,750,0,0,incongruent,0,1970.92145827635,2266.07796383534
8,104,1,130,0.5,-0.5,0.5,4,2,0.2,4,578,1,1,578,0,0,0.4,NaN,-0.478997786550083,-0.478997786550083,750,0,0,incongruent,0,664.277076517364,4140.4580323227
8,104,1,131,-0.5,0.5,-0.5,1,1,0.2,4,585,0,1,NaN,0,0,0,0.4,-0.438838326845676,NaN,750,0,1,congruent,0,17092.7569245619,1990.78111153664
8,104,1,133,-0.5,-0.5,-0.5,1,1,0,1,688,1,1,688,0,0,0,0.2,0.152079437376313,0.152079437376313,750,1,0,congruent,0,2849.61062771548,1288.86305191434
8,104,1,135,0.5,0.5,0.5,4,2,0,4,669,1,1,669,1,0,0,NaN,0.0430751896072082,0.0430751896072082,750,0,0,incongruent,1,3571.43854825702,3247.92081345704
8,104,1,136,-0.5,-0.5,0.5,2,1,0.2,2,795,1,0,795,0,0,0.4,0.2,0.765945464286534,0.765945464286534,750,0,0,incongruent,0,3805.66151109546,4071.58637599656
8,104,1,137,0.5,0.5,-0.5,4,4,0.2,4,592,1,1,592,1,0,0.4,NaN,-0.398678867141269,-0.398678867141269,750,1,0,congruent,1,1485.16942732827,2366.26420961614
8,104,1,138,-0.5,0.5,-0.5,3,3,0.4,3,915,1,0,915,0,0,0.8,0.4,1.45439334493351,1.45439334493351,750,1,0,congruent,0,1791.64301380062,3960.12517968349
8,104,1,139,0.5,-0.5,0.5,1,4,0.4,1,540,1,1,540,1,0,0.8,NaN,-0.697006282088293,-0.697006282088293,750,0,0,incongruent,1,2465.95866286865,946.697598071006
8,104,1,140,0.5,-0.5,0.5,2,1,0.4,2,767,1,0,767,0,0,1.2,NaN,0.605307625468906,0.605307625468906,750,0,0,incongruent,0,658.885853632299,3845.25378995951
8,104,1,141,0.5,0.5,0.5,1,2,0.4,1,417,1,1,417,1,0,0.8,NaN,-1.40266535975144,-1.40266535975144,750,0,0,incongruent,1,1564.40255951376,2868.37149353029
8,104,1,142,-0.5,-0.5,-0.5,4,4,0.6,4,556,1,1,556,1,0,1.2,0,-0.605213231335362,-0.605213231335362,750,1,0,congruent,0.1,891.843347992516,1793.14397707473
8,104,1,144,0.5,-0.5,-0.5,4,4,0.6,4,555,1,1,555,1,0,1,NaN,-0.61095029700742,-0.61095029700742,750,1,0,congruent,1,1232.62162097199,2021.48304856326
8,104,1,145,-0.5,0.5,0,3,NaN,0.6,3,997,1,0,997,0,0,1,0.4,1.92483273004228,1.92483273004228,750,0,0,neutral,0,2383.33804391253,1393.47311647246
8,104,1,147,0.5,0.5,-0.5,3,3,0.4,3,697,1,1,697,1,0,0.6,NaN,0.203713028424836,0.203713028424836,750,1,0,congruent,1,1098.9390300867,851.237912807073
8,104,1,148,0.5,0.5,0,2,NaN,0.4,2,924,1,0,924,0,0,0.8,NaN,1.50602693598204,1.50602693598204,750,0,0,neutral,0,2114.86767439363,6288.47380221011
8,104,1,150,-0.5,0.5,0,2,NaN,0.2,2,412,1,1,412,1,0,0.4,0.2,-1.43135068811174,-1.43135068811174,750,0,0,neutral,0.1,2190.81886905384,4919.93163512256
8,104,2,151,-0.5,0.5,-0.5,1,1,0.4,1,469,1,1,469,1,0,0.6,0.2,-1.10433794480442,-1.10433794480442,750,1,0,congruent,0.1,734.391395666901,971.24976091702
8,104,2,152,-0.5,0.5,0,4,NaN,0.6,4,522,1,1,522,1,0,0.8,0.4,-0.800273464185339,-0.800273464185339,750,0,0,neutral,0.1,925.687024777135,2030.65362098503
8,104,2,154,0.5,-0.5,0,1,NaN,0.6,1,644,1,1,644,0,0,0.6,NaN,-0.100351452194245,-0.100351452194245,750,0,0,neutral,0,357.621471383514,1821.91479493694
8,104,2,156,-0.5,-0.5,0.5,4,3,0.6,4,800,1,0,800,0,0,0.8,0.2,0.794630792646825,0.794630792646825,750,0,0,incongruent,0,3727.60174862874,4068.86579191098
8,104,2,157,0.5,-0.5,0.5,2,1,0.6,2,967,1,0,967,1,0,0.6,NaN,1.75272075988054,1.75272075988054,750,0,0,incongruent,1,1799.92417247869,2445.59356433711
8,104,2,158,0.5,0.5,0.5,4,3,0.6,4,646,1,1,646,1,0,0.8,NaN,-0.0888773208501292,-0.0888773208501292,750,0,0,incongruent,1,976.607840064915,957.136343369708
8,104,2,159,-0.5,-0.5,0,2,NaN,0.8,2,882,1,0,882,1,0,1.2,0.2,1.26507017775559,1.26507017775559,750,0,0,neutral,0.1,648.780963287175,2677.1508130459
8,104,2,160,0.5,0.5,0.5,3,4,0.8,3,824,1,0,824,0,0,1.4,NaN,0.932320368776221,0.932320368776221,750,0,0,incongruent,0,5158.15931034396,3472.72284991285
8,104,2,161,-0.5,0.5,-0.5,1,1,0.8,1,522,1,1,522,1,0,1,0.6,-0.800273464185339,-0.800273464185339,750,1,0,congruent,0.1,1111.4395426319,988.733428710098
8,104,2,162,0.5,0.5,0,4,NaN,0.8,4,503,1,1,503,1,0,1.2,NaN,-0.909277711954444,-0.909277711954444,750,0,0,neutral,1,3172.92488470838,2130.17853935747
8,104,2,163,0.5,-0.5,-0.5,3,3,0.8,3,911,1,0,911,1,0,1.2,NaN,1.43144508224528,1.43144508224528,750,1,0,congruent,1,7997.58838712874,942.139692396042
8,104,2,164,0.5,-0.5,0,2,NaN,0.8,1,643,0,1,NaN,1,0,1.2,NaN,-0.106088517866304,NaN,750,0,1,neutral,1,12212.7211985375,1609.78493412618
8,104,2,165,0.5,-0.5,-0.5,1,1,0.8,1,532,1,1,532,0,0,1.4,NaN,-0.742902807464758,-0.742902807464758,750,1,0,congruent,0,2321.14411037472,464.866045533809
8,104,2,166,0.5,0.5,0,4,NaN,0.8,4,747,1,1,747,1,0,1.4,NaN,0.490566312027743,0.490566312027743,750,0,0,neutral,1,2819.42883655526,2698.57716842998
8,104,2,167,0.5,-0.5,0.5,1,2,0.8,1,799,1,0,799,0,0,1.6,NaN,0.788893726974767,0.788893726974767,750,0,0,incongruent,0,2783.52844738614,3618.02789001963
8,104,2,168,-0.5,-0.5,-0.5,3,3,0.8,3,378,1,1,378,1,0,1.2,0.4,-1.62641092096171,-1.62641092096171,750,1,0,congruent,0.1,1699.39945385658,1071.87578634374
8,104,2,169,-0.5,-0.5,0,2,NaN,0.8,1,624,0,1,NaN,1,0,1,0.6,-0.215092765635408,NaN,750,0,1,neutral,0.1,23621.5142564855,1305.2122590397
8,104,2,170,0.5,0.5,0.5,1,3,0.8,1,710,1,1,710,1,0,0.8,NaN,0.278294882161592,0.278294882161592,750,0,0,incongruent,1,475.656775998132,556.851442760147
8,104,2,171,-0.5,-0.5,0,4,NaN,0.8,4,848,1,0,848,1,0,1.2,0.6,1.07000994490562,1.07000994490562,750,0,0,neutral,0.1,3948.62684222066,10024.4653328552
8,104,2,172,-0.5,-0.5,0.5,1,3,0.8,1,653,1,1,653,1,0,1,0.8,-0.0487178611457222,-0.0487178611457222,750,0,0,incongruent,0.1,1263.70830791711,1576.09576275377
8,104,2,173,0.5,-0.5,0.5,3,2,0.8,3,854,1,0,854,1,0,1.2,NaN,1.10443233893797,1.10443233893797,750,0,0,incongruent,1,2365.94532391536,1535.07384245681
8,104,2,174,-0.5,0.5,-0.5,4,4,0.8,4,577,1,1,577,1,0,1.4,0.8,-0.484734852222141,-0.484734852222141,750,1,0,congruent,0.1,2306.64167823219,11941.6462373912
8,104,2,175,0.5,0.5,0,1,NaN,1,1,553,1,1,553,1,0,1.4,NaN,-0.622424428351537,-0.622424428351537,750,0,0,neutral,1,2056.74016714926,859.185469367305
8,104,2,176,-0.5,0.5,0.5,3,4,1,3,783,1,0,783,0,0,1.4,1,0.697100676221837,0.697100676221837,750,0,0,incongruent,0,7676.66200695177,2875.47764438318
8,104,2,177,-0.5,0.5,0,4,NaN,0.8,4,546,1,1,546,1,0,1.2,0.8,-0.662583888055944,-0.662583888055944,750,0,0,neutral,0.1,5102.39285341438,1017.31835542061
8,104,2,179,-0.5,0.5,0.5,2,1,0.8,4,854,0,0,NaN,0,0,1.2,0.8,1.10443233893797,NaN,750,0,1,incongruent,0,4705.3343189039,2478.2911271936
8,104,2,180,-0.5,0.5,-0.5,3,3,0.6,3,842,1,0,842,0,0,1,0.6,1.03558755087327,1.03558755087327,750,1,0,congruent,0,2757.24964733032,777.719632343861
8,104,2,181,-0.5,-0.5,0.5,4,2,0.4,4,615,1,1,615,0,0,0.6,1,-0.266726356683932,-0.266726356683932,750,0,0,incongruent,0,804.004890932144,1465.42722640675
8,104,2,183,0.5,0.5,0.5,4,1,0.4,4,582,1,1,582,1,0,0.8,NaN,-0.45604952386185,-0.45604952386185,750,0,0,incongruent,1,890.362216202181,1015.41626129835
8,104,2,184,0.5,0.5,0.5,2,3,0.6,3,777,0,0,NaN,0,0,0.8,NaN,0.662678282189488,NaN,750,1,0,incongruent,0,6909.11053957096,362.908547985206
8,104,2,185,0.5,-0.5,-0.5,1,1,0.4,1,388,1,1,388,1,0,0.8,NaN,-1.56904026424113,-1.56904026424113,750,1,0,congruent,1,1285.76691811303,480.838129424528
8,104,2,186,0.5,-0.5,-0.5,3,3,0.4,3,870,1,0,870,1,0,1.2,NaN,1.1962253896909,1.1962253896909,750,1,0,congruent,1,4670.86794600323,1425.32358060862
8,104,2,188,-0.5,-0.5,0.5,4,2,0.4,4,585,1,1,585,0,0,1.2,0.6,-0.438838326845676,-0.438838326845676,750,0,0,incongruent,0,5301.54974091274,2150.15135037815
8,104,2,190,-0.5,0.5,-0.5,1,1,0.2,1,333,1,1,333,1,0,0.8,0.2,-1.88457887620433,-1.88457887620433,750,1,0,congruent,0.1,1903.49018600017,3106.96942868315
8,104,2,191,0.5,-0.5,0,4,NaN,0.4,4,585,1,1,585,1,0,0.6,NaN,-0.438838326845676,-0.438838326845676,750,0,0,neutral,1,4907.66573093115,1346.53588583637
8,104,2,192,-0.5,0.5,-0.5,1,1,0.4,1,891,1,0,891,0,0,0.6,0.4,1.31670376880412,1.31670376880412,750,1,0,congruent,0,1912.05596101602,905.016211553511
8,104,2,193,-0.5,0.5,0.5,2,4,0.4,2,332,1,1,332,1,0,0.6,0.2,-1.89031594187639,-1.89031594187639,750,0,0,incongruent,0.1,2724.94535028421,630.781935529197
8,104,2,194,-0.5,0.5,0.5,4,1,0.4,4,533,1,1,533,1,0,0.8,0.4,-0.7371657417927,-0.7371657417927,750,0,0,incongruent,0.1,751.255203402986,2758.15891318335
8,104,2,195,-0.5,-0.5,0,2,NaN,0.6,1,528,0,1,NaN,0,0,1,0.4,-0.76585107015299,NaN,750,0,1,neutral,0,2513.88285794273,978.574066709667
8,104,2,196,0.5,0.5,-0.5,4,4,0.6,4,625,1,1,625,1,0,0.8,NaN,-0.20935569996335,-0.20935569996335,750,1,0,congruent,1,2947.89390015387,884.21649184425
8,104,2,197,-0.5,-0.5,-0.5,2,2,0.8,2,865,1,0,865,1,0,0.8,0.2,1.1675400613306,1.1675400613306,750,1,0,congruent,0.1,4370.58656694922,1958.5329728262
8,104,2,199,-0.5,0.5,0.5,2,1,0.8,2,969,1,0,969,0,0,1,0.6,1.76419489122465,1.76419489122465,750,0,0,incongruent,0,1330.79073287082,916.172931198216
8,104,2,200,-0.5,-0.5,0,1,NaN,0.6,1,872,1,0,872,0,0,0.8,0.4,1.20769952103501,1.20769952103501,750,0,0,neutral,0,3066.07501959563,4417.45577072142
8,104,2,201,-0.5,-0.5,-0.5,2,2,0.6,2,975,1,0,975,0,0,0.8,0.4,1.798617285257,1.798617285257,750,1,0,congruent,0,1420.55185053421,2059.11965034294
8,104,2,202,-0.5,0.5,-0.5,3,3,0.6,3,821,1,0,821,0,0,0.4,0.6,0.915109171760046,0.915109171760046,750,1,0,congruent,0,5603.48735089357,5879.99163022797
8,104,2,203,0.5,-0.5,-0.5,2,2,0.6,2,651,1,1,651,1,0,0.2,NaN,-0.0601919924898384,-0.0601919924898384,750,1,0,congruent,1,5407.01314970207,1533.71097400621
8,104,2,204,0.5,0.5,0,4,NaN,0.6,4,663,1,1,663,1,0,0.4,NaN,0.0086527955748593,0.0086527955748593,750,0,0,neutral,1,1252.38615253987,6922.78710439659
8,104,2,205,0.5,0.5,0.5,3,4,0.6,3,982,1,0,982,0,0,0.8,NaN,1.83877674496141,1.83877674496141,750,0,0,incongruent,0,2014.9540793621,3448.9498678896
8,104,2,206,-0.5,0.5,-0.5,1,1,0.4,1,687,1,1,687,1,0,0.8,0.4,0.146342371704255,0.146342371704255,750,1,0,congruent,0.1,1345.21114220062,1559.00336697248
8,104,2,207,-0.5,0.5,0,2,NaN,0.4,2,711,1,1,711,1,0,1,0.6,0.28403194783365,0.28403194783365,750,0,0,neutral,0.1,6897.30014004748,636.525422527048
8,104,2,208,-0.5,-0.5,-0.5,4,4,0.6,4,495,1,1,495,1,0,1.2,0.4,-0.955174237330909,-0.955174237330909,750,1,0,congruent,0.1,1564.93329352145,2449.86589584111
8,104,2,209,-0.5,-0.5,0,3,NaN,0.6,2,799,0,0,NaN,1,0,1,0.6,0.788893726974767,NaN,750,0,1,neutral,0.1,2319.71078400725,1567.1161821699
8,104,2,210,-0.5,0.5,-0.5,4,4,0.6,4,443,1,1,443,1,0,0.8,0.6,-1.25350165227793,-1.25350165227793,750,1,0,congruent,0.1,3883.7998886382,1162.08098351339
8,104,2,211,0.5,0.5,0.5,1,3,0.8,1,382,1,1,382,1,0,1,NaN,-1.60346265827348,-1.60346265827348,750,0,0,incongruent,1,4249.57110248541,2676.82115068048
8,104,2,212,-0.5,0.5,0,4,NaN,0.8,4,327,1,1,327,1,0,1.2,0.6,-1.91900127023668,-1.91900127023668,750,0,0,neutral,0.1,3111.77540257223,2346.59839326147
8,104,2,213,-0.5,-0.5,-0.5,3,3,1,3,640,1,1,640,1,0,1.2,0.6,-0.123299714882478,-0.123299714882478,750,1,0,congruent,0.1,975.339723696359,1463.3953965528
8,104,2,214,-0.5,0.5,0.5,1,4,1,1,327,1,1,327,1,0,1.2,0.8,-1.91900127023668,-1.91900127023668,750,0,0,incongruent,0.1,1588.93919582105,1417.09069099681
8,104,2,215,0.5,-0.5,-0.5,3,3,1,3,802,1,0,802,1,0,1.2,NaN,0.806104923990941,0.806104923990941,750,1,0,congruent,1,3217.22994421574,5021.60476790384
8,104,2,216,-0.5,-0.5,0,1,NaN,1,4,474,0,1,NaN,1,0,1.4,0.6,-1.07565261644413,NaN,750,0,1,neutral,0.1,19924.9568023182,967.806982935199
8,104,2,217,0.5,-0.5,-0.5,3,3,1,3,426,1,1,426,1,0,1.2,NaN,-1.35103176870292,-1.35103176870292,750,1,0,congruent,1,9260.75247063166,3140.80401112225
8,104,2,218,0.5,0.5,0.5,2,4,1,2,856,1,0,856,0,0,1.4,NaN,1.11590647028208,1.11590647028208,750,0,0,incongruent,0,9778.73072265103,955.181823627216
8,104,2,219,-0.5,-0.5,-0.5,1,1,0.8,1,774,1,0,774,1,0,1.2,0.8,0.645467085173313,0.645467085173313,750,1,0,congruent,0.1,3342.10843209962,1711.98263459347
8,104,2,220,-0.5,0.5,0.5,4,3,0.8,4,709,1,1,709,1,0,1.2,1,0.272557816489534,0.272557816489534,750,0,0,incongruent,0.1,7409.52751819232,4266.12733470954
8,104,2,221,-0.5,-0.5,0,2,NaN,0.8,2,898,1,0,898,1,0,1,1,1.35686322850852,1.35686322850852,750,0,0,neutral,0.1,3396.78460719696,571.346614028112
8,104,2,222,-0.5,-0.5,0.5,4,2,0.8,4,703,1,1,703,1,0,1,1,0.238135422457185,0.238135422457185,750,0,0,incongruent,0.1,508.59944219649,6199.84226987126
8,104,2,223,0.5,0.5,-0.5,1,1,0.8,1,779,1,0,779,0,0,0.8,NaN,0.674152413533604,0.674152413533604,750,1,0,congruent,0,22098.6827632991,3258.78402686369
8,104,2,224,-0.5,0.5,0.5,3,4,0.6,3,804,1,0,804,0,0,0.8,1,0.817579055335058,0.817579055335058,750,0,0,incongruent,0,5097.70448397214,4593.53531373964
8,104,2,225,0.5,0.5,-0.5,1,1,0.4,1,478,1,1,478,1,0,0.6,NaN,-1.0527043537559,-1.0527043537559,750,1,0,congruent,1,813.578065076748,1738.35867327653
8,104,2,226,-0.5,-0.5,0,3,NaN,0.4,3,972,1,0,972,0,0,0.8,1,1.78140608824083,1.78140608824083,750,0,0,neutral,0,611.898072341666,2344.7022329649
8,104,2,227,0.5,0.5,0.5,4,1,0.4,4,916,1,0,916,0,0,0.6,NaN,1.46013041060557,1.46013041060557,750,0,0,incongruent,0,3237.45521117821,5532.17696889708
8,104,2,228,0.5,-0.5,-0.5,2,2,0.4,2,629,1,1,629,0,0,0.4,NaN,-0.186407437275118,-0.186407437275118,750,1,0,congruent,0,5331.48232366254,980.369368378106
8,104,2,229,0.5,-0.5,0,3,NaN,0.4,3,783,1,0,783,0,0,0.4,NaN,0.697100676221837,0.697100676221837,750,0,0,neutral,0,6483.18727057148,1655.59394539258
8,104,2,230,0.5,-0.5,0.5,4,3,0.4,4,576,1,1,576,0,0,0.4,NaN,-0.490471917894199,-0.490471917894199,750,0,0,incongruent,0,525.331219518901,2440.17263815138
8,104,2,231,-0.5,-0.5,0,1,NaN,0.4,1,383,1,1,383,0,0,0,0.8,-1.59772559260142,-1.59772559260142,750,0,0,neutral,0,12000.4471905253,1397.12752195451
8,104,2,232,0.5,0.5,-0.5,4,4,0.4,4,476,1,1,476,1,0,0,NaN,-1.06417848510001,-1.06417848510001,750,1,0,congruent,1,998.314917286248,640.132718137535
8,104,2,233,-0.5,-0.5,-0.5,1,1,0.4,1,619,1,1,619,1,0,0.4,0.6,-0.243778093995699,-0.243778093995699,750,1,0,congruent,0.1,1002.35537023677,4239.12605834326
8,104,2,234,-0.5,0.5,0.5,4,2,0.4,4,454,1,1,454,1,0,0.6,0.8,-1.19039392988529,-1.19039392988529,750,0,0,incongruent,0.1,1022.92056634381,3210.15546353508
8,104,2,235,0.5,0.5,0.5,2,4,0.6,3,592,0,1,NaN,0,0,0.8,NaN,-0.398678867141269,NaN,750,0,1,incongruent,0,3586.52922675744,3155.00465363563
8,104,2,236,0.5,0.5,0,4,NaN,0.6,4,489,1,1,489,1,0,0.8,NaN,-0.989596631363258,-0.989596631363258,750,0,0,neutral,1,5009.98487582468,1557.7248114347
8,104,2,237,-0.5,-0.5,-0.5,1,1,0.6,1,451,1,1,451,1,0,1.2,0.6,-1.20760512690147,-1.20760512690147,750,1,0,congruent,0.1,2605.99329385777,787.736093306205
8,104,2,238,-0.5,-0.5,0,4,NaN,0.6,4,678,1,1,678,0,0,1,0.6,0.0947087806557315,0.0947087806557315,750,0,0,neutral,0,3202.53617604578,1358.46734899648
8,104,2,240,-0.5,0.5,0,4,NaN,0.6,4,467,1,1,467,1,0,1,0.8,-1.11581207614854,-1.11581207614854,750,0,0,neutral,0.1,6127.12730135354,653.674236663849
8,104,2,241,0.5,0.5,-0.5,3,3,0.8,2,774,0,0,NaN,0,0,1.2,NaN,0.645467085173313,NaN,750,0,1,congruent,0,7250.10269429855,5274.79862372421
8,104,2,242,0.5,0.5,0.5,4,2,0.6,4,605,1,1,605,1,0,0.8,NaN,-0.324097013404513,-0.324097013404513,750,0,0,incongruent,1,2822.00761300541,3800.21075601996
8,104,2,243,0.5,0.5,0.5,3,1,0.6,3,721,1,1,721,1,0,1,NaN,0.341402604554232,0.341402604554232,750,0,0,incongruent,1,1075.87952808127,1606.24949645851
8,104,2,244,-0.5,-0.5,-0.5,4,4,0.8,4,627,1,1,627,1,0,1.4,0.4,-0.197881568619234,-0.197881568619234,750,1,0,congruent,0.1,2410.72884337966,2299.30929449298
8,104,2,246,-0.5,0.5,-0.5,1,1,0.6,1,333,1,1,333,1,0,1,0.6,-1.88457887620433,-1.88457887620433,750,1,0,congruent,0.1,3370.20550273934,1213.0102946081
8,104,2,247,-0.5,0.5,0,4,NaN,0.6,4,439,1,1,439,1,0,1.2,0.6,-1.27644991496617,-1.27644991496617,750,0,0,neutral,0.1,2461.19050265047,1230.32223834543
8,104,2,248,0.5,0.5,-0.5,2,2,0.8,2,836,1,0,836,0,0,1,NaN,1.00116515684092,1.00116515684092,750,1,0,congruent,0,1523.36984493524,1794.55727551143
8,104,2,249,-0.5,-0.5,-0.5,3,3,0.6,3,723,1,1,723,0,0,0.6,0.6,0.352876735898348,0.352876735898348,750,1,0,congruent,0,2812.19403840639,3465.04079024551
8,104,2,250,-0.5,0.5,0,4,NaN,0.6,4,446,1,1,446,1,0,0.4,0.8,-1.23629045526176,-1.23629045526176,750,0,0,neutral,0.1,3983.91517867484,655.901493997251
8,104,2,251,0.5,-0.5,-0.5,2,2,0.6,2,951,1,0,951,0,0,0.6,NaN,1.66092770912761,1.66092770912761,750,1,0,congruent,0,2536.20771107926,2750.213430834
8,104,2,252,0.5,-0.5,0.5,4,3,0.6,4,534,1,1,534,1,0,0.4,NaN,-0.731428676120641,-0.731428676120641,750,0,0,incongruent,1,6868.42114817969,1606.88794937264
8,104,2,253,0.5,-0.5,-0.5,1,1,0.6,1,388,1,1,388,1,0,0.6,NaN,-1.56904026424113,-1.56904026424113,750,1,0,congruent,1,2646.73206211286,680.747732707125
8,104,2,255,0.5,-0.5,0.5,3,2,0.8,3,705,1,1,705,0,0,1.2,NaN,0.249609553801301,0.249609553801301,750,0,0,incongruent,0,654.695296228371,1980.93279738203
8,104,2,256,0.5,0.5,0,4,NaN,0.8,4,507,1,1,507,1,0,1,NaN,-0.886329449266211,-0.886329449266211,750,0,0,neutral,1,1888.68690917317,2200.81383148572
8,104,2,257,-0.5,0.5,-0.5,1,1,0.8,1,726,1,1,726,1,0,1.4,0.8,0.370087932914522,0.370087932914522,750,1,0,congruent,0.1,3499.34137844915,2303.88356010279
8,104,2,258,-0.5,0.5,0.5,3,4,0.8,4,601,0,1,NaN,0,0,1.2,1,-0.347045276092746,NaN,750,1,0,incongruent,0,8686.25751416043,1732.8619631589
8,104,2,259,-0.5,0.5,0.5,1,2,0.8,2,756,0,0,NaN,0,0,0.8,0.8,0.542199903076267,NaN,750,1,0,incongruent,0,1105.93077434372,1981.2877676972
8,104,2,261,0.5,0.5,0,4,NaN,0.4,4,505,1,1,505,1,0,0.6,NaN,-0.897803580610328,-0.897803580610328,750,0,0,neutral,1,2872.33192768617,1801.68786406039
8,104,2,262,0.5,0.5,-0.5,3,3,0.4,3,654,1,1,654,1,0,0.6,NaN,-0.042980795473664,-0.042980795473664,750,1,0,congruent,1,1395.97103086202,492.652203233264
8,104,2,263,0.5,-0.5,0,2,NaN,0.4,2,806,1,0,806,0,0,0.8,NaN,0.829053186679174,0.829053186679174,750,0,0,neutral,0,1633.82457047473,3012.23678829859
8,104,2,264,-0.5,0.5,-0.5,3,3,0.4,3,576,1,1,576,1,0,0.8,0.4,-0.490471917894199,-0.490471917894199,750,1,0,congruent,0.1,936.451897628098,1749.27154018141
8,104,2,266,-0.5,-0.5,0.5,4,2,0.6,4,667,1,1,667,0,0,1,0.6,0.0316010582630919,0.0316010582630919,750,0,0,incongruent,0,812.551042466027,6279.57034237775
8,104,2,267,-0.5,-0.5,0.5,2,1,0.6,2,993,1,0,993,0,0,0.6,0.4,1.90188446735405,1.90188446735405,750,0,0,incongruent,0,728.912936935349,5196.74708376338
8,104,2,268,-0.5,-0.5,-0.5,3,3,0.6,3,609,1,1,609,0,0,0.2,0.2,-0.301148750716281,-0.301148750716281,750,1,0,congruent,0,713.726640805796,1170.17655605795
8,104,2,269,-0.5,0.5,0,1,NaN,0.6,1,677,1,1,677,1,0,0.2,0.4,0.0889717149836733,0.0889717149836733,750,0,0,neutral,0.1,2131.16521772791,3281.64582215269
8,104,2,270,-0.5,0.5,-0.5,3,3,0.8,3,810,1,0,810,0,0,0.2,0.4,0.852001449367407,0.852001449367407,750,1,0,congruent,0,2615.60185483946,2460.23578112763
8,104,2,271,-0.5,0.5,-0.5,2,2,0.6,2,846,1,0,846,0,0,0.2,0.4,1.0585358135615,1.0585358135615,750,1,0,congruent,0,3655.13602598772,11013.0751779514
8,104,2,272,0.5,0.5,0.5,4,3,0.4,4,635,1,1,635,1,0,0.2,NaN,-0.151985043242769,-0.151985043242769,750,0,0,incongruent,1,1639.12912828578,3349.19423981265
8,104,2,273,-0.5,0.5,-0.5,2,2,0.4,2,864,1,0,864,0,0,0.6,0.4,1.16180299565855,1.16180299565855,750,1,0,congruent,0,1088.11888451672,5909.58819595476
8,104,2,276,-0.5,-0.5,0,2,NaN,0.4,2,735,1,1,735,1,0,0.8,0.2,0.421721523963046,0.421721523963046,750,0,0,neutral,0.1,1637.62483839223,3084.01253013832
8,104,2,277,-0.5,-0.5,0.5,3,2,0.4,3,717,1,1,717,0,0,1,0.2,0.318454341865999,0.318454341865999,750,0,0,incongruent,0,1065.52766907719,1198.80915177006
8,104,2,278,0.5,-0.5,0.5,2,3,0.4,2,673,1,1,673,0,0,0.6,NaN,0.0660234522954408,0.0660234522954408,750,0,0,incongruent,0,4649.55844901524,887.394691648604
8,104,2,279,-0.5,-0.5,0,4,NaN,0.4,4,398,1,1,398,1,0,0.6,0.2,-1.51166960752055,-1.51166960752055,750,0,0,neutral,0.1,1425.80631181627,1216.21263045663
8,104,2,280,-0.5,0.5,-0.5,3,3,0.4,3,780,1,0,780,0,0,0.4,0.2,0.679889479205662,0.679889479205662,750,1,0,congruent,0,4470.68853345794,3348.31066417501
8,104,2,281,-0.5,-0.5,0.5,1,2,0.4,1,410,1,1,410,0,0,0.4,0.4,-1.44282481945585,-1.44282481945585,750,0,0,incongruent,0,1368.68105562054,536.806100703695
8,104,2,282,-0.5,-0.5,-0.5,4,4,0.4,4,451,1,1,451,1,0,0.2,0.4,-1.20760512690147,-1.20760512690147,750,1,0,congruent,0.1,2518.25033424474,252.736005318822
8,104,2,283,0.5,0.5,0.5,3,1,0.4,3,710,1,1,710,1,0,0.4,NaN,0.278294882161592,0.278294882161592,750,0,0,incongruent,1,762.742248589077,3796.44701619979
8,104,2,284,-0.5,-0.5,0.5,1,2,0.4,1,673,1,1,673,0,0,0.8,0.6,0.0660234522954408,0.0660234522954408,750,0,0,incongruent,0,1482.29466929545,3544.22592609868
8,104,2,286,-0.5,-0.5,-0.5,2,2,0.4,2,854,1,0,854,0,0,0.6,0.4,1.10443233893797,1.10443233893797,750,1,0,congruent,0,3242.49605053742,1745.70559750155
8,104,2,287,0.5,0.5,0.5,3,4,0.4,3,805,1,0,805,0,0,0.6,NaN,0.823316121007116,0.823316121007116,750,0,0,incongruent,0,6084.06865988547,2583.84894650258
8,104,2,288,-0.5,-0.5,0,1,NaN,0.4,1,644,1,1,644,0,0,0.4,0.2,-0.100351452194245,-0.100351452194245,750,0,0,neutral,0,462.555956055505,759.263389677197
8,104,2,289,-0.5,0.5,-0.5,4,4,0.4,4,502,1,1,502,1,0,0,0,-0.915014777626502,-0.915014777626502,750,1,0,congruent,0.1,1992.84226070463,913.699202955491
8,104,2,291,0.5,-0.5,-0.5,1,1,0.4,1,552,1,1,552,1,0,0.2,NaN,-0.628161494023595,-0.628161494023595,750,1,0,congruent,1,3838.03404780232,1082.42453898985
8,104,2,292,0.5,0.5,0,4,NaN,0.4,4,471,1,1,471,1,0,0.6,NaN,-1.0928638134603,-1.0928638134603,750,0,0,neutral,1,2193.30563875843,2474.73830807244
8,104,2,293,0.5,-0.5,-0.5,1,1,0.6,1,682,1,1,682,1,0,1,NaN,0.117657043343964,0.117657043343964,750,1,0,congruent,1,1981.59636496378,2844.57045063923
8,104,2,296,-0.5,-0.5,0,2,NaN,0.4,1,583,0,1,NaN,0,0,1.2,0.2,-0.450312458189792,NaN,750,0,1,neutral,0,6032.86236034422,2830.20048217624
8,104,2,297,-0.5,0.5,-0.5,3,3,0.4,3,797,1,0,797,0,0,0.8,0.2,0.777419595630651,0.777419595630651,750,1,0,congruent,0,5898.5599529779,2029.63570175562
8,104,2,298,0.5,0.5,-0.5,4,4,0.2,4,671,1,1,671,1,0,0.4,NaN,0.0545493209513245,0.0545493209513245,750,1,0,congruent,1,4282.89848482856,1061.84948880418
8,104,2,300,0.5,-0.5,0.5,3,2,0.4,3,754,1,0,754,0,0,0.4,NaN,0.530725771732151,0.530725771732151,750,0,0,incongruent,0,475.060513108126,3006.78656643766
8,104,3,301,0.5,0.5,0.5,1,4,0.4,4,704,0,1,NaN,0,0,0.4,NaN,0.243872488129243,NaN,750,1,0,incongruent,0,26121.2268457694,2601.29166153814
8,104,3,302,-0.5,0.5,-0.5,3,3,0.2,3,733,1,1,733,1,0,0.4,0.2,0.410247392618929,0.410247392618929,750,1,0,congruent,0.1,3294.69733552413,3163.30593364734
8,104,3,303,0.5,-0.5,-0.5,2,2,0.4,2,318,1,1,318,1,0,0.6,NaN,-1.9706348612852,-1.9706348612852,750,1,0,congruent,1,1821.71661068726,3194.31503685135
8,104,3,304,-0.5,0.5,-0.5,4,4,0.4,4,525,1,1,525,1,0,0.6,0.4,-0.783062267169165,-0.783062267169165,750,1,0,congruent,0.1,810.313865130673,1330.30643326073
8,104,3,305,0.5,-0.5,-0.5,2,2,0.6,2,374,1,1,374,0,0,0.8,NaN,-1.64935918364994,-1.64935918364994,750,1,0,congruent,0,1106.64875374879,3206.9010858172
8,104,3,306,0.5,0.5,-0.5,1,1,0.6,1,366,1,1,366,1,0,0.8,NaN,-1.69525570902641,-1.69525570902641,750,1,0,congruent,1,3556.46617953271,1430.89876704811
8,104,3,307,-0.5,0.5,0,2,NaN,0.8,3,928,0,0,NaN,0,0,1.2,0.6,1.52897519867027,NaN,750,0,1,neutral,0,7536.29588446742,8381.49179641579
8,104,3,308,-0.5,-0.5,0.5,1,4,0.6,1,919,1,0,919,1,0,1,0,1.47734160762174,1.47734160762174,750,0,0,incongruent,0.1,3539.06046863346,5139.56357138594
8,104,3,309,0.5,0.5,-0.5,3,3,0.6,3,719,1,1,719,1,0,0.8,NaN,0.329928473210115,0.329928473210115,750,1,0,congruent,1,5003.08744903701,3663.52396480426
8,104,3,310,0.5,-0.5,0.5,4,2,0.8,4,769,1,0,769,1,0,1,NaN,0.616781756813023,0.616781756813023,750,0,0,incongruent,1,2654.84015460159,4141.63432518184
8,104,3,311,-0.5,0.5,0,1,NaN,0.8,1,562,1,1,562,1,0,1.4,0.4,-0.570790837303013,-0.570790837303013,750,0,0,neutral,0.1,898.307212728472,2106.48047807028
8,104,3,313,-0.5,0.5,0.5,3,1,0.8,3,854,1,0,854,0,0,1.4,0.6,1.10443233893797,1.10443233893797,750,0,0,incongruent,0,1951.94951372258,7298.39878197662
8,104,3,314,-0.5,-0.5,0,2,NaN,0.6,2,906,1,0,906,1,0,1.2,0.4,1.40275975388499,1.40275975388499,750,0,0,neutral,0.1,4244.31796571874,1925.02673185244
8,104,3,315,-0.5,-0.5,-0.5,3,3,0.6,3,748,1,1,748,1,0,1,0.6,0.496303377699802,0.496303377699802,750,1,0,congruent,0.1,534.830396662646,3758.41501334382
8,104,3,316,-0.5,0.5,0,2,NaN,0.6,2,890,1,0,890,0,0,0.8,0.6,1.31096670313206,1.31096670313206,750,0,0,neutral,0,382.466394131332,2035.39163669846
8,104,3,317,0.5,-0.5,-0.5,3,3,0.4,3,819,1,0,819,1,0,0.6,NaN,0.90363504041593,0.90363504041593,750,1,0,congruent,1,1612.19383081957,2314.31445431552
8,104,3,318,0.5,0.5,-0.5,4,4,0.4,4,545,1,1,545,1,0,0.8,NaN,-0.668320953728002,-0.668320953728002,750,1,0,congruent,1,2291.15056639477,1623.0075273347
8,104,3,319,0.5,-0.5,0,3,NaN,0.6,3,770,1,0,770,1,0,1.2,NaN,0.622518822485081,0.622518822485081,750,0,0,neutral,1,2893.29851657216,2994.05645293678
8,104,3,320,0.5,0.5,-0.5,1,1,0.6,1,528,1,1,528,1,0,1.4,NaN,-0.76585107015299,-0.76585107015299,750,1,0,congruent,1,4404.02848896623,1104.60774473955
8,104,3,321,-0.5,0.5,0.5,3,4,0.6,3,845,1,0,845,0,0,1.6,0.4,1.05279874788944,1.05279874788944,750,0,0,incongruent,0,1264.17564931195,2056.87986788815
8,104,3,322,-0.5,-0.5,0,1,NaN,0.4,1,528,1,1,528,0,0,1.6,0.8,-0.76585107015299,-0.76585107015299,750,0,0,neutral,0,1949.26451679786,1385.72232469231
8,104,3,323,0.5,0.5,-0.5,2,2,0.4,2,525,1,1,525,1,0,1.2,NaN,-0.783062267169165,-0.783062267169165,750,1,0,congruent,1,832.492066318747,4705.40575810289
8,104,3,324,-0.5,-0.5,0,4,NaN,0.6,4,573,1,1,573,1,0,1.2,0.8,-0.507683114910374,-0.507683114910374,750,0,0,neutral,0.1,1016.41363132534,1692.4868675694
8,104,3,325,0.5,0.5,-0.5,1,1,0.6,1,612,1,1,612,1,0,1,NaN,-0.283937553700106,-0.283937553700106,750,1,0,congruent,1,748.593172213217,3425.74328778337
8,104,3,326,-0.5,-0.5,-0.5,3,3,0.8,3,648,1,1,648,1,0,1,0.8,-0.0774031895060129,-0.0774031895060129,750,1,0,congruent,0.1,5001.95321213443,827.092210034954
8,104,3,327,0.5,0.5,0.5,2,4,0.8,2,972,1,0,972,0,0,1.2,NaN,1.78140608824083,1.78140608824083,750,0,0,incongruent,0,1956.96616550915,5906.69155105519
8,104,3,328,0.5,-0.5,-0.5,3,3,0.6,3,718,1,1,718,1,0,1.2,NaN,0.324191407538057,0.324191407538057,750,1,0,congruent,1,3128.97127536202,5440.65269236757
8,104,3,329,0.5,-0.5,0.5,4,2,0.6,4,422,1,1,422,1,0,1.2,NaN,-1.37398003139115,-1.37398003139115,750,0,0,incongruent,1,3301.86491599629,1175.74479112593
8,104,3,330,0.5,0.5,-0.5,3,3,0.6,3,758,1,0,758,0,0,1.4,NaN,0.553674034420383,0.553674034420383,750,1,0,congruent,0,1908.88635990971,1132.26389158881
8,104,3,331,0.5,-0.5,0.5,2,1,0.4,2,899,1,0,899,0,0,1,NaN,1.36260029418058,1.36260029418058,750,0,0,incongruent,0,406.323238207292,4329.72119062197
8,104,3,332,-0.5,-0.5,-0.5,4,4,0.4,4,619,1,1,619,0,0,0.8,0.8,-0.243778093995699,-0.243778093995699,750,1,0,congruent,0,1294.62837431731,1850.68138710352
8,104,3,333,-0.5,-0.5,0,2,NaN,0.4,2,801,1,0,801,0,0,0.8,0.6,0.800367858318883,0.800367858318883,750,0,0,neutral,0,2095.19188626353,7925.61058679649
8,104,3,334,0.5,-0.5,-0.5,4,4,0.4,4,652,1,1,652,1,0,0.4,NaN,-0.0544549268177803,-0.0544549268177803,750,1,0,congruent,1,1711.30484612547,456.650923557599
8,104,3,335,-0.5,-0.5,0,3,NaN,0.4,3,778,1,0,778,1,0,0.4,0.4,0.668415347861546,0.668415347861546,750,0,0,neutral,0.1,840.094240477589,2875.21489710202
8,104,3,336,-0.5,-0.5,0.5,4,2,0.4,4,603,1,1,603,1,0,0.6,0.6,-0.335571144748629,-0.335571144748629,750,0,0,incongruent,0.1,3320.97385620491,2849.01385000457
8,104,3,337,-0.5,0.5,-0.5,3,3,0.4,3,524,1,1,524,1,0,0.8,0.2,-0.788799332841223,-0.788799332841223,750,1,0,congruent,0.1,1813.57511575325,2595.48985184099
8,104,3,338,-0.5,-0.5,0,2,NaN,0.6,2,860,1,0,860,0,0,1,0.6,1.13885473297031,1.13885473297031,750,0,0,neutral,0,1361.25064405037,849.024825918214
8,104,3,340,-0.5,0.5,0,4,NaN,0.6,4,677,1,1,677,1,0,1,0.4,0.0889717149836733,0.0889717149836733,750,0,0,neutral,0.1,743.667980405304,2868.29986445674
8,104,3,341,0.5,-0.5,-0.5,2,2,0.6,2,696,1,1,696,1,0,1,NaN,0.197975962752778,0.197975962752778,750,1,0,congruent,1,689.982338917508,1796.40519662007
8,104,3,342,-0.5,0.5,-0.5,3,3,0.6,3,694,1,1,694,1,0,1.2,0.4,0.186501831408662,0.186501831408662,750,1,0,congruent,0.1,2640.69680102158,3662.40459006605
8,104,3,343,-0.5,-0.5,0.5,1,4,0.8,1,610,1,1,610,1,0,1.2,0.4,-0.295411685044222,-0.295411685044222,750,0,0,incongruent,0.1,1212.6859462066,938.608637930015
8,104,3,344,-0.5,0.5,-0.5,3,3,0.8,3,669,1,1,669,1,0,1.4,0.6,0.0430751896072082,0.0430751896072082,750,1,0,congruent,0.1,928.318758327844,975.537418703865
8,104,3,345,0.5,0.5,0,1,NaN,1,1,525,1,1,525,1,0,1.2,NaN,-0.783062267169165,-0.783062267169165,750,0,0,neutral,1,1466.9705309409,4713.60620357458
8,104,3,346,-0.5,-0.5,-0.5,3,3,1,3,577,1,1,577,1,0,1.4,0.6,-0.484734852222141,-0.484734852222141,750,1,0,congruent,0.1,3107.30770225926,2945.58613236878
8,104,3,347,-0.5,-0.5,0.5,1,4,1,1,665,1,1,665,1,0,1.2,0.8,0.0201269269189756,0.0201269269189756,750,0,0,incongruent,0.1,1054.95910241768,1827.22724924511
8,104,3,348,0.5,0.5,-0.5,3,3,1,3,834,1,0,834,0,0,1.2,NaN,0.989691025496802,0.989691025496802,750,1,0,congruent,0,7022.40372293922,1767.41212219672
8,104,3,350,-0.5,0.5,-0.5,2,2,0.6,2,634,1,1,634,1,0,0.8,0.8,-0.157722108914827,-0.157722108914827,750,1,0,congruent,0.1,1901.83155914691,3557.50458009872
8,104,3,352,0.5,0.5,-0.5,1,1,0.6,1,358,1,1,358,1,0,0.6,NaN,-1.74115223440287,-1.74115223440287,750,1,0,congruent,1,2591.20339644079,357.671348462811
8,104,3,353,-0.5,0.5,0,4,NaN,0.6,4,546,1,1,546,1,0,0.8,0.8,-0.662583888055944,-0.662583888055944,750,0,0,neutral,0.1,757.078028069199,2305.14724718298
8,104,3,355,-0.5,-0.5,0.5,1,2,0.8,1,828,1,0,828,1,0,1,0.8,0.955268631464453,0.955268631464453,750,0,0,incongruent,0.1,1118.09867833811,3934.96234088449
8,104,3,356,0.5,0.5,0,3,NaN,0.8,3,856,1,0,856,0,0,1,NaN,1.11590647028208,1.11590647028208,750,0,0,neutral,0,2489.35095322317,1217.56104250532
8,104,3,357,-0.5,-0.5,-0.5,2,2,0.6,2,770,1,0,770,0,0,0.8,0.8,0.622518822485081,0.622518822485081,750,1,0,congruent,0,759.905926002591,929.868889907336
8,104,3,358,-0.5,0.5,0.5,4,1,0.6,4,527,1,1,527,1,0,0.4,0.6,-0.771588135825048,-0.771588135825048,750,0,0,incongruent,0.1,2306.60318157212,3891.84131231757
8,104,3,359,-0.5,0.5,0.5,1,3,0.6,1,782,1,0,782,0,0,0.4,0.8,0.691363610549779,0.691363610549779,750,0,0,incongruent,0,2396.56555807768,1747.52208896164
8,104,3,360,0.5,-0.5,0.5,3,2,0.4,3,676,1,1,676,0,0,0.4,NaN,0.0832346493116152,0.0832346493116152,750,0,0,incongruent,0,1554.98924775874,1366.18150589853
8,104,3,361,0.5,0.5,0,4,NaN,0.4,4,479,1,1,479,1,0,0.2,NaN,-1.04696728808384,-1.04696728808384,750,0,0,neutral,1,3117.8664220734,2715.75276977985
8,104,3,362,-0.5,0.5,-0.5,2,2,0.4,2,576,1,1,576,1,0,0.6,0.6,-0.490471917894199,-0.490471917894199,750,1,0,congruent,0.1,1614.94081668198,2550.15089836966
8,104,3,363,-0.5,0.5,0.5,4,3,0.6,4,584,1,1,584,1,0,0.8,0.6,-0.444575392517734,-0.444575392517734,750,0,0,incongruent,0.1,3147.88678293302,1907.97017924939
8,104,3,365,0.5,-0.5,0,4,NaN,0.6,4,513,1,1,513,0,0,0.8,NaN,-0.851907055233862,-0.851907055233862,750,0,0,neutral,0,520.818691017864,751.021584175065
8,104,3,366,0.5,0.5,-0.5,2,2,0.6,2,875,1,0,875,0,0,0.8,NaN,1.22491071805119,1.22491071805119,750,1,0,congruent,0,2405.60094509936,2925.07532483471
8,104,3,367,0.5,-0.5,0,1,NaN,0.6,1,849,1,0,849,0,0,0.4,NaN,1.07574701057767,1.07574701057767,750,0,0,neutral,0,860.820045901444,3431.83684403433
8,104,3,368,-0.5,-0.5,-0.5,4,4,0.6,4,507,1,1,507,0,0,0.2,0.8,-0.886329449266211,-0.886329449266211,750,1,0,congruent,0,1833.24871806184,2172.45619443385
8,104,3,369,0.5,-0.5,-0.5,2,2,0.6,2,548,1,1,548,0,0,0,NaN,-0.651109756711827,-0.651109756711827,750,1,0,congruent,0,956.630673858057,1061.24964782153
8,104,3,370,-0.5,0.5,0,4,NaN,0.6,4,449,1,1,449,1,0,0,0.6,-1.21907925824558,-1.21907925824558,750,0,0,neutral,0.1,2828.19056477526,1655.57651769806
8,104,3,371,0.5,-0.5,0.5,1,2,0.6,1,757,1,0,757,0,0,0.2,NaN,0.547936968748325,0.547936968748325,750,0,0,incongruent,0,5914.38318237023,297.692189650074
8,104,3,372,0.5,-0.5,-0.5,4,4,0.6,4,398,1,1,398,1,0,0.2,NaN,-1.51166960752055,-1.51166960752055,750,1,0,congruent,1,4034.51074916452,6488.73508111003
8,104,3,373,0.5,-0.5,0,2,NaN,0.6,1,636,0,1,NaN,1,0,0.6,NaN,-0.146247977570711,NaN,750,0,1,neutral,1,5986.54614772311,3509.70570714741
8,104,3,374,-0.5,0.5,-0.5,4,4,0.6,4,642,1,1,642,1,0,1,0.6,-0.111825583538362,-0.111825583538362,750,1,0,congruent,0.1,494.429584165108,2074.52782283718
8,104,3,375,-0.5,-0.5,-0.5,2,2,0.6,2,634,1,1,634,1,0,1.2,0.6,-0.157722108914827,-0.157722108914827,750,1,0,congruent,0.1,2297.59228037077,1394.08412582001
8,104,3,376,-0.5,0.5,0.5,4,1,0.6,4,800,1,0,800,0,0,1.2,0.8,0.794630792646825,0.794630792646825,750,0,0,incongruent,0,2687.88107884821,2520.8475193674
8,104,3,377,0.5,0.5,0,3,NaN,0.4,3,912,1,0,912,0,0,1.2,NaN,1.43718214791734,1.43718214791734,750,0,0,neutral,0,7233.22947725243,3893.47295467851
8,104,3,378,-0.5,-0.5,-0.5,2,2,0.4,2,646,1,1,646,0,0,0.8,0.6,-0.0888773208501292,-0.0888773208501292,750,1,0,congruent,0,761.390714084759,5771.21476061124
8,104,3,379,0.5,0.5,0,1,NaN,0.4,1,517,1,1,517,1,0,0.4,NaN,-0.82895879254563,-0.82895879254563,750,0,0,neutral,1,3556.50618022717,740.695176432132
8,104,3,380,0.5,0.5,-0.5,3,3,0.6,3,844,1,0,844,0,0,0.6,NaN,1.04706168221738,1.04706168221738,750,1,0,congruent,0,3808.7300969337,5234.88387619615
8,104,3,381,-0.5,0.5,0.5,4,1,0.4,4,773,1,0,773,0,0,0.4,0.6,0.639730019501255,0.639730019501255,750,0,0,incongruent,0,3011.85047417949,5021.13517814177
8,104,3,382,-0.5,0.5,0,1,NaN,0.2,1,565,1,1,565,1,0,0.4,0.4,-0.553579640286839,-0.553579640286839,750,0,0,neutral,0.1,3340.36356036057,2830.91648301504
8,104,3,383,-0.5,0.5,-0.5,2,2,0.4,2,861,1,0,861,0,0,0.6,0.6,1.14459179864237,1.14459179864237,750,1,0,congruent,0,5439.15058451655,662.538812800951
8,104,3,384,0.5,0.5,0,1,NaN,0.4,1,600,1,1,600,1,0,0.6,NaN,-0.352782341764804,-0.352782341764804,750,0,0,neutral,1,4081.34913052348,1285.5238064647
8,104,3,385,-0.5,0.5,-0.5,4,4,0.4,4,323,1,1,323,1,0,0.6,0.4,-1.94194953292491,-1.94194953292491,750,1,0,congruent,0.1,419.362157044861,2488.41501776636
8,104,3,386,-0.5,0.5,-0.5,3,3,0.6,3,883,1,0,883,0,0,0.8,0.4,1.27080724342765,1.27080724342765,750,1,0,congruent,0,1576.75896719364,2694.89526486638
8,104,3,387,0.5,-0.5,-0.5,4,4,0.6,4,594,1,1,594,1,0,0.8,NaN,-0.387204735797153,-0.387204735797153,750,1,0,congruent,1,723.398790626606,1681.66220041362
8,104,3,388,0.5,-0.5,-0.5,3,3,0.6,3,725,1,1,725,0,0,1,NaN,0.364350867242464,0.364350867242464,750,1,0,congruent,0,1281.52569589287,870.99882984915
8,104,3,389,0.5,0.5,0.5,2,4,0.6,2,964,1,0,964,0,0,1,NaN,1.73550956286436,1.73550956286436,750,0,0,incongruent,0,2540.85436080098,13764.4543984535
8,104,3,390,0.5,0.5,-0.5,3,3,0.4,3,862,1,0,862,0,0,0.6,NaN,1.15032886431443,1.15032886431443,750,1,0,congruent,0,1380.69686644821,1510.15705379896
8,104,3,391,0.5,0.5,-0.5,4,4,0.4,4,481,1,1,481,1,0,0.4,NaN,-1.03549315673972,-1.03549315673972,750,1,0,congruent,1,4393.42890630357,1134.06243988732
8,104,3,392,0.5,0.5,0,2,NaN,0.4,2,606,1,1,606,1,0,0.8,NaN,-0.318359947732455,-0.318359947732455,750,0,0,neutral,1,3664.35328115477,4187.11747647239
8,104,3,393,0.5,-0.5,0.5,1,3,0.4,1,695,1,1,695,1,0,0.8,NaN,0.19223889708072,0.19223889708072,750,0,0,incongruent,1,2580.27667253862,746.754271796279
8,104,3,394,0.5,0.5,-0.5,2,2,0.4,2,798,1,0,798,0,0,1.2,NaN,0.783156661302709,0.783156661302709,750,1,0,congruent,0,1221.08435156109,901.48248680487
8,104,3,395,-0.5,0.5,0,3,NaN,0.4,1,564,0,1,NaN,0,0,1.2,0.4,-0.559316705958897,NaN,750,0,1,neutral,0,9403.00805398032,983.710848976515
8,104,3,396,-0.5,0.5,-0.5,1,1,0.4,1,513,1,1,513,1,0,1.2,0.4,-0.851907055233862,-0.851907055233862,750,1,0,congruent,0.1,2707.1246720764,1949.96733935737
8,104,3,397,-0.5,0.5,-0.5,4,4,0.6,4,456,1,1,456,1,0,1,0.4,-1.17891979854118,-1.17891979854118,750,1,0,congruent,0.1,2602.42734762864,740.788512685411
8,104,3,398,-0.5,-0.5,0.5,2,3,0.6,2,872,1,0,872,1,0,0.8,0.4,1.20769952103501,1.20769952103501,750,0,0,incongruent,0.1,859.3797948695,4881.66398770035
8,104,3,399,-0.5,0.5,-0.5,1,1,0.6,1,378,1,1,378,1,0,0.6,0.6,-1.62641092096171,-1.62641092096171,750,1,0,congruent,0.1,1739.91178210752,351.352923073662
8,104,3,400,-0.5,-0.5,-0.5,4,4,0.6,4,383,1,1,383,1,0,0.8,0.4,-1.59772559260142,-1.59772559260142,750,1,0,congruent,0.1,2862.01943805761,894.047555593979
8,104,3,401,0.5,0.5,0,1,NaN,0.6,1,368,1,1,368,1,0,1,NaN,-1.68378157768229,-1.68378157768229,750,0,0,neutral,1,476.138153522592,2132.39134737041
8,104,3,402,-0.5,-0.5,-0.5,4,4,0.8,4,520,1,1,520,0,0,1.2,0.6,-0.811747595529455,-0.811747595529455,750,1,0,congruent,0,4200.27826126863,647.213628458364
8,104,3,403,0.5,0.5,0,2,NaN,0.8,2,898,1,0,898,0,0,1,NaN,1.35686322850852,1.35686322850852,750,0,0,neutral,0,4936.39946529468,3391.43328666789
8,104,3,404,0.5,0.5,-0.5,4,4,0.8,4,680,1,1,680,1,0,0.8,NaN,0.106182911999848,0.106182911999848,750,1,0,congruent,1,2075.04927856993,2079.36734821349
8,104,3,405,0.5,-0.5,0,3,NaN,0.8,3,362,1,1,362,1,0,1,NaN,-1.71820397171464,-1.71820397171464,750,0,0,neutral,1,2979.69722622652,4131.88285358978
8,104,3,406,0.5,0.5,-0.5,4,4,0.8,4,710,1,1,710,1,0,1.2,NaN,0.278294882161592,0.278294882161592,750,1,0,congruent,1,1979.11116204628,2095.91244362363
8,104,3,407,-0.5,0.5,0.5,2,3,0.8,2,802,1,0,802,0,0,1.2,0.6,0.806104923990941,0.806104923990941,750,0,0,incongruent,0,4061.15515905368,3708.40589692383
8,104,3,408,-0.5,-0.5,-0.5,4,4,0.6,4,524,1,1,524,1,0,1.2,0.6,-0.788799332841223,-0.788799332841223,750,1,0,congruent,0.1,1294.74422015569,3518.87930129866
8,104,3,409,-0.5,0.5,0.5,2,3,0.6,2,843,1,0,843,0,0,1.4,0.6,1.04132461654533,1.04132461654533,750,0,0,incongruent,0,709.316388536219,1591.56735923688
8,104,3,410,0.5,0.5,-0.5,1,1,0.4,1,668,1,1,668,1,0,1,NaN,0.03733812393515,0.03733812393515,750,1,0,congruent,1,508.975446009924,846.151534699805
8,104,3,411,0.5,0.5,-0.5,2,2,0.6,2,593,1,1,593,1,0,1,NaN,-0.392941801469211,-0.392941801469211,750,1,0,congruent,1,522.192210176497,1677.39429816147
8,104,3,412,-0.5,0.5,0.5,1,4,0.6,1,689,1,1,689,1,0,1,0.6,0.157816503048371,0.157816503048371,750,0,0,incongruent,0.1,255.074471503421,489.704859023414
8,104,3,413,-0.5,-0.5,-0.5,3,3,0.6,3,776,1,0,776,0,0,1.2,0.6,0.65694121651743,0.65694121651743,750,1,0,congruent,0,4049.97422695736,3218.3799344865
8,104,3,414,0.5,-0.5,-0.5,2,2,0.6,2,692,1,1,692,0,0,1,NaN,0.175027700064546,0.175027700064546,750,1,0,congruent,0,1487.74989695138,320.181485784521
8,104,3,415,0.5,0.5,0.5,1,4,0.6,1,585,1,1,585,1,0,1,NaN,-0.438838326845676,-0.438838326845676,750,0,0,incongruent,1,3771.48188258995,1844.61270195994
8,104,3,416,-0.5,0.5,-0.5,3,3,0.8,3,686,1,1,686,1,0,1,0.6,0.140605306032197,0.140605306032197,750,1,0,congruent,0.1,1512.95632326093,971.624326791934
8,104,3,417,0.5,0.5,-0.5,1,1,1,1,643,1,1,643,1,0,0.8,NaN,-0.106088517866304,-0.106088517866304,750,1,0,congruent,1,2976.18108176304,2094.38712155041
8,104,3,418,-0.5,0.5,0.5,2,4,1,2,955,1,0,955,0,0,1,0.6,1.68387597181584,1.68387597181584,750,0,0,incongruent,0,3481.61078136402,3834.12966007043
8,104,3,419,-0.5,0.5,0.5,1,2,0.8,1,672,1,1,672,1,0,1,0.4,0.0602863866233826,0.0602863866233826,750,0,0,incongruent,0.1,2342.00090547877,2832.45590813561
8,104,3,420,-0.5,0.5,-0.5,3,3,0.8,3,826,1,0,826,0,0,1.2,0.6,0.943794500120337,0.943794500120337,750,1,0,congruent,0,3180.19335130719,1715.13702171202
8,104,3,421,-0.5,-0.5,-0.5,4,4,0.6,4,546,1,1,546,0,0,0.8,0.6,-0.662583888055944,-0.662583888055944,750,1,0,congruent,0,2491.6781914585,4261.46943982726
8,104,3,422,-0.5,-0.5,0.5,1,2,0.6,1,659,1,1,659,0,0,0.6,0.4,-0.0142954671133733,-0.0142954671133733,750,0,0,incongruent,0,1320.69828708275,1322.4702204098
8,104,3,423,0.5,-0.5,0.5,4,3,0.6,4,717,1,1,717,1,0,0.2,NaN,0.318454341865999,0.318454341865999,750,0,0,incongruent,1,2044.71798878877,1850.74769337544
8,104,3,424,0.5,-0.5,0,1,NaN,0.6,1,605,1,1,605,0,0,0.6,NaN,-0.324097013404513,-0.324097013404513,750,0,0,neutral,0,4367.56463362537,3686.98632323469
8,104,3,425,0.5,0.5,0.5,4,2,0.6,4,579,1,1,579,1,0,0.4,NaN,-0.473260720878025,-0.473260720878025,750,0,0,incongruent,1,1586.55161971392,771.295980335951
8,104,3,426,0.5,-0.5,-0.5,1,1,0.6,4,451,0,1,NaN,1,0,0.8,NaN,-1.20760512690147,NaN,750,0,1,congruent,1,6117.50334553219,1699.36463896879
8,104,3,428,-0.5,0.5,0.5,1,3,0.6,1,731,1,1,731,1,0,1.4,0.6,0.398773261274813,0.398773261274813,750,0,0,incongruent,0.1,2252.71006568727,3853.30286743538
8,104,3,429,0.5,-0.5,-0.5,2,2,0.6,2,641,1,1,641,0,0,1.2,NaN,-0.11756264921042,-0.11756264921042,750,1,0,congruent,0,3343.0452966801,808.097120282862
8,104,3,430,0.5,-0.5,-0.5,1,1,0.6,1,467,1,1,467,0,0,1.2,NaN,-1.11581207614854,-1.11581207614854,750,1,0,congruent,0,2051.7182940715,2579.35531799487
8,104,3,431,-0.5,0.5,-0.5,3,3,0.6,3,850,1,0,850,0,0,0.8,0.6,1.08148407624973,1.08148407624973,750,1,0,congruent,0,1881.24713266411,2996.42197499627
8,104,3,432,-0.5,0.5,0,4,NaN,0.6,4,749,1,1,749,1,0,0.4,0.4,0.50204044337186,0.50204044337186,750,0,0,neutral,0.1,2787.83787112433,9432.13927982786
8,104,3,433,-0.5,-0.5,0.5,2,3,0.6,2,759,1,0,759,1,0,0.4,0.4,0.559411100092441,0.559411100092441,750,0,0,incongruent,0.1,2946.52915626259,3589.04068452017
8,104,3,434,-0.5,-0.5,0.5,3,2,0.6,3,798,1,0,798,1,0,0.4,0.4,0.783156661302709,0.783156661302709,750,0,0,incongruent,0.1,861.908814423288,2053.2153754533
8,104,3,435,0.5,0.5,0.5,4,1,0.6,4,397,1,1,397,1,0,0.6,NaN,-1.51740667319261,-1.51740667319261,750,0,0,incongruent,1,1374.76431644396,5477.83945167402
8,104,3,436,0.5,-0.5,0,1,NaN,0.8,1,728,1,1,728,1,0,1,NaN,0.381562064258639,0.381562064258639,750,0,0,neutral,1,3143.23654526097,2180.95862353164
8,104,3,437,-0.5,0.5,-0.5,2,2,0.8,1,521,0,1,NaN,0,0,1.4,0.6,-0.806010529857397,NaN,750,0,1,congruent,0,4162.53367001778,1402.35244921816
8,104,3,438,0.5,-0.5,0,4,NaN,0.6,4,437,1,1,437,0,0,1.2,NaN,-1.28792404631028,-1.28792404631028,750,0,0,neutral,0,3905.42838657988,2720.59080181712
8,104,3,439,-0.5,0.5,-0.5,3,3,0.6,3,909,1,0,909,0,0,1,0.4,1.41997095090116,1.41997095090116,750,1,0,congruent,0,1331.65648348316,1302.74426728593
8,104,3,440,0.5,0.5,-0.5,4,4,0.4,4,878,1,0,878,0,0,0.8,NaN,1.24212191506736,1.24212191506736,750,1,0,congruent,0,1536.5161384852,11859.5439330194
8,104,3,441,0.5,0.5,-0.5,2,2,0.4,2,715,1,1,715,1,0,0.4,NaN,0.306980210521883,0.306980210521883,750,1,0,congruent,1,1079.92160403523,1277.10427292574
8,104,3,442,0.5,-0.5,0.5,4,1,0.4,4,656,1,1,656,0,0,0.4,NaN,-0.0315066641295477,-0.0315066641295477,750,0,0,incongruent,0,1785.28595776867,1819.25426263837
8,104,3,443,-0.5,-0.5,0,1,NaN,0.4,1,370,1,1,370,1,0,0.4,0.6,-1.67230744633818,-1.67230744633818,750,0,0,neutral,0.1,1828.97687021552,1772.98725033826
8,104,3,444,-0.5,-0.5,-0.5,2,2,0.4,2,474,1,1,474,0,0,0.6,0.8,-1.07565261644413,-1.07565261644413,750,1,0,congruent,0,1916.06779245508,3418.86970905623
8,104,3,445,-0.5,0.5,0.5,1,4,0.4,1,752,1,0,752,0,0,0.6,0.4,0.519251640388034,0.519251640388034,750,0,0,incongruent,0,8922.30395776492,2061.23402747045
8,104,3,446,0.5,-0.5,-0.5,3,3,0.2,3,860,1,0,860,0,0,0.6,NaN,1.13885473297031,1.13885473297031,750,1,0,congruent,0,922.962184643877,630.512200098776
8,104,3,447,-0.5,0.5,-0.5,1,1,0.2,1,616,1,1,616,1,0,0.2,0.2,-0.260989291011874,-0.260989291011874,750,1,0,congruent,0.1,2672.64202489787,1877.32860289271
8,104,3,448,0.5,-0.5,-0.5,2,2,0.4,2,574,1,1,574,0,0,0.4,NaN,-0.501946049238316,-0.501946049238316,750,1,0,congruent,0,997.511510654516,1551.79337864513
8,104,3,450,0.5,0.5,-0.5,3,3,0.6,3,782,1,0,782,0,0,0.6,NaN,0.691363610549779,0.691363610549779,750,1,0,congruent,0,2662.9258714044,2051.1827910631
8,104,4,452,-0.5,-0.5,-0.5,1,1,0.4,1,347,1,1,347,1,0,0.6,0.8,-1.80425995679551,-1.80425995679551,750,1,0,congruent,0.1,6709.94430111417,678.436132592386
8,104,4,453,0.5,0.5,0.5,2,4,0.4,2,661,1,1,661,1,0,0.6,NaN,-0.00282133576925699,-0.00282133576925699,750,0,0,incongruent,1,1749.05558692402,1121.98278009728
8,104,4,454,0.5,-0.5,0.5,4,3,0.6,4,604,1,1,604,1,0,1,NaN,-0.329834079076571,-0.329834079076571,750,0,0,incongruent,1,919.609683783576,1191.60483401121
8,104,4,455,-0.5,0.5,-0.5,1,1,0.6,1,591,1,1,591,1,0,1,0.4,-0.404415932813327,-0.404415932813327,750,1,0,congruent,0.1,3082.92301508174,1061.42152308734
8,104,4,457,-0.5,0.5,0,2,NaN,0.6,1,642,0,1,NaN,0,0,1.2,0.4,-0.111825583538362,NaN,750,0,1,neutral,0,4471.7375939255,4019.64089492791
8,104,4,458,-0.5,0.5,-0.5,4,4,0.4,4,507,1,1,507,1,0,1,0.4,-0.886329449266211,-0.886329449266211,750,1,0,congruent,0.1,2193.37125303051,1721.8629737881
8,104,4,459,0.5,0.5,0,1,NaN,0.6,1,445,1,1,445,1,0,0.8,NaN,-1.24202752093382,-1.24202752093382,750,0,0,neutral,1,762.628753273792,5145.88499505549
8,104,4,460,0.5,-0.5,0.5,2,3,0.8,3,908,0,0,NaN,1,0,0.8,NaN,1.4142338852291,NaN,750,1,0,incongruent,1,1706.78708835796,5267.86054280963
8,104,4,461,0.5,0.5,-0.5,4,4,0.8,4,626,1,1,626,1,0,1,NaN,-0.203618634291292,-0.203618634291292,750,1,0,congruent,1,1682.1752044206,4632.48636422054
8,104,4,462,-0.5,-0.5,0,1,NaN,0.8,1,400,1,1,400,1,0,1.4,0.6,-1.50019547617643,-1.50019547617643,750,0,0,neutral,0.1,4951.11905715154,1684.88166087853
8,104,4,463,-0.5,0.5,-0.5,4,4,0.8,4,622,1,1,622,1,0,1.6,0.6,-0.226566896979525,-0.226566896979525,750,1,0,congruent,0.1,2540.72026643968,4853.8961102848
8,104,4,464,0.5,0.5,0,2,NaN,0.8,2,878,1,0,878,0,0,1.6,NaN,1.24212191506736,1.24212191506736,750,0,0,neutral,0,446.247274832563,1725.49446123426
8,104,4,467,0.5,-0.5,0,2,NaN,0.8,2,437,1,1,437,1,0,1,NaN,-1.28792404631028,-1.28792404631028,750,0,0,neutral,1,1090.25076202521,2867.90190556932
8,104,4,468,0.5,-0.5,-0.5,1,1,0.8,1,650,1,1,650,1,0,1.2,NaN,-0.0659290581618966,-0.0659290581618966,750,1,0,congruent,1,831.363806685791,2165.56001122513
8,104,4,469,-0.5,0.5,0.5,4,2,0.8,4,746,1,1,746,1,0,1.4,0.8,0.484829246355685,0.484829246355685,750,0,0,incongruent,0.1,1998.68541074214,335.685272320113
8,104,4,470,-0.5,0.5,0,2,NaN,0.8,3,875,0,0,NaN,0,0,1.6,0.8,1.22491071805119,NaN,750,0,1,neutral,0,6332.51896237818,1671.56408408098
8,104,4,471,-0.5,0.5,-0.5,4,4,0.6,4,529,1,1,529,1,0,1.2,0.8,-0.760114004480932,-0.760114004480932,750,1,0,congruent,0.1,1113.51468024778,1582.39935249146
8,104,4,472,-0.5,0.5,0.5,3,2,0.6,3,912,1,0,912,0,0,1.2,0.8,1.43718214791734,1.43718214791734,750,0,0,incongruent,0,2972.71902993191,1707.45350267387
8,104,4,473,-0.5,0.5,0,4,NaN,0.6,4,426,1,1,426,1,0,0.8,0.6,-1.35103176870292,-1.35103176870292,750,0,0,neutral,0.1,1575.4037291791,1191.16438431123
8,104,4,474,-0.5,-0.5,0.5,2,3,0.6,2,806,1,0,806,1,0,0.6,0.6,0.829053186679174,0.829053186679174,750,0,0,incongruent,0.1,1650.82878451413,5642.6847201265
8,104,4,475,0.5,-0.5,0,4,NaN,0.6,4,664,1,1,664,1,0,0.6,NaN,0.0143898612469174,0.0143898612469174,750,0,0,neutral,1,1346.10818528262,2390.73479991834
8,104,4,476,-0.5,-0.5,-0.5,2,2,0.6,2,698,1,1,698,0,0,1,0.6,0.209450094096894,0.209450094096894,750,1,0,congruent,0,3491.25296172651,1986.82677343261
8,104,4,477,0.5,0.5,0,1,NaN,0.6,1,416,1,1,416,1,0,0.8,NaN,-1.4084024254235,-1.4084024254235,750,0,0,neutral,1,3239.80782189246,1297.177726747
8,104,4,478,0.5,0.5,-0.5,2,2,0.6,2,775,1,0,775,0,0,1.2,NaN,0.651204150845372,0.651204150845372,750,1,0,congruent,0,1882.80476173512,3488.61525318846
8,104,4,479,0.5,-0.5,-0.5,1,1,0.6,1,715,1,1,715,1,0,1,NaN,0.306980210521883,0.306980210521883,750,1,0,congruent,1,1910.07158185565,2356.61048086214
8,104,4,480,-0.5,0.5,-0.5,2,2,0.6,2,657,1,1,657,1,0,1.2,0.6,-0.0257695984574896,-0.0257695984574896,750,1,0,congruent,0.1,2716.28098414478,1792.73177795714
8,104,4,481,0.5,0.5,0,1,NaN,0.6,1,305,1,1,305,1,0,1,NaN,-2.04521671502196,-2.04521671502196,750,0,0,neutral,1,1324.69252178898,1090.88485861147
8,104,4,482,-0.5,-0.5,-0.5,3,3,0.8,3,598,1,1,598,1,0,1.4,0.6,-0.36425647310892,-0.36425647310892,750,1,0,congruent,0.1,3265.40643869546,2901.09237026093
8,104,4,483,-0.5,0.5,0,2,NaN,0.8,1,741,0,1,NaN,0,0,1.2,0.6,0.456143917995395,NaN,750,0,1,neutral,0,7751.67716444736,5200.07495943503
8,104,4,484,0.5,0.5,-0.5,4,4,0.6,4,579,1,1,579,1,0,1.2,NaN,-0.473260720878025,-0.473260720878025,750,1,0,congruent,1,1591.43278140377,4098.34368441595
8,104,4,486,-0.5,-0.5,-0.5,4,4,0.6,4,511,1,1,511,1,0,1.4,0.6,-0.863381186577979,-0.863381186577979,750,1,0,congruent,0.1,2273.19855114819,898.864800127399
8,104,4,487,-0.5,-0.5,0,3,NaN,0.6,2,713,0,1,NaN,1,0,1.2,0.8,0.295506079177767,NaN,750,0,1,neutral,0.1,5003.13841728822,1568.43200648415
8,104,4,488,-0.5,-0.5,-0.5,1,1,0.6,1,528,1,1,528,0,0,1.2,0.8,-0.76585107015299,-0.76585107015299,750,1,0,congruent,0,3174.11129087704,1030.39540479678
8,104,4,489,-0.5,0.5,0.5,2,3,0.6,2,930,1,0,930,0,0,1.2,0.6,1.54044933001438,1.54044933001438,750,0,0,incongruent,0,753.9216331267,4527.40047942917
8,104,4,490,-0.5,-0.5,0.5,3,2,0.6,3,692,1,1,692,1,0,0.8,0.6,0.175027700064546,0.175027700064546,750,0,0,incongruent,0.1,829.779133816814,643.680634445361
8,104,4,491,-0.5,-0.5,0.5,1,3,0.6,1,678,1,1,678,0,0,0.6,0.8,0.0947087806557315,0.0947087806557315,750,0,0,incongruent,0,1187.31732607176,2051.73875816885
8,104,4,492,0.5,0.5,0,3,NaN,0.6,1,533,0,1,NaN,0,0,0.4,NaN,-0.7371657417927,NaN,750,0,1,neutral,0,4505.27252486369,1489.01741900955
8,104,4,494,0.5,0.5,-0.5,4,4,0.4,4,669,1,1,669,1,0,0.2,NaN,0.0430751896072082,0.0430751896072082,750,1,0,congruent,1,2504.11515573942,1955.32399219982
8,104,4,495,-0.5,0.5,-0.5,1,1,0.4,1,368,1,1,368,1,0,0.6,0.4,-1.68378157768229,-1.68378157768229,750,1,0,congruent,0.1,955.00315788496,2415.75554147159
8,104,4,496,-0.5,0.5,0,4,NaN,0.6,4,684,1,1,684,1,0,0.6,0.6,0.12913117468808,0.12913117468808,750,0,0,neutral,0.1,1926.96709497197,3434.03038276428
8,104,4,497,0.5,0.5,0.5,3,1,0.6,3,898,1,0,898,0,0,0.8,NaN,1.35686322850852,1.35686322850852,750,0,0,incongruent,0,4888.95511193004,6898.65967388795
8,104,4,498,0.5,0.5,0.5,1,2,0.6,2,866,0,0,NaN,0,0,0.8,NaN,1.17327712700266,NaN,750,1,0,incongruent,0,2350.10947121984,2925.36906461608
8,104,4,499,0.5,0.5,0,2,NaN,0.6,2,891,1,0,891,0,0,0.8,NaN,1.31670376880412,1.31670376880412,750,0,0,neutral,0,1402.62303442207,3883.70007752369
8,104,4,500,0.5,-0.5,-0.5,3,3,0.4,3,890,1,0,890,0,0,0.4,NaN,1.31096670313206,1.31096670313206,750,1,0,congruent,0,3672.47390167724,1650.8757745116
8,104,4,501,0.5,0.5,0.5,1,4,0.4,1,690,1,1,690,1,0,0.2,NaN,0.163553568720429,0.163553568720429,750,0,0,incongruent,1,669.742757393921,1619.63464323608
8,104,4,502,-0.5,0.5,-0.5,2,2,0.4,2,841,1,0,841,0,0,0.4,0.6,1.02985048520121,1.02985048520121,750,1,0,congruent,0,2909.61880871962,3229.30085756716
8,104,4,503,-0.5,-0.5,0,4,NaN,0.2,4,626,1,1,626,0,0,0.4,0.4,-0.203618634291292,-0.203618634291292,750,0,0,neutral,0,972.323789471177,2350.35894466011
8,104,4,504,0.5,-0.5,-0.5,1,1,0.2,1,439,1,1,439,0,0,0.4,NaN,-1.27644991496617,-1.27644991496617,750,1,0,congruent,0,875.669261157815,2681.1672173086
8,104,4,506,0.5,-0.5,0.5,2,4,0.4,2,892,1,0,892,0,0,0.6,NaN,1.32244083447617,1.32244083447617,750,0,0,incongruent,0,2271.09797002083,2816.62484826701
8,104,4,507,-0.5,-0.5,0.5,1,3,0.4,1,812,1,0,812,0,0,0.2,0.2,0.863475580711523,0.863475580711523,750,0,0,incongruent,0,2405.76247126954,1743.93794017101
8,104,4,508,-0.5,-0.5,0.5,3,1,0.4,3,945,1,0,945,1,0,0.2,0.2,1.62650531509526,1.62650531509526,750,0,0,incongruent,0.1,3705.9731874323,351.818466924569
8,104,4,509,0.5,0.5,0.5,1,3,0.4,1,389,1,1,389,1,0,0.4,NaN,-1.56330319856907,-1.56330319856907,750,0,0,incongruent,1,799.947601725216,505.965823773218
8,104,4,511,-0.5,0.5,-0.5,2,2,0.6,2,762,1,0,762,0,0,0.6,0.6,0.576622297108616,0.576622297108616,750,1,0,congruent,0,2127.20318842388,4581.87060918269
8,104,4,512,-0.5,0.5,0.5,1,3,0.6,1,359,1,1,359,1,0,0.6,0.6,-1.73541516873082,-1.73541516873082,750,0,0,incongruent,0.1,2175.14649539646,1508.59297136265
8,104,4,513,-0.5,-0.5,0.5,3,4,0.6,2,847,0,0,NaN,1,0,0.8,0.2,1.06427287923356,NaN,750,0,1,incongruent,0.1,3589.47434679057,3636.01382600122
8,104,4,514,-0.5,0.5,0,4,NaN,0.6,4,538,1,1,538,1,0,0.8,0.6,-0.708480413432409,-0.708480413432409,750,0,0,neutral,0.1,1459.57489617817,2158.8115948799
8,104,4,515,0.5,0.5,-0.5,3,3,0.8,1,438,0,1,NaN,0,0,0.6,NaN,-1.28218698063822,NaN,750,0,1,congruent,0,2598.66504424509,1369.53787282207
8,104,4,518,0.5,0.5,-0.5,2,2,0.6,2,671,1,1,671,1,0,1,NaN,0.0545493209513245,0.0545493209513245,750,1,0,congruent,1,847.501643681008,1222.00927161744
8,104,4,519,0.5,-0.5,0,1,NaN,0.6,1,466,1,1,466,1,0,1.2,NaN,-1.1215491418206,-1.1215491418206,750,0,0,neutral,1,2039.57739479943,985.225336476409
8,104,4,520,0.5,-0.5,-0.5,4,4,0.6,4,495,1,1,495,0,0,1.4,NaN,-0.955174237330909,-0.955174237330909,750,1,0,congruent,0,1589.46721844553,3993.10453981243
8,104,4,524,0.5,-0.5,-0.5,4,4,0.8,4,596,1,1,596,1,0,0.8,NaN,-0.375730604453036,-0.375730604453036,750,1,0,congruent,1,2696.82858783384,4707.18872860816
8,104,4,525,0.5,-0.5,0,2,NaN,0.8,2,703,1,1,703,1,0,0.8,NaN,0.238135422457185,0.238135422457185,750,0,0,neutral,1,1213.5440320786,2434.19608648033
8,104,4,526,-0.5,-0.5,0.5,1,2,0.8,1,406,1,1,406,1,0,1.2,0.6,-1.46577308214408,-1.46577308214408,750,0,0,incongruent,0.1,1937.58888406413,965.889038600266
8,104,4,527,0.5,0.5,-0.5,3,3,0.8,3,374,1,1,374,1,0,1.4,NaN,-1.64935918364994,-1.64935918364994,750,1,0,congruent,1,2318.35749793634,831.859768789873
8,104,4,528,-0.5,-0.5,-0.5,2,2,0.8,2,347,1,1,347,1,0,1.6,0.8,-1.80425995679551,-1.80425995679551,750,1,0,congruent,0.1,3340.77094333192,689.428669092897
8,104,4,529,0.5,-0.5,-0.5,4,4,0.8,4,324,1,1,324,1,0,1.6,NaN,-1.93621246725285,-1.93621246725285,750,1,0,congruent,1,1461.47654941231,4162.8259041225
8,104,4,530,0.5,-0.5,0.5,1,3,0.8,1,326,1,1,326,1,0,1.6,NaN,-1.92473833590874,-1.92473833590874,750,0,0,incongruent,1,4788.70032195918,596.364989747054
8,104,4,531,0.5,-0.5,0.5,4,2,0.8,4,699,1,1,699,1,0,1.6,NaN,0.215187159768953,0.215187159768953,750,0,0,incongruent,1,846.33066035017,1372.94177993148
8,104,4,532,0.5,-0.5,0,3,NaN,0.8,3,399,1,1,399,1,0,1.8,NaN,-1.50593254184849,-1.50593254184849,750,0,0,neutral,1,1399.19819478934,1520.93877344765
8,104,4,533,0.5,0.5,-0.5,4,4,0.8,4,503,1,1,503,1,0,1.8,NaN,-0.909277711954444,-0.909277711954444,750,1,0,congruent,1,526.297778830487,1173.90173962222
8,104,4,534,-0.5,-0.5,0,1,NaN,0.8,1,322,1,1,322,1,0,2,0.8,-1.94768659859697,-1.94768659859697,750,0,0,neutral,0.1,1460.2893160038,486.949487515354
8,104,4,535,-0.5,-0.5,-0.5,4,4,0.8,4,494,1,1,494,0,0,1.8,0.8,-0.960911303002967,-0.960911303002967,750,1,0,congruent,0,967.329131803932,3979.15237568689
8,104,4,536,0.5,-0.5,0.5,3,2,0.8,3,340,1,1,340,1,0,1.4,NaN,-1.84441941649992,-1.84441941649992,750,0,0,incongruent,1,1878.65218431966,4965.41142652498
8,104,4,537,-0.5,0.5,0,1,NaN,0.8,1,381,1,1,381,1,0,1.4,0.8,-1.60919972394554,-1.60919972394554,750,0,0,neutral,0.1,1065.32634446598,2005.69777251154
8,104,4,538,0.5,-0.5,-0.5,4,4,1,4,505,1,1,505,1,0,1.2,NaN,-0.897803580610328,-0.897803580610328,750,1,0,congruent,1,495.774902570525,2554.19326837947
8,104,4,539,-0.5,-0.5,0.5,3,2,1,3,858,1,0,858,1,0,1.2,0.8,1.1273806016262,1.1273806016262,750,0,0,incongruent,0.1,2654.55829636386,3824.80550083562
8,104,4,540,0.5,-0.5,0.5,2,4,1,2,388,1,1,388,1,0,1.2,NaN,-1.56904026424113,-1.56904026424113,750,0,0,incongruent,1,1568.0708888239,848.161457471193
8,104,4,541,0.5,0.5,-0.5,1,1,1,1,482,1,1,482,1,0,1.6,NaN,-1.02975609106767,-1.02975609106767,750,1,0,congruent,1,4898.7665156753,1009.26471601105
8,104,4,542,-0.5,-0.5,-0.5,2,2,1,2,914,1,0,914,1,0,1.6,0.8,1.44865627926145,1.44865627926145,750,1,0,congruent,0.1,1353.57729561753,763.218922233473
8,104,4,545,-0.5,0.5,0,3,NaN,1,3,707,1,1,707,1,0,1.8,0.8,0.261083685145418,0.261083685145418,750,0,0,neutral,0.1,4314.32603160773,496.199329018077
8,104,4,546,-0.5,-0.5,0.5,2,3,1,1,453,0,1,NaN,1,0,1.6,0.8,-1.19613099555735,NaN,750,0,1,incongruent,0.1,7824.12144188864,1777.43416598158
8,104,4,548,-0.5,0.5,-0.5,3,3,1,3,753,1,0,753,0,0,1.6,1,0.524988706060092,0.524988706060092,750,1,0,congruent,0,2156.56795407309,1432.11286275535
8,104,4,549,-0.5,-0.5,0.5,2,4,0.8,2,765,1,0,765,1,0,1.2,0.8,0.59383349412479,0.59383349412479,750,0,0,incongruent,0.1,2551.98334635599,3530.01171400629
8,104,4,550,0.5,0.5,0.5,3,2,0.8,3,780,1,0,780,0,0,1,NaN,0.679889479205662,0.679889479205662,750,0,0,incongruent,0,1414.64166583172,2738.78436000899
8,104,4,551,0.5,-0.5,0,1,NaN,0.6,1,328,1,1,328,0,0,0.8,NaN,-1.91326420456462,-1.91326420456462,750,0,0,neutral,0,3214.15466883326,3555.91956711624
8,104,4,552,0.5,-0.5,0.5,4,1,0.6,4,552,1,1,552,1,0,0.6,NaN,-0.628161494023595,-0.628161494023595,750,0,0,incongruent,1,1371.23421968179,997.204997330711
8,104,4,553,-0.5,-0.5,0.5,3,4,0.6,3,643,1,1,643,0,0,0.6,0.8,-0.106088517866304,-0.106088517866304,750,0,0,incongruent,0,627.536835564984,1096.2952436462
8,104,4,554,0.5,0.5,-0.5,1,1,0.6,1,555,1,1,555,1,0,0.6,NaN,-0.61095029700742,-0.61095029700742,750,1,0,congruent,1,773.185789165365,1394.71331328968
8,104,4,556,-0.5,0.5,0,2,NaN,0.6,1,606,0,1,NaN,0,0,1,0.8,-0.318359947732455,NaN,750,0,1,neutral,0,3881.38922632468,1001.83872844517
8,104,4,557,-0.5,-0.5,-0.5,3,3,0.4,3,663,1,1,663,0,0,1,0.8,0.0086527955748593,0.0086527955748593,750,1,0,congruent,0,1533.85844536954,461.167705111008
8,104,4,558,-0.5,0.5,0,4,NaN,0.4,4,507,1,1,507,1,0,0.6,0.6,-0.886329449266211,-0.886329449266211,750,0,0,neutral,0.1,2764.92483632333,1268.10916231551
8,104,4,559,0.5,0.5,-0.5,3,3,0.4,3,614,1,1,614,1,0,0.8,NaN,-0.27246342235599,-0.27246342235599,750,1,0,congruent,1,1331.36880059536,1535.02005726036
8,104,4,560,-0.5,-0.5,0,2,NaN,0.6,2,995,1,0,995,1,0,0.8,0.6,1.91335859869816,1.91335859869816,750,0,0,neutral,0.1,2233.69454595493,968.699515263216
8,104,4,561,0.5,-0.5,0.5,1,2,0.6,1,555,1,1,555,1,0,0.8,NaN,-0.61095029700742,-0.61095029700742,750,0,0,incongruent,1,1235.04546968396,1709.67100943922
8,104,4,562,-0.5,0.5,0,3,NaN,0.6,3,699,1,1,699,1,0,1.2,0.6,0.215187159768953,0.215187159768953,750,0,0,neutral,0.1,431.380680677891,1262.91247893472
8,104,4,563,0.5,-0.5,-0.5,4,4,0.8,4,617,1,1,617,1,0,1.4,NaN,-0.255252225339815,-0.255252225339815,750,1,0,congruent,1,7314.43673733558,1781.51549116434
8,104,4,564,-0.5,0.5,0,2,NaN,0.8,2,632,1,1,632,1,0,1.6,0.6,-0.169196240258943,-0.169196240258943,750,0,0,neutral,0.1,3144.52395901833,1418.73072597457
8,104,4,565,-0.5,-0.5,-0.5,3,3,0.8,3,589,1,1,589,1,0,1.4,0.6,-0.415890064157443,-0.415890064157443,750,1,0,congruent,0.1,1350.34184966221,963.224517999083
8,104,4,566,-0.5,0.5,0,1,NaN,0.8,1,336,1,1,336,1,0,1.4,0.6,-1.86736767918815,-1.86736767918815,750,0,0,neutral,0.1,3029.69401610524,4329.41571759374
8,104,4,567,-0.5,0.5,0.5,2,1,1,2,995,1,0,995,0,0,1.2,0.8,1.91335859869816,1.91335859869816,750,0,0,incongruent,0,2206.4732252708,2384.91149133737
8,104,4,568,-0.5,0.5,0.5,1,4,0.8,1,630,1,1,630,1,0,1,0.8,-0.180670371603059,-0.180670371603059,750,0,0,incongruent,0.1,3262.00744025291,1888.73612075518
8,104,4,569,-0.5,-0.5,0,3,NaN,0.8,3,760,1,0,760,1,0,0.8,0.6,0.565148165764499,0.565148165764499,750,0,0,neutral,0.1,6383.84184198732,2829.40085846328
8,104,4,570,0.5,-0.5,-0.5,2,2,0.8,2,666,1,1,666,1,0,0.8,NaN,0.0258639925910337,0.0258639925910337,750,1,0,congruent,1,3336.46665816968,1734.90029764529
8,104,4,571,-0.5,-0.5,-0.5,1,1,0.8,1,321,1,1,321,0,0,1,0.8,-1.95342366426903,-1.95342366426903,750,1,0,congruent,0,2373.54337531344,712.219827120903
8,104,4,572,-0.5,0.5,0.5,4,2,0.8,4,320,1,1,320,1,0,0.8,0.8,-1.95916072994108,-1.95916072994108,750,0,0,incongruent,0.1,1863.02653653591,387.725685233734
8,104,4,573,0.5,0.5,-0.5,1,1,0.8,1,615,1,1,615,1,0,1,NaN,-0.266726356683932,-0.266726356683932,750,1,0,congruent,1,2084.05269979205,955.32071194771
8,104,4,574,-0.5,-0.5,0,2,NaN,0.8,2,738,1,1,738,1,0,1.2,0.6,0.43893272097922,0.43893272097922,750,0,0,neutral,0.1,944.895674569989,1575.79073322619
8,104,4,575,-0.5,-0.5,0.5,4,1,0.8,4,698,1,1,698,1,0,1.2,0.8,0.209450094096894,0.209450094096894,750,0,0,incongruent,0.1,1463.27192374827,6394.21811964832
8,104,4,576,0.5,-0.5,-0.5,2,2,0.8,2,573,1,1,573,1,0,1,NaN,-0.507683114910374,-0.507683114910374,750,1,0,congruent,1,1852.4967715945,4074.56710340095
8,104,4,577,-0.5,-0.5,0,3,NaN,0.8,3,607,1,1,607,1,0,1.4,0.8,-0.312622882060397,-0.312622882060397,750,0,0,neutral,0.1,1694.24628018698,1535.55815235695
8,104,4,578,0.5,0.5,-0.5,1,1,0.8,4,569,0,1,NaN,0,0,1.4,NaN,-0.530631377598606,NaN,750,0,1,congruent,0,9178.36795972943,1336.01485883828
8,104,4,579,-0.5,0.5,0.5,2,4,0.6,2,795,1,0,795,0,0,1,0.8,0.765945464286534,0.765945464286534,750,0,0,incongruent,0,3429.2407688339,1480.19093184954
8,104,4,580,0.5,-0.5,0.5,1,3,0.6,1,417,1,1,417,1,0,0.8,NaN,-1.40266535975144,-1.40266535975144,750,0,0,incongruent,1,1738.06264895463,2490.28188852394
8,104,4,581,-0.5,-0.5,0.5,4,1,0.6,4,639,1,1,639,0,0,1,0.8,-0.129036780554536,-0.129036780554536,750,0,0,incongruent,0,2970.34962149599,3213.47820383848
8,104,4,582,0.5,-0.5,0.5,1,2,0.6,1,627,1,1,627,1,0,0.6,NaN,-0.197881568619234,-0.197881568619234,750,0,0,incongruent,1,540.863778930455,992.604775230618
8,104,4,583,-0.5,-0.5,-0.5,3,3,0.6,3,682,1,1,682,1,0,0.8,0.6,0.117657043343964,0.117657043343964,750,1,0,congruent,0.1,5697.5248457035,1025.30148612907
8,104,4,584,0.5,-0.5,0,1,NaN,0.6,1,507,1,1,507,1,0,1,NaN,-0.886329449266211,-0.886329449266211,750,0,0,neutral,1,2044.19650483831,1213.85713287517
8,104,4,585,-0.5,-0.5,-0.5,3,3,0.6,3,660,1,1,660,0,0,1.4,0.8,-0.00855840144131514,-0.00855840144131514,750,1,0,congruent,0,1422.6042017135,1713.901852537
8,104,4,586,0.5,-0.5,0,2,NaN,0.6,1,442,0,1,NaN,0,0,1,NaN,-1.25923871794999,NaN,750,0,1,neutral,0,3636.26642145484,1771.88825134878
8,104,4,587,0.5,0.5,-0.5,4,4,0.6,4,662,1,1,662,1,0,1,NaN,0.00291572990280115,0.00291572990280115,750,1,0,congruent,1,1557.92113988773,4544.37432984433
8,104,4,588,-0.5,-0.5,-0.5,1,1,0.6,1,341,1,1,341,1,0,1,0.6,-1.83868235082786,-1.83868235082786,750,1,0,congruent,0.1,2379.5055449366,1306.83332624135
8,104,4,589,-0.5,0.5,0.5,3,4,0.6,3,701,1,1,701,1,0,1,0.6,0.226661291113069,0.226661291113069,750,0,0,incongruent,0.1,175.127973707308,3624.3559954849
8,104,4,590,-0.5,0.5,0,2,NaN,0.6,2,334,1,1,334,1,0,0.8,0.6,-1.87884181053227,-1.87884181053227,750,0,0,neutral,0.1,1216.87989861003,922.906126658694
8,104,4,591,-0.5,0.5,-0.5,1,1,0.6,1,322,1,1,322,1,0,1,0.8,-1.94768659859697,-1.94768659859697,750,1,0,congruent,0.1,1262.37537282355,1962.17958449419
8,104,4,592,0.5,-0.5,-0.5,2,2,0.8,2,748,1,1,748,0,0,1.2,NaN,0.496303377699802,0.496303377699802,750,1,0,congruent,0,2387.90509595706,2845.39190845349
8,104,4,593,-0.5,0.5,-0.5,1,1,0.8,1,523,1,1,523,1,0,0.8,0.8,-0.794536398513281,-0.794536398513281,750,1,0,congruent,0.1,4123.5741175365,2722.21643851981
8,104,4,594,0.5,0.5,-0.5,2,2,1,2,730,1,1,730,1,0,0.8,NaN,0.393036195602755,0.393036195602755,750,1,0,congruent,1,3065.45010154692,2963.08785641122
8,104,4,595,0.5,0.5,0.5,4,3,1,4,736,1,1,736,1,0,1,NaN,0.427458589635104,0.427458589635104,750,0,0,incongruent,1,3094.15088972126,1203.69929928827
8,104,4,596,-0.5,-0.5,0.5,3,1,1,3,438,1,1,438,1,0,1.2,0.6,-1.28218698063822,-1.28218698063822,750,0,0,incongruent,0.1,7097.97144122974,4336.4317906232
8,104,4,597,-0.5,0.5,0,4,NaN,1,4,670,1,1,670,1,0,1.2,0.8,0.0488122552792663,0.0488122552792663,750,0,0,neutral,0.1,1236.34538718025,7961.32791600171
8,104,4,598,-0.5,0.5,-0.5,3,3,1,3,940,1,0,940,0,0,1.4,1,1.59781998673497,1.59781998673497,750,1,0,congruent,0,2441.14337006443,5868.56784580894
8,104,4,599,-0.5,0.5,0,1,NaN,0.8,1,477,1,1,477,1,0,1.2,0.8,-1.05844141942796,-1.05844141942796,750,0,0,neutral,0.1,2183.78673441797,2290.62721248234
8,104,4,600,-0.5,0.5,0.5,2,4,0.8,2,480,1,1,480,1,0,1,0.8,-1.04123022241178,-1.04123022241178,750,0,0,incongruent,0.1,2728.92846567205,783.553594335964
