subid,vers,block,trial,rewlvl,efflvl,congruency,targetresp,distractorresp,rollingefflvl,resp,rt,acc,fast,accrt,isrewarded,ismiss,runavgrrgen,runavgrrcond,zrt,acczrt,rtthreshold,isdisterror,isranderror,congruence,feedback,fcz_resp_theta,fcz_resp_theta_baseline
9,104,1,1,0.5,-0.5,0.5,4,3,0.3,3,719,0,1,NaN,0,0,0,NaN,1.4761057215275,NaN,750,1,0,incongruent,0,2087.40076318889,2080.18295466009
9,104,1,2,-0.5,0.5,0.5,2,1,0.3,1,468,0,1,NaN,0,0,0,0,-0.686101231248471,NaN,750,1,0,incongruent,0,964.798045000645,4664.98240517762
9,104,1,3,0.5,-0.5,0,3,NaN,0.2,1,630,0,1,NaN,0,0,0,NaN,0.709426762176656,NaN,750,0,1,neutral,0,4290.32065953855,2052.0003119517
9,104,1,4,0.5,0.5,-0.5,1,1,0.2,1,513,1,1,513,1,0,0,NaN,-0.298454566408158,-0.298454566408158,750,1,0,congruent,1,1202.07695060109,3810.57934751566
9,104,1,5,0.5,0.5,0.5,2,3,0.4,3,728,0,1,NaN,0,0,0.4,NaN,1.55363505449556,NaN,750,1,0,incongruent,0,7392.83911129699,13688.6295667418
9,104,1,6,0.5,0.5,0,4,NaN,0.3,4,456,1,1,456,1,0,0.4,NaN,-0.789473675205888,-0.789473675205888,750,0,0,neutral,1,1135.4038097469,1661.20443582514
9,104,1,7,0.5,-0.5,-0.5,2,2,0.5,2,610,1,1,610,0,0,0.8,NaN,0.537139355580962,0.537139355580962,750,1,0,congruent,0,1512.54589282063,2538.43887914352
9,104,1,8,0.5,0.5,-0.5,3,3,0.5,3,412,1,1,412,1,0,0.8,NaN,-1.16850596971642,-1.16850596971642,750,1,0,congruent,1,8552.39431921852,3370.63995523546
9,104,1,9,-0.5,-0.5,0,4,NaN,0.6,4,418,1,1,418,1,0,1.2,0,-1.11681974773771,-1.11681974773771,750,0,0,neutral,0.1,3967.81011492984,3126.94449096798
9,104,1,10,-0.5,-0.5,-0.5,1,1,0.6,1,523,1,1,523,1,0,1,0.2,-0.21231086311031,-0.21231086311031,750,1,0,congruent,0.1,1759.62412708236,2945.41944968873
9,104,1,11,-0.5,0.5,0,3,NaN,0.6,3,684,1,1,684,1,0,1.2,0,1.17460275998503,1.17460275998503,750,0,0,neutral,0.1,570.182870104118,9253.57119700317
9,104,1,12,-0.5,0.5,-0.5,4,4,0.8,4,555,1,1,555,1,0,1,0.2,0.0633489874428012,0.0633489874428012,750,1,0,congruent,0.1,1874.42930716224,1303.46180902653
9,104,1,13,0.5,0.5,0.5,2,3,0.8,3,549,0,1,NaN,0,0,1.2,NaN,0.0116627654640928,NaN,750,1,0,incongruent,0,2445.34000794201,931.341166434641
9,104,1,14,0.5,-0.5,0,4,NaN,0.8,4,534,1,1,534,1,0,0.8,NaN,-0.117552789482678,-0.117552789482678,750,0,0,neutral,1,2604.04213851092,2126.64254958698
9,104,1,15,-0.5,-0.5,0.5,3,1,0.8,1,601,0,1,NaN,1,0,1,0.4,0.459610022612899,NaN,750,1,0,incongruent,0.1,2495.4164392558,5131.71801992065
9,104,1,16,0.5,0.5,0.5,1,2,0.8,2,321,0,1,NaN,0,0,1,NaN,-1.95241366972683,NaN,750,1,0,incongruent,0,3086.03059814734,986.157975290744
9,104,1,17,-0.5,0.5,0,4,NaN,0.6,4,500,1,1,500,1,0,0.8,0.4,-0.410441380695359,-0.410441380695359,750,0,0,neutral,0.1,4042.12143615475,5175.25112548772
9,104,1,18,0.5,-0.5,0.5,2,1,0.6,1,518,0,1,NaN,0,0,0.8,NaN,-0.255382714759234,NaN,750,1,0,incongruent,0,1101.62992115764,2990.51393104694
9,104,1,19,-0.5,0.5,-0.5,4,4,0.6,4,611,1,1,611,1,0,0.8,0.6,0.545753725910746,0.545753725910746,750,1,0,congruent,0.1,3641.68111766737,4049.09027070891
9,104,1,20,-0.5,-0.5,0,1,NaN,0.6,1,717,1,1,717,0,0,0.6,0.6,1.45887698086793,1.45887698086793,750,0,0,neutral,0,3089.91749671668,5998.65225192028
9,104,1,21,-0.5,-0.5,-0.5,2,2,0.6,2,414,1,1,414,1,0,0.4,0.6,-1.15127722905685,-1.15127722905685,750,1,0,congruent,0.1,1703.82873559752,1698.70571724116
9,104,1,22,-0.5,0.5,0.5,3,1,0.6,1,576,0,1,NaN,0,0,0.6,0.8,0.244250764368281,NaN,750,1,0,incongruent,0,1432.91799999994,1090.69427157315
9,104,1,23,-0.5,-0.5,-0.5,4,4,0.4,4,415,1,1,415,0,0,0.4,0.8,-1.14266285872706,-1.14266285872706,750,1,0,congruent,0,6831.77450618168,2731.89347248509
9,104,1,24,0.5,-0.5,0.5,1,3,0.4,3,723,0,1,NaN,0,0,0.4,NaN,1.51056320284664,NaN,750,1,0,incongruent,0,1924.69378655317,3066.3908535978
9,104,1,25,0.5,-0.5,0,3,NaN,0.4,3,583,1,1,583,0,0,0.2,NaN,0.304551356676774,0.304551356676774,750,0,0,neutral,0,4595.9541151078,2303.11229298229
9,104,1,26,-0.5,0.5,-0.5,1,1,0.4,1,497,1,1,497,1,0,0.2,0.8,-0.436284491684714,-0.436284491684714,750,1,0,congruent,0.1,2248.77532877365,5947.09149839701
9,104,1,27,-0.5,-0.5,0,3,NaN,0.6,3,584,1,1,584,1,0,0.2,0.6,0.313165727006559,0.313165727006559,750,0,0,neutral,0.1,1791.40908120296,3459.14111240583
9,104,1,28,0.5,-0.5,0.5,2,4,0.6,4,773,0,0,NaN,1,0,0.4,NaN,1.94128171933587,NaN,750,1,0,incongruent,1,6610.02638010851,4892.26248482177
9,104,1,29,0.5,-0.5,0,3,NaN,0.6,3,667,1,1,667,1,0,0.8,NaN,1.02815846437869,1.02815846437869,750,0,0,neutral,1,1546.31270490292,2280.31800569514
9,104,1,30,0.5,-0.5,-0.5,2,2,0.6,2,665,1,1,665,0,0,1.2,NaN,1.01092972371912,1.01092972371912,750,1,0,congruent,0,1320.27239365075,11044.3790148711
9,104,1,31,0.5,-0.5,0,4,NaN,0.6,4,577,1,1,577,1,0,1.2,NaN,0.252865134698065,0.252865134698065,750,0,0,neutral,1,6800.56472408569,2518.82529559483
9,104,1,32,-0.5,-0.5,-0.5,2,2,0.6,2,540,1,1,540,0,0,1.4,0.6,-0.0658665675039699,-0.0658665675039699,750,1,0,congruent,0,7235.35476428872,2708.66432108308
9,104,1,33,0.5,-0.5,0.5,3,1,0.6,1,447,0,1,NaN,1,0,1.2,NaN,-0.86700300817395,NaN,750,1,0,incongruent,1,7848.48780744531,3404.5931136178
9,104,1,34,0.5,-0.5,0,4,NaN,0.6,4,551,1,1,551,1,0,1.2,NaN,0.0288915061236622,0.0288915061236622,750,0,0,neutral,1,1706.73800111797,1082.7069314165
9,104,1,35,0.5,-0.5,-0.5,3,3,0.6,3,521,1,1,521,0,0,1.2,NaN,-0.22953960376988,-0.22953960376988,750,1,0,congruent,0,18046.5027482864,2738.32702600416
9,104,1,36,0.5,-0.5,0,2,NaN,0.6,2,514,1,1,514,1,0,1.2,NaN,-0.289840196078373,-0.289840196078373,750,0,0,neutral,1,989.206885655316,1779.56522145613
9,104,1,37,0.5,0.5,-0.5,3,3,0.6,3,547,1,1,547,1,0,1.2,NaN,-0.00556597519547671,-0.00556597519547671,750,1,0,congruent,1,2204.44511312305,2227.04976019487
9,104,1,38,0.5,0.5,0.5,4,1,0.8,1,487,0,1,NaN,0,0,1.6,NaN,-0.522428194982561,NaN,750,1,0,incongruent,0,2251.11877532315,1443.87658033335
9,104,1,39,-0.5,-0.5,0,2,NaN,0.6,2,655,1,1,655,1,0,1.2,0.4,0.924786020421275,0.924786020421275,750,0,0,neutral,0.1,3568.26130504062,2057.68523165805
9,104,1,40,0.5,-0.5,0.5,4,3,0.6,2,744,0,1,NaN,1,0,1,NaN,1.69146497977212,NaN,750,0,1,incongruent,1,5807.2840074317,2479.70998704494
9,104,1,41,-0.5,0.5,0.5,3,1,0.6,1,462,0,1,NaN,0,0,1.4,0.8,-0.737787453227179,NaN,750,1,0,incongruent,0,1890.19854894334,5833.65817450299
9,104,1,42,0.5,-0.5,0.5,2,3,0.4,2,727,1,1,727,0,0,1,NaN,1.54502068416578,1.54502068416578,750,0,0,incongruent,0,5958.69378106053,2419.36532565651
9,104,1,43,0.5,-0.5,0,4,NaN,0.4,4,494,1,1,494,1,0,0.6,NaN,-0.462127602674068,-0.462127602674068,750,0,0,neutral,1,1786.07456470231,2804.99639459545
9,104,1,44,0.5,-0.5,-0.5,1,1,0.4,1,605,1,1,605,1,0,1,NaN,0.494067503932038,0.494067503932038,750,1,0,congruent,1,1458.93669330664,6932.01648434411
9,104,1,45,0.5,-0.5,-0.5,2,2,0.4,2,378,1,1,378,1,0,1.2,NaN,-1.4613945609291,-1.4613945609291,750,1,0,congruent,1,4684.81634430426,1287.75639253155
9,104,1,46,0.5,0.5,-0.5,3,3,0.4,3,483,1,1,483,1,0,1.2,NaN,-0.5568856763017,-0.5568856763017,750,1,0,congruent,1,2089.09013975391,1676.65801769236
9,104,1,47,0.5,0.5,0,1,NaN,0.6,1,570,1,1,570,1,0,1.6,NaN,0.192564542389572,0.192564542389572,750,0,0,neutral,1,2287.0953879426,1760.61319809512
9,104,1,48,-0.5,0.5,-0.5,3,3,0.6,3,644,1,1,644,1,0,2,0.6,0.830027946793643,0.830027946793643,750,1,0,congruent,0.1,3020.20026418129,2649.06315254674
9,104,1,49,0.5,-0.5,0,4,NaN,0.6,4,374,1,1,374,1,0,1.8,NaN,-1.49585204224824,-1.49585204224824,750,0,0,neutral,1,2493.0137223652,2433.27741199582
9,104,1,50,-0.5,-0.5,-0.5,2,2,0.6,2,480,1,1,480,1,0,1.8,0.6,-0.582728787291054,-0.582728787291054,750,1,0,congruent,0.1,2777.97811969977,3143.47594477195
9,104,1,51,0.5,0.5,-0.5,4,4,0.6,4,464,1,1,464,1,0,1.6,NaN,-0.72055871256761,-0.72055871256761,750,1,0,congruent,1,2554.54327437999,1426.74923648482
9,104,1,52,0.5,0.5,0,2,NaN,0.8,2,545,1,1,545,1,0,1.6,NaN,-0.0227947158550462,-0.0227947158550462,750,0,0,neutral,1,755.26524745601,1228.818806584
9,104,1,53,0.5,0.5,-0.5,1,1,1,1,352,1,1,352,1,0,1.6,NaN,-1.6853681895035,-1.6853681895035,750,1,0,congruent,1,4634.73819359462,1442.67796291054
9,104,1,54,-0.5,-0.5,0,3,NaN,1,3,631,1,1,631,1,0,1.8,0.6,0.718041132506441,0.718041132506441,750,0,0,neutral,0.1,4224.37932489255,2969.50884555249
9,104,1,55,-0.5,0.5,-0.5,2,2,1,2,478,1,1,478,1,0,1.6,0.6,-0.599957527950624,-0.599957527950624,750,1,0,congruent,0.1,6083.8970395343,1067.05889681897
9,104,1,56,-0.5,-0.5,-0.5,1,1,1,1,507,1,1,507,1,0,1.6,0.8,-0.350140788386866,-0.350140788386866,750,1,0,congruent,0.1,817.854342710966,4602.65935785989
9,104,1,57,0.5,-0.5,0.5,3,2,1,2,555,0,1,NaN,1,0,1.4,NaN,0.0633489874428012,NaN,750,1,0,incongruent,1,4941.40454617223,4776.44585853339
9,104,1,58,0.5,-0.5,0,2,NaN,1,2,643,1,1,643,1,0,1.4,NaN,0.821413576463858,0.821413576463858,750,0,0,neutral,1,657.532482791708,2234.17492220944
9,104,1,59,-0.5,-0.5,-0.5,3,3,1,3,387,1,1,387,1,0,1.4,0.8,-1.38386522796103,-1.38386522796103,750,1,0,congruent,0.1,2430.20710576831,3333.03651172041
9,104,1,60,0.5,0.5,0.5,2,1,1,1,499,0,1,NaN,0,0,1.4,NaN,-0.419055751025144,NaN,750,1,0,incongruent,0,2813.74034533725,3639.80263031156
9,104,1,61,-0.5,0.5,-0.5,3,3,0.8,3,741,1,1,741,1,0,1.2,0.6,1.66562186878276,1.66562186878276,750,1,0,congruent,0.1,890.070349627375,2340.89311169854
9,104,1,62,-0.5,-0.5,0.5,2,4,0.8,2,345,1,1,345,1,0,1.2,1,-1.74566878181199,-1.74566878181199,750,0,0,incongruent,0.1,3646.46242775404,439.769837118463
9,104,1,63,-0.5,0.5,0.5,4,1,0.8,1,657,0,1,NaN,0,0,1,0.8,0.942014761080844,NaN,750,1,0,incongruent,0,6371.71806979437,5571.09903876134
9,104,1,64,-0.5,-0.5,-0.5,3,3,0.6,3,483,1,1,483,1,0,0.6,1,-0.5568856763017,-0.5568856763017,750,1,0,congruent,0.1,1778.36642054832,1892.39689394559
9,104,1,65,-0.5,0.5,0.5,4,2,0.6,2,742,0,1,NaN,0,0,0.6,0.6,1.67423623911255,NaN,750,1,0,incongruent,0,1788.7400116863,2039.32360321895
9,104,1,66,0.5,-0.5,0,3,NaN,0.4,3,641,1,1,641,0,0,0.6,NaN,0.804184835804289,0.804184835804289,750,0,0,neutral,0,936.367871980158,3702.67579239763
9,104,1,67,-0.5,-0.5,-0.5,1,1,0.4,1,519,1,1,519,0,0,0.4,1,-0.246768344429449,-0.246768344429449,750,1,0,congruent,0,3370.39516835579,1132.98633347187
9,104,1,68,0.5,0.5,0.5,3,2,0.4,2,531,0,1,NaN,0,0,0.2,NaN,-0.143395900472033,NaN,750,1,0,incongruent,0,2072.65492748422,1392.61115696995
9,104,1,69,0.5,-0.5,-0.5,4,4,0.2,4,489,1,1,489,0,0,0.2,NaN,-0.505199454322992,-0.505199454322992,750,1,0,congruent,0,1717.69752808294,1631.40884550198
9,104,1,70,-0.5,0.5,0.5,2,3,0.2,3,551,0,1,NaN,0,0,0,0.6,0.0288915061236622,NaN,750,1,0,incongruent,0,1412.3009236513,440.335596768713
9,104,1,71,-0.5,0.5,-0.5,1,1,0.2,1,568,1,1,568,1,0,0,0.4,0.175335801730003,0.175335801730003,750,1,0,congruent,0.1,1445.25078585529,2947.74124797648
9,104,1,72,-0.5,0.5,0,4,NaN,0.2,4,565,1,1,565,1,0,0.2,0.4,0.149492690740649,0.149492690740649,750,0,0,neutral,0.1,4768.3865719049,2415.09125391448
9,104,1,73,0.5,-0.5,-0.5,1,1,0.4,1,453,1,1,453,0,0,0.4,NaN,-0.815316786195242,-0.815316786195242,750,1,0,congruent,0,4763.53749799024,1128.23296627357
9,104,1,74,0.5,0.5,0,3,NaN,0.4,4,467,0,1,NaN,0,0,0.4,NaN,-0.694715601578256,NaN,750,0,1,neutral,0,3846.27478099704,5383.8009266605
9,104,1,75,0.5,-0.5,0.5,2,4,0.4,4,633,0,1,NaN,0,0,0.4,NaN,0.735269873166011,NaN,750,1,0,incongruent,0,2207.32078949903,3604.52813959085
9,104,1,76,0.5,0.5,0,3,NaN,0.4,3,716,1,1,716,1,0,0.4,NaN,1.45026261053814,1.45026261053814,750,0,0,neutral,1,6335.43006933767,2121.84441986629
9,104,1,77,-0.5,-0.5,0.5,2,3,0.6,3,655,0,1,NaN,0,0,0.6,0.8,0.924786020421275,NaN,750,1,0,incongruent,0,2784.28703394801,3008.91434295501
9,104,1,78,0.5,0.5,0,3,NaN,0.6,3,477,1,1,477,1,0,0.4,NaN,-0.608571898280408,-0.608571898280408,750,0,0,neutral,1,2318.7329218065,5351.73919287981
9,104,1,79,0.5,0.5,0.5,1,4,0.8,4,459,0,1,NaN,0,0,0.8,NaN,-0.763630564216534,NaN,750,1,0,incongruent,0,859.587161655441,1987.40581789847
9,104,1,80,0.5,-0.5,0.5,3,1,0.6,1,499,0,1,NaN,1,0,0.8,NaN,-0.419055751025144,NaN,750,1,0,incongruent,1,1938.63629097167,1647.49430978172
9,104,1,81,0.5,-0.5,0,4,NaN,0.6,4,549,1,1,549,0,0,1.2,NaN,0.0116627654640928,0.0116627654640928,750,0,0,neutral,0,4924.56873414983,3059.33166358599
9,104,1,82,-0.5,0.5,0.5,3,1,0.6,1,714,0,1,NaN,0,0,0.8,0.4,1.43303386987857,NaN,750,1,0,incongruent,0,5677.13801044758,3751.4762097476
9,104,1,83,-0.5,0.5,0.5,1,4,0.4,4,465,0,1,NaN,0,0,0.8,0.4,-0.711944342237825,NaN,750,1,0,incongruent,0,4031.27059271305,1534.89725004385
9,104,1,84,0.5,-0.5,0.5,2,3,0.4,3,678,0,1,NaN,0,0,0.4,NaN,1.12291653800632,NaN,750,1,0,incongruent,0,3272.78829558835,8090.9533698706
9,104,1,85,0.5,0.5,0,4,NaN,0.4,4,486,1,1,486,1,0,0.4,NaN,-0.531042565312346,-0.531042565312346,750,0,0,neutral,1,2507.06667908931,738.037696252162
9,104,1,86,-0.5,-0.5,0.5,1,3,0.4,3,689,0,1,NaN,0,0,0.4,0.6,1.21767461163396,NaN,750,1,0,incongruent,0,1759.24368171502,7020.00681331852
9,104,1,87,0.5,-0.5,-0.5,4,4,0.4,4,574,1,1,574,0,0,0.4,NaN,0.227022023708711,0.227022023708711,750,1,0,congruent,0,746.311984567567,2430.83028112959
9,104,1,88,0.5,-0.5,0,1,NaN,0.4,2,802,0,0,NaN,0,0,0.4,NaN,2.19109845889963,NaN,750,0,1,neutral,0,7995.06389797377,1333.89851215634
9,104,1,89,-0.5,0.5,-0.5,3,3,0.4,3,567,1,1,567,1,0,0.4,0.4,0.166721431400218,0.166721431400218,750,1,0,congruent,0.1,2515.91681049471,1995.40461500234
9,104,1,90,-0.5,-0.5,-0.5,4,4,0.4,4,431,1,1,431,0,0,0.6,0.4,-1.00483293345051,-1.00483293345051,750,1,0,congruent,0,5938.38540898675,1070.2998431597
9,104,1,91,-0.5,0.5,0.5,2,3,0.4,3,776,0,0,NaN,0,0,0.2,0.6,1.96712483032523,NaN,750,1,0,incongruent,0,2418.46535974436,5176.87855703481
9,104,1,92,-0.5,-0.5,0,1,NaN,0.4,1,695,1,1,695,1,0,0.2,0.2,1.26936083361266,1.26936083361266,750,0,0,neutral,0.1,2034.9999513079,5367.76835755063
9,104,1,93,-0.5,-0.5,0.5,4,1,0.4,1,584,0,1,NaN,0,0,0.4,0.2,0.313165727006559,NaN,750,1,0,incongruent,0,2551.58278679681,3238.01155850476
9,104,1,94,-0.5,0.5,0.5,2,4,0.4,4,732,0,1,NaN,0,0,0.4,0.4,1.5880925358147,NaN,750,1,0,incongruent,0,2954.15173495504,807.898130063017
9,104,1,95,-0.5,-0.5,0,1,NaN,0.4,1,555,1,1,555,0,0,0.2,0.2,0.0633489874428012,0.0633489874428012,750,0,0,neutral,0,1595.14874911424,2627.10301333109
9,104,1,96,0.5,0.5,-0.5,4,4,0.4,4,491,1,1,491,1,0,0.2,NaN,-0.487970713663422,-0.487970713663422,750,1,0,congruent,1,2316.71472564846,2162.04403108068
9,104,1,97,0.5,0.5,-0.5,1,1,0.6,1,347,1,1,347,1,0,0.6,NaN,-1.72844004115242,-1.72844004115242,750,1,0,congruent,1,605.889212218014,5829.48139863569
9,104,1,98,0.5,0.5,0,3,NaN,0.6,3,618,1,1,618,1,0,0.8,NaN,0.60605431821924,0.60605431821924,750,0,0,neutral,1,8203.85864368888,1081.98656707361
9,104,1,99,0.5,-0.5,0.5,2,3,0.6,3,664,0,1,NaN,1,0,1.2,NaN,1.00231535338934,NaN,750,1,0,incongruent,1,2619.10490500035,8958.37054854737
9,104,1,100,0.5,0.5,-0.5,4,4,0.6,4,456,1,1,456,1,0,1.6,NaN,-0.789473675205888,-0.789473675205888,750,1,0,congruent,1,4438.21243224872,3197.25686698249
9,104,1,101,0.5,-0.5,-0.5,3,3,0.8,3,486,1,1,486,1,0,2,NaN,-0.531042565312346,-0.531042565312346,750,1,0,congruent,1,1262.85051420305,2116.25233178357
9,104,1,102,0.5,-0.5,0.5,4,1,0.8,1,457,0,1,NaN,1,0,2,NaN,-0.780859304876103,NaN,750,1,0,incongruent,1,1479.5339531026,3144.99413519247
9,104,1,103,0.5,-0.5,0.5,3,2,0.8,2,368,0,1,NaN,1,0,2,NaN,-1.54753826422694,NaN,750,1,0,incongruent,1,1150.35230096863,2532.09406043439
9,104,1,104,-0.5,0.5,0,2,NaN,0.8,2,752,1,0,752,0,0,2,0.2,1.76037994241039,1.76037994241039,750,0,0,neutral,0,1930.42872370556,8357.8181968343
9,104,1,105,0.5,-0.5,-0.5,3,3,0.8,3,518,1,1,518,0,0,1.6,NaN,-0.255382714759234,-0.255382714759234,750,1,0,congruent,0,7684.91446304389,2870.08658655395
9,104,1,106,0.5,-0.5,0,2,NaN,0.8,2,473,1,1,473,1,0,1.2,NaN,-0.643029379599547,-0.643029379599547,750,0,0,neutral,1,1076.81827013076,4278.42078013853
9,104,1,107,-0.5,-0.5,-0.5,4,4,0.8,4,516,1,1,516,1,0,1.2,0.2,-0.272611455418804,-0.272611455418804,750,1,0,congruent,0.1,2028.23180740446,3043.626555399
9,104,1,108,0.5,0.5,0,1,NaN,0.8,1,373,1,1,373,1,0,1,NaN,-1.50446641257802,-1.50446641257802,750,0,0,neutral,1,8384.81676423838,3019.77704968397
9,104,1,109,-0.5,0.5,-0.5,3,3,0.8,2,494,0,1,NaN,0,0,1,0.2,-0.462127602674068,NaN,750,0,1,congruent,0,6882.66173307034,1197.7196118469
9,104,1,110,-0.5,0.5,-0.5,1,1,0.6,1,461,1,1,461,1,0,1,0.2,-0.746401823556964,-0.746401823556964,750,1,0,congruent,0.1,3460.12218598947,2743.27580839434
9,104,1,111,-0.5,0.5,0.5,4,2,0.6,2,468,0,1,NaN,0,0,1.2,0.2,-0.686101231248471,NaN,750,1,0,incongruent,0,2653.93338780319,2368.90275379989
9,104,1,112,-0.5,0.5,0,3,NaN,0.4,3,510,1,1,510,1,0,0.8,0.2,-0.324297677397512,-0.324297677397512,750,0,0,neutral,0.1,2840.84756199603,1478.04639446586
9,104,1,113,-0.5,0.5,0.5,1,4,0.6,4,565,0,1,NaN,0,0,0.8,0.4,0.149492690740649,NaN,750,1,0,incongruent,0,3232.19088785794,4583.08792952937
9,104,1,114,0.5,0.5,-0.5,2,2,0.4,2,602,1,1,602,1,0,0.4,NaN,0.468224392942684,0.468224392942684,750,1,0,congruent,1,3818.75428714326,1628.77993627946
9,104,1,115,-0.5,0.5,0,1,NaN,0.6,1,433,1,1,433,1,0,0.8,0.4,-0.987604192790937,-0.987604192790937,750,0,0,neutral,0.1,1606.34817793431,2377.14745898574
9,104,1,116,0.5,-0.5,-0.5,4,4,0.6,4,457,1,1,457,0,0,0.8,NaN,-0.780859304876103,-0.780859304876103,750,1,0,congruent,0,3874.51081600401,3747.51950988748
9,104,1,117,0.5,0.5,0,2,NaN,0.6,1,604,0,1,NaN,0,0,0.8,NaN,0.485453133602253,NaN,750,0,1,neutral,0,11497.5388289113,4816.60355450945
9,104,1,118,0.5,-0.5,0.5,4,2,0.6,2,470,0,1,NaN,1,0,0.6,NaN,-0.668872490588902,NaN,750,1,0,incongruent,1,4802.82146675501,3096.51288246349
9,104,1,119,0.5,0.5,-0.5,3,3,0.6,3,643,1,1,643,1,0,1,NaN,0.821413576463858,0.821413576463858,750,1,0,congruent,1,3694.03486586741,1389.03677735887
9,104,1,120,-0.5,0.5,-0.5,2,2,0.6,2,524,1,1,524,1,0,1,0.6,-0.203696492780526,-0.203696492780526,750,1,0,congruent,0.1,947.384020771801,3018.24837795571
9,104,1,121,-0.5,-0.5,-0.5,4,4,0.8,4,580,1,1,580,1,0,1,0.4,0.27870824568742,0.27870824568742,750,1,0,congruent,0.1,2622.91799312679,3189.28010959468
9,104,1,122,-0.5,-0.5,0.5,1,3,0.8,3,508,0,1,NaN,1,0,1.2,0.6,-0.341526418057081,NaN,750,1,0,incongruent,0.1,2252.87743070431,2179.16471995158
9,104,1,123,0.5,0.5,0.5,3,2,0.8,2,466,0,1,NaN,0,0,1.4,NaN,-0.70332997190804,NaN,750,1,0,incongruent,0,1602.1447510644,2272.25456684656
9,104,1,124,-0.5,0.5,0,4,NaN,0.6,4,545,1,1,545,1,0,1,0.6,-0.0227947158550462,-0.0227947158550462,750,0,0,neutral,0.1,8106.02856796597,3819.57585790221
9,104,1,125,0.5,0.5,0.5,1,2,0.6,2,562,0,1,NaN,0,0,0.8,NaN,0.123649579751294,NaN,750,1,0,incongruent,0,9385.25631088358,2024.90890605905
9,104,1,126,-0.5,0.5,-0.5,3,3,0.6,3,479,1,1,479,1,0,0.6,0.8,-0.591343157620839,-0.591343157620839,750,1,0,congruent,0.1,3422.18531558145,1630.72896095315
9,104,1,127,0.5,-0.5,0.5,1,2,0.6,2,480,0,1,NaN,0,0,0.6,NaN,-0.582728787291054,NaN,750,1,0,incongruent,0,2208.65255773056,1763.57586946274
9,104,1,128,-0.5,-0.5,0.5,2,1,0.6,1,519,0,1,NaN,0,0,0.4,0.6,-0.246768344429449,NaN,750,1,0,incongruent,0,5984.14033150379,3695.84520008545
9,104,1,129,-0.5,-0.5,0,4,NaN,0.6,4,475,1,1,475,0,0,0.4,0.6,-0.625800638939978,-0.625800638939978,750,0,0,neutral,0,2322.55726020231,2437.9815174306
9,104,1,130,-0.5,-0.5,-0.5,2,2,0.6,2,521,1,1,521,1,0,0.2,0.6,-0.22953960376988,-0.22953960376988,750,1,0,congruent,0.1,2317.6201609401,5094.34186333617
9,104,1,131,-0.5,-0.5,0.5,3,4,0.6,4,558,0,1,NaN,1,0,0.4,0.6,0.0891920984321554,NaN,750,1,0,incongruent,0.1,1734.45573461299,2641.27118774242
9,104,1,132,-0.5,0.5,0,2,NaN,0.6,2,558,1,1,558,1,0,0.4,0.8,0.0891920984321554,0.0891920984321554,750,0,0,neutral,0.1,1735.1589219597,4464.67945318566
9,104,1,133,0.5,-0.5,0.5,3,1,0.6,1,452,0,1,NaN,1,0,0.6,NaN,-0.823931156525027,NaN,750,1,0,incongruent,1,3785.51517844883,2919.37620340235
9,104,1,134,0.5,0.5,0.5,1,2,0.6,2,453,0,1,NaN,0,0,1,NaN,-0.815316786195242,NaN,750,1,0,incongruent,0,539.961967183379,782.241833292527
9,104,1,135,0.5,0.5,0.5,4,3,0.6,3,439,0,1,NaN,0,0,1,NaN,-0.935917970812228,NaN,750,1,0,incongruent,0,4926.75170920317,5535.77217259805
9,104,1,136,0.5,0.5,-0.5,2,2,0.4,2,417,1,1,417,1,0,0.8,NaN,-1.12543411806749,-1.12543411806749,750,1,0,congruent,1,3967.88648877302,603.286477159902
9,104,1,137,0.5,-0.5,-0.5,1,1,0.6,1,357,1,1,357,1,0,1,NaN,-1.64229633785458,-1.64229633785458,750,1,0,congruent,1,1480.96613293538,2968.99003478951
9,104,1,138,-0.5,-0.5,0,3,NaN,0.6,3,556,1,1,556,1,0,1.2,0.6,0.0719633577725859,0.0719633577725859,750,0,0,neutral,0.1,6833.02545186754,4100.01456107685
9,104,1,139,0.5,-0.5,0.5,2,4,0.6,2,537,1,1,537,1,0,1,NaN,-0.0917096784933241,-0.0917096784933241,750,0,0,incongruent,1,1799.88544750655,3383.5259705138
9,104,1,140,-0.5,0.5,0,4,NaN,0.6,4,469,1,1,469,1,0,1.4,1,-0.677486860918686,-0.677486860918686,750,0,0,neutral,0.1,1024.03047361633,4537.66939489356
9,104,1,141,0.5,-0.5,-0.5,1,1,0.6,1,412,1,1,412,0,0,1.6,NaN,-1.16850596971642,-1.16850596971642,750,1,0,congruent,0,1731.23089426225,2341.32486933051
9,104,1,142,-0.5,0.5,0,4,NaN,0.6,4,477,1,1,477,1,0,1.2,1,-0.608571898280408,-0.608571898280408,750,0,0,neutral,0.1,2541.70322629591,3895.61881461785
9,104,1,143,-0.5,0.5,0.5,2,3,0.6,3,569,0,1,NaN,0,0,1,1,0.183950172059788,NaN,750,1,0,incongruent,0,3139.40746704551,2792.79951676287
9,104,1,144,0.5,-0.5,0.5,1,2,0.6,2,355,0,1,NaN,1,0,0.8,NaN,-1.65952507851415,NaN,750,1,0,incongruent,1,2607.89227315962,4227.02968070124
9,104,1,145,-0.5,-0.5,0.5,2,1,0.6,1,569,0,1,NaN,1,0,0.8,0.6,0.183950172059788,NaN,750,1,0,incongruent,0.1,2328.63873896047,536.923818467673
9,104,1,146,0.5,0.5,-0.5,3,3,0.6,3,589,1,1,589,1,0,0.8,NaN,0.356237578655482,0.356237578655482,750,1,0,congruent,1,11765.4229592724,1706.69826036818
9,104,1,147,-0.5,-0.5,0,2,NaN,0.8,2,702,1,1,702,1,0,1.2,0.8,1.32966142592116,1.32966142592116,750,0,0,neutral,0.1,3280.60969866645,5753.70851694526
9,104,1,148,0.5,0.5,-0.5,3,3,0.8,3,516,1,1,516,1,0,1.2,NaN,-0.272611455418804,-0.272611455418804,750,1,0,congruent,1,2624.75376714563,6484.32432526761
9,104,1,149,0.5,0.5,0,4,NaN,0.8,4,542,1,1,542,1,0,1.6,NaN,-0.0486378268444004,-0.0486378268444004,750,0,0,neutral,1,2143.67891014957,3635.49545197591
9,104,1,150,0.5,0.5,-0.5,3,3,0.8,3,557,1,1,557,1,0,1.6,NaN,0.0805777281023707,0.0805777281023707,750,1,0,congruent,1,10341.9118564027,4730.45561919535
9,104,2,151,-0.5,-0.5,-0.5,4,4,0.8,4,559,1,1,559,1,0,1.8,1,0.0978064687619401,0.0978064687619401,750,1,0,congruent,0.1,4473.62983990669,2578.57469439383
9,104,2,152,0.5,-0.5,-0.5,2,2,0.8,2,467,1,1,467,1,0,1.6,NaN,-0.694715601578256,-0.694715601578256,750,1,0,congruent,1,2239.46217309908,1141.54347000805
9,104,2,153,-0.5,0.5,-0.5,1,1,0.8,1,401,1,1,401,1,0,1.8,0.8,-1.26326404334405,-1.26326404334405,750,1,0,congruent,0.1,4472.77479035286,1587.88867120458
9,104,2,154,-0.5,0.5,0,4,NaN,1,4,487,1,1,487,1,0,1.6,0.8,-0.522428194982561,-0.522428194982561,750,0,0,neutral,0.1,5009.24108021156,3775.99280231963
9,104,2,155,0.5,-0.5,0.5,2,1,1,1,690,0,1,NaN,1,0,1.4,NaN,1.22628898196374,NaN,750,1,0,incongruent,1,4757.53144959693,1113.70967927543
9,104,2,156,0.5,-0.5,0.5,4,3,1,3,701,0,1,NaN,1,0,1.4,NaN,1.32104705559137,NaN,750,1,0,incongruent,1,3035.7419054564,5640.41526782416
9,104,2,157,-0.5,0.5,-0.5,1,1,1,1,488,1,1,488,1,0,1.6,0.8,-0.513813824652776,-0.513813824652776,750,1,0,congruent,0.1,5477.47109668972,2216.62321794125
9,104,2,158,0.5,0.5,0,3,NaN,1,3,596,1,1,596,1,0,1.4,NaN,0.416538170963975,0.416538170963975,750,0,0,neutral,1,1421.97870308811,3041.45976728192
9,104,2,159,0.5,0.5,-0.5,2,2,1,1,474,0,1,NaN,0,0,1.6,NaN,-0.634415009269763,NaN,750,0,1,congruent,0,4339.00638190385,929.694642974415
9,104,2,160,0.5,-0.5,0,4,NaN,0.8,4,562,1,1,562,0,0,1.4,NaN,0.123649579751294,0.123649579751294,750,0,0,neutral,0,6455.70013845637,2215.95779293443
9,104,2,161,-0.5,0.5,-0.5,1,1,0.8,1,538,1,1,538,1,0,1,0.8,-0.0830953081635393,-0.0830953081635393,750,1,0,congruent,0.1,1200.70058139678,1894.02108943532
9,104,2,162,-0.5,-0.5,0,4,NaN,0.8,4,455,1,1,455,1,0,0.8,1,-0.798088045535673,-0.798088045535673,750,0,0,neutral,0.1,2459.24255103847,1265.58384788227
9,104,2,163,-0.5,0.5,-0.5,1,1,0.8,1,478,1,1,478,1,0,0.8,0.8,-0.599957527950624,-0.599957527950624,750,1,0,congruent,0.1,1214.58165733309,1955.48008073655
9,104,2,164,0.5,0.5,0.5,2,3,0.8,3,493,0,1,NaN,0,0,0.6,NaN,-0.470741973003853,NaN,750,1,0,incongruent,0,4206.77948804737,1212.6937866665
9,104,2,165,0.5,0.5,0.5,1,4,0.6,4,536,0,1,NaN,0,0,0.6,NaN,-0.100324048823109,NaN,750,1,0,incongruent,0,5763.02066410854,11577.947165678
9,104,2,166,0.5,0.5,0,2,NaN,0.4,3,623,0,1,NaN,0,0,0.6,NaN,0.649126169868163,NaN,750,0,1,neutral,0,3932.27395078406,2300.01086917479
9,104,2,167,-0.5,-0.5,-0.5,4,4,0.4,4,454,1,1,454,0,0,0.4,1,-0.806702415865457,-0.806702415865457,750,1,0,congruent,0,1330.78839944585,3448.75468009828
9,104,2,168,0.5,-0.5,0.5,2,3,0.4,3,485,0,1,NaN,1,0,0.2,NaN,-0.53965693564213,NaN,750,1,0,incongruent,1,3214.87669168776,2201.18755748544
9,104,2,169,0.5,-0.5,-0.5,1,1,0.4,1,532,1,1,532,1,0,0.4,NaN,-0.134781530142248,-0.134781530142248,750,1,0,congruent,1,1463.75246766086,3011.99231948262
9,104,2,170,0.5,0.5,0.5,2,4,0.4,4,641,0,1,NaN,0,0,0.8,NaN,0.804184835804289,NaN,750,1,0,incongruent,0,3789.04107771639,5510.42005755546
9,104,2,171,-0.5,0.5,0,3,NaN,0.2,3,601,1,1,601,1,0,0.8,1,0.459610022612899,0.459610022612899,750,0,0,neutral,0.1,2324.17453223777,3056.83402886986
9,104,2,172,-0.5,0.5,-0.5,4,4,0.2,4,545,1,1,545,1,0,1,1,-0.0227947158550462,-0.0227947158550462,750,1,0,congruent,0.1,1694.39160942569,1802.74590893663
9,104,2,173,0.5,-0.5,0.5,3,2,0.4,2,509,0,1,NaN,0,0,1.2,NaN,-0.332912047727297,NaN,750,1,0,incongruent,0,1394.43046302816,2306.60892827186
9,104,2,174,-0.5,-0.5,0,1,NaN,0.4,2,574,0,1,NaN,0,0,0.8,0.8,0.227022023708711,NaN,750,0,1,neutral,0,3461.58512057043,2413.2773251707
9,104,2,175,-0.5,-0.5,0.5,4,3,0.4,3,837,0,0,NaN,0,0,0.4,0.6,2.4926014204421,NaN,750,1,0,incongruent,0,439.36495140264,3513.0872368751
9,104,2,176,0.5,-0.5,0.5,2,4,0.4,2,568,1,1,568,0,0,0.4,NaN,0.175335801730003,0.175335801730003,750,0,0,incongruent,0,2463.10449230224,2094.4519589089
9,104,2,177,0.5,0.5,0.5,1,3,0.4,3,483,0,1,NaN,0,0,0.2,NaN,-0.5568856763017,NaN,750,1,0,incongruent,0,2367.16874154054,2768.31246909755
9,104,2,178,-0.5,0.5,-0.5,4,4,0.4,4,411,1,1,411,1,0,0,1,-1.1771203400462,-1.1771203400462,750,1,0,congruent,0.1,972.005182210779,983.351091015607
9,104,2,179,0.5,-0.5,0,2,NaN,0.6,2,596,1,1,596,1,0,0.2,NaN,0.416538170963975,0.416538170963975,750,0,0,neutral,1,1840.53515949427,3275.53223692229
9,104,2,181,0.5,-0.5,-0.5,1,1,0.8,1,407,1,1,407,1,0,0.8,NaN,-1.21157782136534,-1.21157782136534,750,1,0,congruent,1,2664.86550624741,2129.68675275531
9,104,2,182,-0.5,0.5,0,3,NaN,0.8,3,743,1,1,743,1,0,1.2,1,1.68285060944233,1.68285060944233,750,0,0,neutral,0.1,4492.10845868171,1819.58093842082
9,104,2,183,0.5,0.5,0.5,4,2,0.8,2,592,0,1,NaN,0,0,1.4,NaN,0.382080689644836,NaN,750,1,0,incongruent,0,1680.85156803332,5471.00555070979
9,104,2,184,-0.5,0.5,0,1,NaN,0.6,1,552,1,1,552,1,0,1.2,1,0.037505876453447,0.037505876453447,750,0,0,neutral,0.1,3235.39551367672,1291.13604302858
9,104,2,185,-0.5,-0.5,-0.5,2,2,0.8,2,773,1,0,773,1,0,1,0.4,1.94128171933587,1.94128171933587,750,1,0,congruent,0.1,2126.20856564563,1075.50029320507
9,104,2,186,0.5,-0.5,-0.5,3,3,0.8,3,479,1,1,479,1,0,1,NaN,-0.591343157620839,-0.591343157620839,750,1,0,congruent,1,1959.22575566221,6618.00766770105
9,104,2,187,0.5,0.5,0.5,2,4,0.8,4,977,0,0,NaN,0,0,1,NaN,3.69861326661196,NaN,750,1,0,incongruent,0,2310.31551419406,2522.53001830126
9,104,2,188,-0.5,0.5,-0.5,3,3,0.6,3,604,1,1,604,1,0,0.8,1,0.485453133602253,0.485453133602253,750,1,0,congruent,0.1,4541.12565219602,8425.72856210735
9,104,2,189,0.5,0.5,0.5,1,4,0.6,4,493,0,1,NaN,0,0,1,NaN,-0.470741973003853,NaN,750,1,0,incongruent,0,4051.91653772921,5547.58544481431
9,104,2,190,-0.5,0.5,-0.5,3,3,0.4,3,484,1,1,484,1,0,0.8,1,-0.548271305971915,-0.548271305971915,750,1,0,congruent,0.1,3705.47863687409,3820.10628202688
9,104,2,191,-0.5,0.5,0,4,NaN,0.6,4,566,1,1,566,1,0,0.8,1,0.158107061070433,0.158107061070433,750,0,0,neutral,0.1,2407.2523190024,1773.0849418877
9,104,2,192,-0.5,-0.5,0.5,1,3,0.6,3,798,0,0,NaN,1,0,0.6,0.4,2.15664097758049,NaN,750,1,0,incongruent,0.1,2898.81528437529,3111.58242224156
9,104,2,193,0.5,0.5,-0.5,4,4,0.6,4,652,1,1,652,1,0,0.8,NaN,0.898942909431921,0.898942909431921,750,1,0,congruent,1,4912.101297652,5934.00648685389
9,104,2,194,-0.5,-0.5,0,3,NaN,0.8,3,534,1,1,534,1,0,1,0.4,-0.117552789482678,-0.117552789482678,750,0,0,neutral,0.1,9042.15419270762,3383.52150446111
9,104,2,195,0.5,0.5,-0.5,1,1,0.8,1,500,1,1,500,1,0,1.2,NaN,-0.410441380695359,-0.410441380695359,750,1,0,congruent,1,5325.94278520748,3346.8783875343
9,104,2,196,-0.5,-0.5,0,3,NaN,0.8,3,607,1,1,607,1,0,1.4,0.6,0.511296244591607,0.511296244591607,750,0,0,neutral,0.1,1568.64376898802,588.523627160116
9,104,2,197,0.5,-0.5,0.5,1,2,0.8,2,477,0,1,NaN,0,0,1.4,NaN,-0.608571898280408,NaN,750,1,0,incongruent,0,1671.20130113396,1394.92247136962
9,104,2,198,-0.5,-0.5,0,4,NaN,0.8,4,533,1,1,533,1,0,1.2,0.8,-0.126167159812463,-0.126167159812463,750,0,0,neutral,0.1,1130.55377549343,1511.43908277348
9,104,2,199,0.5,0.5,0.5,3,1,0.8,1,518,0,1,NaN,0,0,1,NaN,-0.255382714759234,NaN,750,1,0,incongruent,0,4778.79818010021,9658.97048595592
9,104,2,200,0.5,-0.5,0.5,1,2,0.8,2,487,0,1,NaN,1,0,0.8,NaN,-0.522428194982561,NaN,750,1,0,incongruent,1,4492.29016079743,1896.38620595614
9,104,2,201,-0.5,0.5,-0.5,3,3,0.8,3,726,1,1,726,1,0,0.8,1,1.53640631383599,1.53640631383599,750,1,0,congruent,0.1,1370.23860030776,3509.41724201684
9,104,2,203,0.5,-0.5,-0.5,3,3,0.8,3,539,1,1,539,1,0,1,NaN,-0.0744809378337546,-0.0744809378337546,750,1,0,congruent,1,2753.92066123496,2039.01333219316
9,104,2,204,-0.5,0.5,0,1,NaN,0.8,3,754,0,0,NaN,0,0,1.2,1,1.77760868306996,NaN,750,0,1,neutral,0,4481.43668742212,2473.41659354779
9,104,2,206,-0.5,0.5,0.5,1,3,0.6,3,589,0,1,NaN,0,0,1,0.8,0.356237578655482,NaN,750,1,0,incongruent,0,5327.20343600603,6298.55986632943
9,104,2,207,-0.5,0.5,0,4,NaN,0.4,4,500,1,1,500,1,0,0.8,0.6,-0.410441380695359,-0.410441380695359,750,0,0,neutral,0.1,1134.60297171903,3667.35108412387
9,104,2,208,0.5,0.5,-0.5,2,2,0.4,2,548,1,1,548,1,0,0.8,NaN,0.00304839513430803,0.00304839513430803,750,1,0,congruent,1,763.528096750396,4385.01367658101
9,104,2,209,-0.5,0.5,0.5,4,3,0.6,3,615,0,1,NaN,0,0,0.8,0.6,0.580211207229885,NaN,750,1,0,incongruent,0,3493.62316705224,1676.30401855416
9,104,2,210,0.5,-0.5,-0.5,1,1,0.4,1,467,1,1,467,0,0,0.8,NaN,-0.694715601578256,-0.694715601578256,750,1,0,congruent,0,765.935705014741,1214.2230910364
9,104,2,211,-0.5,-0.5,0.5,2,3,0.4,3,496,0,1,NaN,1,0,0.6,1,-0.444898862014498,NaN,750,1,0,incongruent,0.1,3091.966090284,3825.52890959879
9,104,2,212,-0.5,0.5,-0.5,1,1,0.4,1,361,1,1,361,1,0,0.8,0.4,-1.60783885653544,-1.60783885653544,750,1,0,congruent,0.1,600.324652639088,4382.56980075908
9,104,2,213,-0.5,0.5,0.5,3,2,0.6,3,422,1,1,422,1,0,0.8,0.4,-1.08236226641857,-1.08236226641857,750,0,0,incongruent,0.1,6155.57900905867,3128.91921468109
9,104,2,214,-0.5,-0.5,0,1,NaN,0.8,1,583,1,1,583,0,0,0.6,1,0.304551356676774,0.304551356676774,750,0,0,neutral,0,3169.3034673109,7137.1724544893
9,104,2,215,0.5,-0.5,-0.5,4,4,0.8,4,443,1,1,443,1,0,0.6,NaN,-0.901460489493089,-0.901460489493089,750,1,0,congruent,1,3845.49352712817,2607.74710924939
9,104,2,216,0.5,0.5,0,1,NaN,0.8,1,653,1,1,653,1,0,1,NaN,0.907557279761705,0.907557279761705,750,0,0,neutral,1,2837.02891332489,829.362849240354
9,104,2,217,0.5,-0.5,-0.5,4,4,0.8,4,498,1,1,498,1,0,1.2,NaN,-0.427670121354929,-0.427670121354929,750,1,0,congruent,1,4802.81032485942,1815.30452000495
9,104,2,218,-0.5,0.5,0.5,1,3,0.8,3,578,0,1,NaN,0,0,1.4,0.6,0.26147950502785,NaN,750,1,0,incongruent,0,2545.33994708859,2839.54256411166
9,104,2,219,0.5,-0.5,0,3,NaN,0.6,3,603,1,1,603,0,0,1.2,NaN,0.476838763272469,0.476838763272469,750,0,0,neutral,0,769.8188451971,2833.20973441053
9,104,2,220,-0.5,-0.5,-0.5,1,1,0.6,1,493,1,1,493,0,0,1.2,0.8,-0.470741973003853,-0.470741973003853,750,1,0,congruent,0,3165.85288409018,5562.84512428688
9,104,2,221,0.5,0.5,0.5,2,4,0.6,2,393,1,1,393,1,0,0.8,NaN,-1.33217900598233,-1.33217900598233,750,0,0,incongruent,1,22087.6281920783,1446.51276732922
9,104,2,222,-0.5,-0.5,-0.5,3,3,0.8,3,534,1,1,534,0,0,0.8,0.6,-0.117552789482678,-0.117552789482678,750,1,0,congruent,0,3295.97409805251,5832.17355556925
9,104,2,223,-0.5,0.5,0.5,1,4,0.8,4,456,0,1,NaN,0,0,0.4,0.6,-0.789473675205888,NaN,750,1,0,incongruent,0,2176.73828144472,9233.93731170474
9,104,2,224,-0.5,0.5,0.5,4,1,0.6,1,578,0,1,NaN,0,0,0.4,0.4,0.26147950502785,NaN,750,1,0,incongruent,0,2708.4001375887,3334.81469074366
9,104,2,225,-0.5,0.5,-0.5,2,2,0.4,2,959,1,0,959,0,0,0.4,0.4,3.54355460067584,3.54355460067584,750,1,0,congruent,0,2018.26159840721,5972.18103970484
9,104,2,226,0.5,0.5,0.5,3,1,0.2,1,565,0,1,NaN,0,0,0.4,NaN,0.149492690740649,NaN,750,1,0,incongruent,0,3209.62906479042,4160.48501804208
9,104,2,227,0.5,-0.5,0,2,NaN,0.2,2,704,1,1,704,0,0,0,NaN,1.34689016658073,1.34689016658073,750,0,0,neutral,0,8197.11257412887,1623.99648996761
9,104,2,228,0.5,-0.5,-0.5,4,4,0.2,4,460,1,1,460,0,0,0,NaN,-0.755016193886749,-0.755016193886749,750,1,0,congruent,0,2955.52716191172,7423.9555297529
9,104,2,229,-0.5,-0.5,0,3,NaN,0.2,2,578,0,1,NaN,0,0,0,0.4,0.26147950502785,NaN,750,0,1,neutral,0,7956.63064709964,6220.2321432874
9,104,2,230,0.5,0.5,-0.5,2,2,0.2,1,692,0,1,NaN,0,0,0,NaN,1.24351772262331,NaN,750,0,1,congruent,0,1999.76196408405,2852.34928008227
9,104,2,231,0.5,0.5,-0.5,4,4,0,4,570,1,1,570,1,0,0,NaN,0.192564542389572,0.192564542389572,750,1,0,congruent,1,2267.66884568642,3685.42132719381
9,104,2,232,0.5,0.5,0.5,3,2,0.2,2,648,0,1,NaN,0,0,0.4,NaN,0.864485428112782,NaN,750,1,0,incongruent,0,3226.55852797319,3123.68109031856
9,104,2,233,-0.5,0.5,0.5,2,4,0.2,4,681,0,1,NaN,0,0,0.4,0.2,1.14875964899568,NaN,750,1,0,incongruent,0,3713.58706636099,4541.90813981786
9,104,2,234,0.5,0.5,-0.5,1,1,0.2,1,533,1,1,533,1,0,0.4,NaN,-0.126167159812463,-0.126167159812463,750,1,0,congruent,1,3570.32882327924,4365.33554193201
9,104,2,235,0.5,0.5,0,3,NaN,0.4,3,617,1,1,617,1,0,0.8,NaN,0.597439947889455,0.597439947889455,750,0,0,neutral,1,2879.98760376362,2756.47992159111
9,104,2,236,0.5,0.5,0.5,4,3,0.6,4,408,1,1,408,1,0,1.2,NaN,-1.20296345103556,-1.20296345103556,750,0,0,incongruent,1,4440.29532734292,907.320100494471
9,104,2,237,-0.5,-0.5,0,3,NaN,0.6,3,508,1,1,508,1,0,1.2,0.2,-0.341526418057081,-0.341526418057081,750,0,0,neutral,0.1,1766.65543175263,1514.68783302569
9,104,2,238,-0.5,0.5,0.5,1,4,0.6,1,892,1,0,892,0,0,1.4,0,2.96639178858026,2.96639178858026,750,0,0,incongruent,0,2544.0006667556,7656.25904333857
9,104,2,239,0.5,-0.5,-0.5,3,3,0.6,3,753,1,0,753,1,0,1.4,NaN,1.76899431274018,1.76899431274018,750,1,0,congruent,1,3090.27359745398,5139.78987735669
9,104,2,240,-0.5,-0.5,-0.5,4,4,0.6,4,565,1,1,565,1,0,1.4,0.2,0.149492690740649,0.149492690740649,750,1,0,congruent,0.1,3262.2233787946,3243.67360204972
9,104,2,241,-0.5,0.5,0,3,NaN,0.6,3,852,1,0,852,0,0,1.2,0,2.62181697538887,2.62181697538887,750,0,0,neutral,0,3111.70331956592,3161.74651176119
9,104,2,242,-0.5,-0.5,-0.5,1,1,0.6,1,736,1,1,736,0,0,0.8,0.4,1.62255001713384,1.62255001713384,750,1,0,congruent,0,2234.33272933762,883.915740306611
9,104,2,243,-0.5,-0.5,-0.5,2,2,0.6,2,520,1,1,520,1,0,0.6,0.4,-0.238153974099665,-0.238153974099665,750,1,0,congruent,0.1,1418.46184334331,1098.75814786549
9,104,2,245,-0.5,-0.5,-0.5,1,1,0.6,1,342,1,1,342,0,0,0.6,0.8,-1.77151189280135,-1.77151189280135,750,1,0,congruent,0,656.331317981283,1425.4265056764
9,104,2,246,0.5,-0.5,0.5,4,2,0.6,2,548,0,1,NaN,1,0,0.4,NaN,0.00304839513430803,NaN,750,1,0,incongruent,1,2718.67260775933,595.114610250258
9,104,2,247,0.5,0.5,0,1,NaN,0.6,1,686,1,1,686,1,0,0.8,NaN,1.1918315006446,1.1918315006446,750,0,0,neutral,1,4088.52588490897,4569.80241709913
9,104,2,248,-0.5,-0.5,-0.5,3,3,0.6,3,727,1,1,727,1,0,1.2,0.6,1.54502068416578,1.54502068416578,750,1,0,congruent,0.1,1224.9460210381,3577.95949829884
9,104,2,249,-0.5,0.5,0,1,NaN,0.6,2,582,0,1,NaN,0,0,1.2,0,0.295936986346989,NaN,750,0,1,neutral,0,5147.94867070544,1286.37812339459
9,104,2,250,0.5,0.5,0.5,3,1,0.4,1,495,0,1,NaN,0,0,1,NaN,-0.453513232344283,NaN,750,1,0,incongruent,0,1794.72004414888,2678.28763115097
9,104,2,251,-0.5,-0.5,0,1,NaN,0.2,3,518,0,1,NaN,0,0,1,0.6,-0.255382714759234,NaN,750,0,1,neutral,0,6274.59669245178,2294.85196146149
9,104,2,252,0.5,-0.5,0.5,4,2,0.2,2,692,0,1,NaN,0,0,0.6,NaN,1.24351772262331,NaN,750,1,0,incongruent,0,2617.6943366964,1905.15980442837
9,104,2,253,-0.5,0.5,0.5,2,1,0.2,1,568,0,1,NaN,0,0,0.2,0,0.175335801730003,NaN,750,1,0,incongruent,0,7749.29130105233,1571.6282550969
9,104,2,254,-0.5,0.5,0,3,NaN,0.2,3,557,1,1,557,1,0,0,0,0.0805777281023707,0.0805777281023707,750,0,0,neutral,0.1,719.354598000325,1878.51476121819
9,104,2,255,0.5,-0.5,0.5,1,2,0.4,2,769,0,0,NaN,0,0,0.2,NaN,1.90682423801674,NaN,750,1,0,incongruent,0,4626.00915188452,2027.50477747506
9,104,2,256,0.5,0.5,-0.5,3,3,0.4,3,514,1,1,514,1,0,0.2,NaN,-0.289840196078373,-0.289840196078373,750,1,0,congruent,1,3859.19821724636,1571.53809533361
9,104,2,257,-0.5,-0.5,-0.5,4,4,0.4,4,381,1,1,381,0,0,0.6,0.6,-1.43555144993974,-1.43555144993974,750,1,0,congruent,0,3274.24138440202,4656.27571719077
9,104,2,258,-0.5,-0.5,-0.5,3,3,0.4,3,464,1,1,464,0,0,0.6,0.4,-0.72055871256761,-0.72055871256761,750,1,0,congruent,0,4498.21010917405,5263.79589929997
9,104,2,259,0.5,0.5,-0.5,4,4,0.4,4,552,1,1,552,1,0,0.6,NaN,0.037505876453447,0.037505876453447,750,1,0,congruent,1,1470.76423327114,1486.96827224136
9,104,2,260,0.5,0.5,0.5,1,3,0.6,2,644,0,1,NaN,0,0,0.8,NaN,0.830027946793643,NaN,750,0,1,incongruent,0,12511.4929157215,1555.25459996928
9,104,2,261,-0.5,0.5,0.5,4,2,0.6,2,492,0,1,NaN,0,0,0.8,0.2,-0.479356343333637,NaN,750,1,0,incongruent,0,2840.22886768505,2897.98898499259
9,104,2,262,-0.5,0.5,0.5,3,1,0.6,1,378,0,1,NaN,0,0,0.4,0.2,-1.4613945609291,NaN,750,1,0,incongruent,0,1023.83808399844,4440.12135828448
9,104,2,263,0.5,-0.5,0,2,NaN,0.4,2,667,1,1,667,1,0,0.4,NaN,1.02815846437869,1.02815846437869,750,0,0,neutral,1,2991.03892835263,1571.66779379208
9,104,2,264,0.5,0.5,0.5,4,1,0.4,4,568,1,1,568,1,0,0.8,NaN,0.175335801730003,0.175335801730003,750,0,0,incongruent,1,3497.57527306729,560.515820448582
9,104,2,265,-0.5,-0.5,0,2,NaN,0.4,2,575,1,1,575,0,0,0.8,0.2,0.235636394038496,0.235636394038496,750,0,0,neutral,0,9841.86184028841,2419.41636560991
9,104,2,266,0.5,-0.5,-0.5,4,4,0.4,4,510,1,1,510,0,0,0.8,NaN,-0.324297677397512,-0.324297677397512,750,1,0,congruent,0,1480.03473217484,901.59276881196
9,104,2,267,-0.5,0.5,0.5,1,3,0.4,3,612,0,1,NaN,0,0,0.8,0.2,0.554368096240531,NaN,750,1,0,incongruent,0,6988.90838751926,1098.68800578522
9,104,2,268,-0.5,-0.5,0.5,3,1,0.2,1,704,0,1,NaN,1,0,0.8,0.2,1.34689016658073,NaN,750,1,0,incongruent,0.1,2263.22265755578,3204.62614738874
9,104,2,269,-0.5,-0.5,0.5,4,2,0.2,2,495,0,1,NaN,0,0,0.6,0.2,-0.453513232344283,NaN,750,1,0,incongruent,0,6666.513871314,3710.91728092847
9,104,2,270,-0.5,-0.5,0.5,3,1,0.2,1,594,0,1,NaN,0,0,0.2,0.2,0.399309430304406,NaN,750,1,0,incongruent,0,2223.22511187236,2369.177701972
9,104,2,271,-0.5,0.5,-0.5,2,2,0.2,2,724,1,1,724,1,0,0.2,0.2,1.51917757317642,1.51917757317642,750,1,0,congruent,0.1,1606.75828953916,3404.77939065601
9,104,2,272,-0.5,-0.5,-0.5,1,1,0.4,3,766,0,0,NaN,0,0,0.4,0.2,1.88098112702738,NaN,750,0,1,congruent,0,1080.6191661442,2879.65576538723
9,104,2,273,-0.5,0.5,-0.5,2,2,0.4,2,621,1,1,621,1,0,0.4,0.4,0.631897429208594,0.631897429208594,750,1,0,congruent,0.1,6054.66312201275,992.113678406646
9,104,2,274,-0.5,-0.5,-0.5,1,1,0.6,1,570,1,1,570,1,0,0.4,0.2,0.192564542389572,0.192564542389572,750,1,0,congruent,0.1,4865.66092093967,2839.04926231964
9,104,2,275,0.5,0.5,-0.5,2,2,0.6,2,565,1,1,565,1,0,0.6,NaN,0.149492690740649,0.149492690740649,750,1,0,congruent,1,8026.86595671126,2497.22549725083
9,104,2,276,0.5,-0.5,0.5,3,1,0.8,1,581,0,1,NaN,1,0,1,NaN,0.287322616017204,NaN,750,1,0,incongruent,1,1704.30378390347,3917.56933586662
9,104,2,277,-0.5,0.5,0,4,NaN,0.8,4,727,1,1,727,1,0,1.2,0.4,1.54502068416578,1.54502068416578,750,0,0,neutral,0.1,4085.40506244196,3709.08096002968
9,104,2,278,0.5,-0.5,-0.5,1,1,0.8,1,660,1,1,660,1,0,1.4,NaN,0.967857872070199,0.967857872070199,750,1,0,congruent,1,1115.11365962341,2339.36986212748
9,104,2,279,-0.5,-0.5,-0.5,2,2,0.8,2,543,1,1,543,1,0,1.6,0.4,-0.0400234565146157,-0.0400234565146157,750,1,0,congruent,0.1,1923.90587294987,1219.75953685379
9,104,2,280,-0.5,0.5,0,3,NaN,0.8,3,657,1,1,657,1,0,1.6,0.6,0.942014761080844,0.942014761080844,750,0,0,neutral,0.1,2405.37594411486,4236.20049329153
9,104,2,281,0.5,0.5,-0.5,2,2,1,2,506,1,1,506,1,0,1.4,NaN,-0.358755158716651,-0.358755158716651,750,1,0,congruent,1,243.477854729601,3682.03709513669
9,104,2,282,0.5,-0.5,-0.5,3,3,1,3,528,1,1,528,1,0,1.4,NaN,-0.169239011461387,-0.169239011461387,750,1,0,congruent,1,1331.55404976787,4668.02668712244
9,104,2,283,0.5,-0.5,0,1,NaN,1,1,621,1,1,621,1,0,1.6,NaN,0.631897429208594,0.631897429208594,750,0,0,neutral,1,5417.20055728025,4270.23834000003
9,104,2,284,-0.5,-0.5,0.5,3,2,1,2,556,0,1,NaN,1,0,1.6,0.4,0.0719633577725859,NaN,750,1,0,incongruent,0.1,1637.06482847512,795.353427811198
9,104,2,285,-0.5,0.5,0,1,NaN,1,1,586,1,1,586,1,0,1.6,0.8,0.330394467666128,0.330394467666128,750,0,0,neutral,0.1,5678.98966913862,3452.23218442906
9,104,2,286,-0.5,-0.5,-0.5,4,4,1,4,636,1,1,636,1,0,1.6,0.6,0.761112984155365,0.761112984155365,750,1,0,congruent,0.1,2478.13184739322,4920.39361452047
9,104,2,287,0.5,0.5,0.5,1,3,1,3,535,0,1,NaN,0,0,1.4,NaN,-0.108938419152894,NaN,750,1,0,incongruent,0,4453.21719666606,1146.93876215143
9,104,2,288,0.5,-0.5,0.5,3,4,0.8,4,485,0,1,NaN,1,0,1,NaN,-0.53965693564213,NaN,750,1,0,incongruent,1,3156.89737853661,1659.34793669426
9,104,2,289,0.5,0.5,-0.5,1,1,0.8,1,524,1,1,524,1,0,1,NaN,-0.203696492780526,-0.203696492780526,750,1,0,congruent,1,7133.10101322768,1634.48650654133
9,104,2,290,-0.5,0.5,-0.5,3,3,0.8,3,625,1,1,625,1,0,1.2,1,0.666354910527733,0.666354910527733,750,1,0,congruent,0.1,3052.4596618902,2480.63786875825
9,104,2,291,0.5,0.5,0.5,4,1,0.8,1,486,0,1,NaN,0,0,1.2,NaN,-0.531042565312346,NaN,750,1,0,incongruent,0,1166.48626145956,2949.39077238374
9,104,2,292,-0.5,0.5,-0.5,2,2,0.6,2,469,1,1,469,1,0,1,1,-0.677486860918686,-0.677486860918686,750,1,0,congruent,0.1,3202.40116811283,1686.80898504349
9,104,2,293,-0.5,0.5,-0.5,3,3,0.6,3,503,1,1,503,1,0,1.2,1,-0.384598269706005,-0.384598269706005,750,1,0,congruent,0.1,6342.87248674169,3103.25925377743
9,104,2,294,0.5,-0.5,0.5,2,4,0.8,4,526,0,1,NaN,0,0,1,NaN,-0.186467752120956,NaN,750,1,0,incongruent,0,1766.45825752716,2992.39810670638
9,104,2,295,0.5,-0.5,0.5,1,2,0.8,2,696,0,1,NaN,1,0,0.6,NaN,1.27797520394245,NaN,750,1,0,incongruent,1,2455.50069874403,6808.67812903749
9,104,2,296,-0.5,-0.5,0,4,NaN,0.8,4,565,1,1,565,1,0,0.8,0.8,0.149492690740649,0.149492690740649,750,0,0,neutral,0.1,4780.56255953853,4953.19053536738
9,104,2,297,-0.5,-0.5,-0.5,1,1,0.8,1,442,1,1,442,0,0,1,1,-0.910074859822874,-0.910074859822874,750,1,0,congruent,0,6086.86234295541,9679.24428164785
9,104,2,298,-0.5,0.5,0.5,3,4,0.8,4,490,0,1,NaN,0,0,0.8,1,-0.496585083993207,NaN,750,1,0,incongruent,0,6035.53956573862,1028.48344562986
9,104,2,299,-0.5,-0.5,-0.5,2,2,0.6,1,438,0,1,NaN,0,0,0.6,0.8,-0.944532341142013,NaN,750,0,1,congruent,0,17004.6952689643,1993.78960646019
9,104,2,300,0.5,0.5,0.5,3,1,0.6,1,554,0,1,NaN,0,0,0.6,NaN,0.0547346171130164,NaN,750,1,0,incongruent,0,3263.35994474433,3937.05815019138
9,104,3,302,0.5,-0.5,-0.5,1,1,0.4,1,496,1,1,496,1,0,0,NaN,-0.444898862014498,-0.444898862014498,750,1,0,congruent,1,652.203467091347,1571.49068395481
9,104,3,303,0.5,0.5,-0.5,3,3,0.4,4,347,0,1,NaN,0,0,0.4,NaN,-1.72844004115242,NaN,750,0,1,congruent,0,2907.09271929537,1484.44064540031
9,104,3,304,-0.5,-0.5,-0.5,1,1,0.2,1,556,1,1,556,0,0,0.4,0.6,0.0719633577725859,0.0719633577725859,750,1,0,congruent,0,2038.28989673038,2290.10973105167
9,104,3,306,0.5,0.5,-0.5,2,2,0,2,622,1,1,622,1,0,0.4,NaN,0.640511799538379,0.640511799538379,750,1,0,congruent,1,2230.64578257819,988.329681437052
9,104,3,307,0.5,0.5,-0.5,3,3,0.2,4,352,0,1,NaN,0,0,0.8,NaN,-1.6853681895035,NaN,750,0,1,congruent,0,533.659542142399,5556.30954926423
9,104,3,308,0.5,0.5,0.5,4,1,0.2,1,713,0,1,NaN,0,0,0.4,NaN,1.42441949954879,NaN,750,1,0,incongruent,0,4260.60459659993,1274.11326286788
9,104,3,309,-0.5,0.5,0.5,2,3,0.2,4,567,0,1,NaN,0,0,0.4,0.6,0.166721431400218,NaN,750,0,1,incongruent,0,3310.05254387771,2480.91547349788
9,104,3,311,0.5,0.5,-0.5,1,1,0.2,1,645,1,1,645,1,0,0.4,NaN,0.838642317123428,0.838642317123428,750,1,0,congruent,1,1556.39285214549,1839.28273231398
9,104,3,313,-0.5,-0.5,0,3,NaN,0.2,4,395,0,1,NaN,0,0,0.4,0.4,-1.31495026532276,NaN,750,0,1,neutral,0,3924.46365531081,874.373194439403
9,104,3,314,0.5,-0.5,-0.5,1,1,0.2,1,448,1,1,448,1,0,0.4,NaN,-0.858388637844166,-0.858388637844166,750,1,0,congruent,1,1772.69978623311,1522.72715718836
9,104,3,315,-0.5,-0.5,-0.5,4,4,0.2,4,541,1,1,541,0,0,0.8,0.2,-0.0572521971741851,-0.0572521971741851,750,1,0,congruent,0,2989.83432747623,2729.00393398753
9,104,3,316,-0.5,0.5,0.5,1,3,0.2,4,631,0,1,NaN,0,0,0.8,0.4,0.718041132506441,NaN,750,0,1,incongruent,0,3883.41189831406,10487.9852029792
9,104,3,318,0.5,0.5,-0.5,2,2,0.2,2,331,1,1,331,1,0,0.4,NaN,-1.86626996642898,-1.86626996642898,750,1,0,congruent,1,2635.81611023915,2771.84808619126
9,104,3,320,0.5,0.5,0.5,2,3,0.4,1,772,0,0,NaN,0,0,0.4,NaN,1.93266734900609,NaN,750,0,1,incongruent,0,3405.9407684347,2491.27530373842
9,104,3,322,0.5,0.5,0,3,NaN,0.2,4,335,0,1,NaN,0,0,0.4,NaN,-1.83181248510984,NaN,750,0,1,neutral,0,1563.41826543378,3178.8620908581
9,104,3,323,0.5,-0.5,-0.5,2,2,0.2,2,328,1,1,328,0,0,0.4,NaN,-1.89211307741833,-1.89211307741833,750,1,0,congruent,0,2734.38868006477,1440.50653998984
9,104,3,324,0.5,-0.5,0.5,3,4,0.2,4,914,0,0,NaN,0,0,0,NaN,3.15590793583552,NaN,750,1,0,incongruent,0,579.78038395238,770.230071308439
9,104,3,325,0.5,-0.5,-0.5,1,1,0.2,1,487,1,1,487,1,0,0,NaN,-0.522428194982561,-0.522428194982561,750,1,0,congruent,1,4492.29603058944,5291.84573587633
9,104,3,326,-0.5,0.5,0.5,2,3,0.2,4,576,0,1,NaN,0,0,0.4,0.2,0.244250764368281,NaN,750,0,1,incongruent,0,6335.98184587599,4204.61737428405
9,104,3,329,-0.5,0.5,-0.5,3,3,0,4,519,0,1,NaN,0,0,0.4,0,-0.246768344429449,NaN,750,0,1,congruent,0,3003.76066389996,2494.06780967527
9,104,3,330,-0.5,-0.5,-0.5,2,2,0,2,329,1,1,329,0,0,0.4,0,-1.88349870708855,-1.88349870708855,750,1,0,congruent,0,4467.2949280103,860.175813640016
9,104,3,332,-0.5,0.5,-0.5,2,2,0,2,558,1,1,558,1,0,0,0,0.0891920984321554,0.0891920984321554,750,1,0,congruent,0.1,4128.47663472863,1790.65989732077
9,104,3,333,0.5,0.5,0.5,1,3,0.2,4,540,0,1,NaN,0,0,0.2,NaN,-0.0658665675039699,NaN,750,0,1,incongruent,0,16798.7600217942,2158.83199323307
9,104,3,335,-0.5,-0.5,-0.5,2,2,0.2,2,535,1,1,535,1,0,0.2,0,-0.108938419152894,-0.108938419152894,750,1,0,congruent,0.1,2719.35346379885,2330.82367671769
9,104,3,337,0.5,0.5,0.5,2,1,0.2,1,475,0,1,NaN,0,0,0.4,NaN,-0.625800638939978,NaN,750,1,0,incongruent,0,6830.20620093614,3359.19363270296
9,104,3,339,0.5,0.5,-0.5,2,2,0.2,2,602,1,1,602,1,0,0.2,NaN,0.468224392942684,0.468224392942684,750,1,0,congruent,1,2825.58199125849,1782.22952662866
9,104,3,341,-0.5,0.5,-0.5,2,2,0.2,2,517,1,1,517,1,0,0.4,0.2,-0.263997085089019,-0.263997085089019,750,1,0,congruent,0.1,2515.43121576134,2031.2496137683
9,104,3,343,0.5,0.5,-0.5,2,2,0.4,2,519,1,1,519,1,0,0.6,NaN,-0.246768344429449,-0.246768344429449,750,1,0,congruent,1,1263.36707554083,3594.29847507309
9,104,3,344,0.5,-0.5,-0.5,1,1,0.6,1,391,1,1,391,0,0,1,NaN,-1.3494077466419,-1.3494077466419,750,1,0,congruent,0,5361.75036358541,2572.33616603125
9,104,3,346,0.5,0.5,-0.5,2,2,0.6,2,467,1,1,467,1,0,1,NaN,-0.694715601578256,-0.694715601578256,750,1,0,congruent,1,4320.57094357291,2773.90257167869
9,104,3,347,0.5,-0.5,0.5,3,1,0.8,1,602,0,1,NaN,1,0,1.2,NaN,0.468224392942684,NaN,750,1,0,incongruent,1,1256.78758082591,9909.94397854746
9,104,3,348,-0.5,0.5,-0.5,2,2,0.8,2,485,1,1,485,1,0,1.6,0.4,-0.53965693564213,-0.53965693564213,750,1,0,congruent,0.1,3482.74590017669,2902.45454055477
9,104,3,349,-0.5,0.5,-0.5,1,1,0.8,2,610,0,1,NaN,0,0,1.4,0.6,0.537139355580962,NaN,750,0,1,congruent,0,5916.26834884043,3739.78299172933
9,104,3,351,-0.5,-0.5,0,1,NaN,0.6,4,533,0,1,NaN,0,0,1.4,0.2,-0.126167159812463,NaN,750,0,1,neutral,0,8350.6311895193,2255.61607923196
9,104,3,353,-0.5,-0.5,-0.5,1,1,0.6,1,524,1,1,524,0,0,0.6,0.2,-0.203696492780526,-0.203696492780526,750,1,0,congruent,0,2853.6632611858,4056.99307566044
9,104,3,355,0.5,0.5,0.5,3,1,0.4,4,717,0,1,NaN,0,0,0.4,NaN,1.45887698086793,NaN,750,0,1,incongruent,0,2069.36759571667,2695.60042665836
9,104,3,356,-0.5,-0.5,0,1,NaN,0.2,4,507,0,1,NaN,0,0,0,0.2,-0.350140788386866,NaN,750,0,1,neutral,0,6199.87789131379,3106.92549319146
9,104,3,357,-0.5,-0.5,-0.5,2,2,0.2,2,365,1,1,365,1,0,0,0.2,-1.5733813752163,-1.5733813752163,750,1,0,congruent,0.1,1978.64548489889,436.442912487379
9,104,3,358,0.5,0.5,0.5,3,1,0.2,1,622,0,1,NaN,0,0,0.2,NaN,0.640511799538379,NaN,750,1,0,incongruent,0,6818.02896602652,2991.48144416769
9,104,3,360,-0.5,0.5,0,1,NaN,0,2,641,0,1,NaN,0,0,0.2,0.6,0.804184835804289,NaN,750,0,1,neutral,0,2683.92508778609,1287.6407590605
9,104,3,361,0.5,-0.5,-0.5,3,3,0,4,676,0,1,NaN,0,0,0.2,NaN,1.10568779734675,NaN,750,0,1,congruent,0,1976.87022092748,2778.84384788306
9,104,3,362,0.5,0.5,-0.5,1,1,0,1,538,1,1,538,1,0,0.2,NaN,-0.0830953081635393,-0.0830953081635393,750,1,0,congruent,1,1531.42852943046,6520.15626810029
9,104,3,363,-0.5,-0.5,-0.5,2,2,0.2,2,348,1,1,348,0,0,0.4,0.4,-1.71982567082264,-1.71982567082264,750,1,0,congruent,0,757.89319328583,3566.54461524031
9,104,3,364,0.5,-0.5,-0.5,3,3,0.2,4,531,0,1,NaN,0,0,0.4,NaN,-0.143395900472033,NaN,750,0,1,congruent,0,2450.64183987914,3296.76997799448
9,104,3,365,-0.5,-0.5,0.5,1,2,0.2,2,576,0,1,NaN,0,0,0.4,0.2,0.244250764368281,NaN,750,1,0,incongruent,0,1588.18448222919,6126.24082863424
9,104,3,367,-0.5,-0.5,-0.5,2,2,0.2,2,607,1,1,607,0,0,0.6,0.4,0.511296244591607,0.511296244591607,750,1,0,congruent,0,7282.31474792972,1122.64112798887
9,104,3,368,0.5,0.5,-0.5,3,3,0.2,4,565,0,1,NaN,0,0,0.2,NaN,0.149492690740649,NaN,750,0,1,congruent,0,1562.92761014674,2330.92818179624
9,104,3,369,0.5,0.5,-0.5,2,2,0.2,2,508,1,1,508,1,0,0.2,NaN,-0.341526418057081,-0.341526418057081,750,1,0,congruent,1,5787.5909337681,1610.36175472111
9,104,3,371,0.5,-0.5,-0.5,2,2,0.4,2,589,1,1,589,0,0,0.8,NaN,0.356237578655482,0.356237578655482,750,1,0,congruent,0,1628.22869481882,2795.25845318882
9,104,3,372,0.5,0.5,-0.5,1,1,0.4,1,311,1,1,311,1,0,0.6,NaN,-2.03855737302467,-2.03855737302467,750,1,0,congruent,1,5590.24289809328,4860.19925411008
9,104,3,373,-0.5,-0.5,-0.5,2,2,0.6,2,529,1,1,529,1,0,1,0.4,-0.160624641131602,-0.160624641131602,750,1,0,congruent,0.1,1680.50014270226,2983.72106548137
9,104,3,375,-0.5,-0.5,-0.5,3,3,0.6,4,438,0,1,NaN,0,0,1,0.8,-0.944532341142013,NaN,750,0,1,congruent,0,2469.75784876973,2466.50503748996
9,104,3,377,-0.5,-0.5,-0.5,2,2,0.6,2,451,1,1,451,1,0,0.8,0.6,-0.832545526854812,-0.832545526854812,750,1,0,congruent,0.1,5056.48486473358,1598.55692602171
9,104,3,378,0.5,-0.5,0,3,NaN,0.6,4,373,0,1,NaN,0,0,0.6,NaN,-1.50446641257802,NaN,750,0,1,neutral,0,1772.02194389224,1274.14840484037
9,104,3,379,-0.5,-0.5,-0.5,2,2,0.6,2,438,1,1,438,1,0,0.4,0.6,-0.944532341142013,-0.944532341142013,750,1,0,congruent,0.1,2816.17397386974,3165.94228468892
9,104,3,380,0.5,-0.5,0,1,NaN,0.6,1,598,1,1,598,1,0,0.4,NaN,0.433766911623545,0.433766911623545,750,0,0,neutral,1,4905.02713583548,4358.6916991223
9,104,3,382,-0.5,0.5,0.5,2,1,0.6,2,360,1,1,360,1,0,0.8,0.2,-1.61645322686522,-1.61645322686522,750,0,0,incongruent,0.1,23898.6209123213,3121.59345227438
9,104,3,383,-0.5,0.5,0,3,NaN,0.6,4,317,0,1,NaN,0,0,0.8,0.2,-1.98687115104597,NaN,750,0,1,neutral,0,7322.104581287,1973.41644355349
9,104,3,385,-0.5,-0.5,0,1,NaN,0.6,1,552,1,1,552,1,0,1,0.6,0.037505876453447,0.037505876453447,750,0,0,neutral,0.1,2714.49260399851,2541.01228894072
9,104,3,387,0.5,0.5,0,2,NaN,0.4,2,542,1,1,542,1,0,0.8,NaN,-0.0486378268444004,-0.0486378268444004,750,0,0,neutral,1,4077.96499254304,1947.05098164442
9,104,3,388,0.5,0.5,-0.5,3,3,0.4,4,288,0,1,NaN,0,0,1,NaN,-2.23668789060972,NaN,750,0,1,congruent,0,3549.30375488394,3964.38940547719
9,104,3,389,0.5,-0.5,-0.5,2,2,0.4,2,608,1,1,608,1,0,1,NaN,0.519910614921392,0.519910614921392,750,1,0,congruent,1,5999.87548486756,763.775657478194
9,104,3,390,-0.5,0.5,0,3,NaN,0.4,4,508,0,1,NaN,0,0,1,0.2,-0.341526418057081,NaN,750,0,1,neutral,0,10105.3357122084,1607.43108692058
9,104,3,392,-0.5,-0.5,-0.5,3,3,0.2,4,425,0,1,NaN,0,0,0.8,0.6,-1.05651915542921,NaN,750,0,1,congruent,0,3530.67340916425,1962.09564184142
9,104,3,393,-0.5,-0.5,-0.5,2,2,0.2,2,429,1,1,429,0,0,0.4,0.6,-1.02206167411008,-1.02206167411008,750,1,0,congruent,0,2766.43376936099,2208.02041017935
9,104,3,394,-0.5,0.5,0.5,1,4,0.2,1,530,1,1,530,1,0,0.4,0.2,-0.152010270801817,-0.152010270801817,750,0,0,incongruent,0.1,5373.76484165817,1503.29016326446
9,104,3,396,-0.5,-0.5,-0.5,1,1,0.2,1,541,1,1,541,0,0,0.2,0.6,-0.0572521971741851,-0.0572521971741851,750,1,0,congruent,0,824.884727601416,2712.50395165298
9,104,3,398,0.5,0.5,-0.5,3,3,0.2,3,681,1,1,681,1,0,0.4,NaN,1.14875964899568,1.14875964899568,750,1,0,congruent,1,3223.30646955012,3930.53886230701
9,104,3,399,0.5,-0.5,-0.5,2,2,0.4,2,509,1,1,509,1,0,0.8,NaN,-0.332912047727297,-0.332912047727297,750,1,0,congruent,1,6270.14621432015,1330.05851327787
9,104,3,400,0.5,-0.5,-0.5,3,3,0.4,3,505,1,1,505,1,0,1,NaN,-0.367369529046436,-0.367369529046436,750,1,0,congruent,1,2327.82690556126,1723.19095713559
9,104,3,401,0.5,-0.5,-0.5,1,1,0.4,1,573,1,1,573,1,0,1.4,NaN,0.218407653378926,0.218407653378926,750,1,0,congruent,1,2151.14767509853,2872.94980339374
9,104,3,402,0.5,0.5,0.5,4,3,0.4,4,516,1,1,516,1,0,1.8,NaN,-0.272611455418804,-0.272611455418804,750,0,0,incongruent,1,3045.39305809574,2601.74748498853
9,104,3,403,-0.5,-0.5,0.5,3,4,0.6,2,817,0,0,NaN,0,0,2,0.4,2.3203140138464,NaN,750,0,1,incongruent,0,1058.6154700512,7282.72010371569
9,104,3,404,0.5,0.5,0,2,NaN,0.6,2,652,1,1,652,1,0,1.6,NaN,0.898942909431921,0.898942909431921,750,0,0,neutral,1,5125.94496414837,5039.22781988326
9,104,3,405,-0.5,-0.5,0.5,1,4,0.8,4,465,0,1,NaN,1,0,1.6,0.2,-0.711944342237825,NaN,750,1,0,incongruent,0.1,2842.53917200976,1811.70927388073
9,104,3,406,-0.5,-0.5,0,4,NaN,0.8,4,419,1,1,419,1,0,1.4,0.4,-1.10820537740792,-1.10820537740792,750,0,0,neutral,0.1,2049.22887391331,1695.75683993018
9,104,3,407,0.5,0.5,0.5,2,4,0.8,1,879,0,0,NaN,0,0,1.2,NaN,2.85440497429306,NaN,750,0,1,incongruent,0,980.769792376845,4007.00148111785
9,104,3,408,-0.5,-0.5,-0.5,3,3,0.6,4,681,0,1,NaN,1,0,0.8,0.6,1.14875964899568,NaN,750,0,1,congruent,0.1,1362.54122541242,7363.83026843677
9,104,3,409,-0.5,-0.5,0.5,2,4,0.6,2,821,1,0,821,1,0,1,0.8,2.35477149516554,2.35477149516554,750,0,0,incongruent,0.1,4020.57187554883,1305.90803402475
9,104,3,410,0.5,-0.5,0,1,NaN,0.6,1,368,1,1,368,1,0,0.8,NaN,-1.54753826422694,-1.54753826422694,750,0,0,neutral,1,2070.64787693854,1822.85764469034
9,104,3,411,-0.5,-0.5,-0.5,3,3,0.6,3,400,1,1,400,0,0,1,0.8,-1.27187841367383,-1.27187841367383,750,1,0,congruent,0,1598.25574188611,837.864573776994
9,104,3,412,-0.5,-0.5,-0.5,2,2,0.6,2,518,1,1,518,0,0,0.8,0.8,-0.255382714759234,-0.255382714759234,750,1,0,congruent,0,3475.05381527654,1023.43910410088
9,104,3,413,-0.5,0.5,0,4,NaN,0.6,4,488,1,1,488,1,0,0.8,0.2,-0.513813824652776,-0.513813824652776,750,0,0,neutral,0.1,2165.30660243057,3684.25230037533
9,104,3,414,-0.5,-0.5,0.5,3,2,0.8,2,679,0,1,NaN,1,0,0.8,0.6,1.13153090833611,NaN,750,1,0,incongruent,0.1,1999.70976518065,5975.24363121877
9,104,3,415,0.5,-0.5,0.5,2,4,0.8,4,522,0,1,NaN,1,0,0.8,NaN,-0.220925233440095,NaN,750,1,0,incongruent,1,2936.54787034692,4918.31985687893
9,104,3,416,0.5,-0.5,0.5,4,2,0.8,4,612,1,1,612,1,0,0.8,NaN,0.554368096240531,0.554368096240531,750,0,0,incongruent,1,1435.96483639621,1083.79334830006
9,104,3,417,-0.5,0.5,0.5,2,3,0.8,2,995,1,0,995,0,0,1.2,0.4,3.85367193254809,3.85367193254809,750,0,0,incongruent,0,3528.84999506731,6020.5281123721
9,104,3,418,-0.5,-0.5,0.5,3,1,0.6,1,519,0,1,NaN,0,0,1.2,0.6,-0.246768344429449,NaN,750,1,0,incongruent,0,2822.19595959865,1921.06556979788
9,104,3,419,-0.5,0.5,-0.5,4,4,0.6,4,427,1,1,427,1,0,1,0.4,-1.03929041476965,-1.03929041476965,750,1,0,congruent,0.1,2844.06206998326,780.1869447447
9,104,3,420,0.5,-0.5,0.5,2,1,0.6,1,493,0,1,NaN,0,0,1,NaN,-0.470741973003853,NaN,750,1,0,incongruent,0,3975.5321395178,3126.36458308966
9,104,3,421,-0.5,-0.5,0,4,NaN,0.6,4,483,1,1,483,1,0,0.6,0.4,-0.5568856763017,-0.5568856763017,750,0,0,neutral,0.1,1810.81384076519,3582.25316875283
9,104,3,422,-0.5,0.5,0.5,1,2,0.6,2,520,0,1,NaN,0,0,0.4,0.6,-0.238153974099665,NaN,750,1,0,incongruent,0,3634.73286458547,864.1564373615
9,104,3,423,0.5,0.5,-0.5,3,3,0.4,3,386,1,1,386,1,0,0.4,NaN,-1.39247959829082,-1.39247959829082,750,1,0,congruent,1,1714.40301559075,1346.29759171558
9,104,3,424,-0.5,-0.5,-0.5,2,2,0.6,2,554,1,1,554,0,0,0.8,0.4,0.0547346171130164,0.0547346171130164,750,1,0,congruent,0,2653.0651800529,3292.02045915609
9,104,3,425,-0.5,0.5,-0.5,1,1,0.6,1,341,1,1,341,1,0,0.6,0.4,-1.78012626313113,-1.78012626313113,750,1,0,congruent,0.1,5977.43740817306,5719.58139096156
9,104,3,426,0.5,-0.5,-0.5,2,2,0.6,3,441,0,1,NaN,1,0,0.8,NaN,-0.918689230152659,NaN,750,0,1,congruent,1,9513.76202708617,612.671746847605
9,104,3,427,-0.5,0.5,0,1,NaN,0.6,2,668,0,1,NaN,0,0,1,0.6,1.03677283470848,NaN,750,0,1,neutral,0,28458.1246607764,5671.91972691602
9,104,3,428,-0.5,-0.5,-0.5,2,2,0.6,2,639,1,1,639,1,0,1,0.4,0.786956095144719,0.786956095144719,750,1,0,congruent,0.1,3293.79057153177,789.924949579113
9,104,3,429,-0.5,0.5,0.5,4,3,0.6,4,433,1,1,433,1,0,0.8,0.4,-0.987604192790937,-0.987604192790937,750,0,0,incongruent,0.1,9018.03043837598,1014.38506061077
9,104,3,430,-0.5,-0.5,-0.5,1,1,0.6,1,468,1,1,468,0,0,1,0.6,-0.686101231248471,-0.686101231248471,750,1,0,congruent,0,1300.72699707028,4426.82171984045
9,104,3,431,0.5,-0.5,0,4,NaN,0.6,4,466,1,1,466,0,0,0.8,NaN,-0.70332997190804,-0.70332997190804,750,0,0,neutral,0,4977.99628958919,1807.76206839972
9,104,3,432,0.5,0.5,0.5,1,2,0.6,2,512,0,1,NaN,0,0,0.4,NaN,-0.307068936737942,NaN,750,1,0,incongruent,0,9866.50162271382,4006.02994230722
9,104,3,433,-0.5,0.5,0.5,4,1,0.6,4,386,1,1,386,1,0,0.4,0.6,-1.39247959829082,-1.39247959829082,750,0,0,incongruent,0.1,2711.90598450604,290.838663482882
9,104,3,434,-0.5,-0.5,-0.5,3,3,0.6,3,581,1,1,581,0,0,0.4,0.4,0.287322616017204,0.287322616017204,750,1,0,congruent,0,3088.04074262043,3704.89699816944
9,104,3,435,-0.5,0.5,0,2,NaN,0.6,2,646,1,1,646,1,0,0.2,0.6,0.847256687453212,0.847256687453212,750,0,0,neutral,0.1,3625.05673875476,2019.35107202011
9,104,3,436,-0.5,-0.5,-0.5,1,1,0.6,1,340,1,1,340,1,0,0.4,0.4,-1.78874063346092,-1.78874063346092,750,1,0,congruent,0.1,678.550952882092,1483.28281423552
9,104,3,437,0.5,-0.5,0,4,NaN,0.6,4,506,1,1,506,0,0,0.6,NaN,-0.358755158716651,-0.358755158716651,750,0,0,neutral,0,1485.994204568,541.655861479133
9,104,3,438,0.5,-0.5,0.5,3,2,0.6,2,619,0,1,NaN,1,0,0.6,NaN,0.614668688549024,NaN,750,1,0,incongruent,1,1190.32608919341,4003.8000798199
9,104,3,439,-0.5,0.5,0,1,NaN,0.6,1,639,1,1,639,1,0,0.8,0.8,0.786956095144719,0.786956095144719,750,0,0,neutral,0.1,9936.70521831464,14530.6483922315
9,104,3,440,0.5,0.5,-0.5,4,4,0.8,4,416,1,1,416,1,0,1,NaN,-1.13404848839728,-1.13404848839728,750,1,0,congruent,1,2860.3469655122,3767.85058940138
9,104,3,441,-0.5,0.5,-0.5,1,1,0.8,2,313,0,1,NaN,0,0,1.2,0.8,-2.02132863236511,NaN,750,0,1,congruent,0,6636.58559635316,1530.08053722608
9,104,3,442,0.5,0.5,-0.5,4,4,0.8,4,334,1,1,334,1,0,1,NaN,-1.84042685543963,-1.84042685543963,750,1,0,congruent,1,4917.56121103613,2813.12931495293
9,104,3,443,0.5,0.5,0.5,2,1,0.8,1,475,0,1,NaN,0,0,1.4,NaN,-0.625800638939978,NaN,750,1,0,incongruent,0,11052.9727770544,6100.46986244733
9,104,3,444,-0.5,-0.5,0,1,NaN,0.6,1,491,1,1,491,0,0,1,0.4,-0.487970713663422,-0.487970713663422,750,0,0,neutral,0,4661.44580726929,2099.72798619276
9,104,3,445,-0.5,-0.5,0.5,2,1,0.6,2,360,1,1,360,1,0,0.8,0.4,-1.61645322686522,-1.61645322686522,750,0,0,incongruent,0.1,1578.55740568663,2475.67668191486
9,104,3,446,-0.5,0.5,0.5,1,4,0.6,4,584,0,1,NaN,0,0,0.6,0.8,0.313165727006559,NaN,750,1,0,incongruent,0,7512.13867106073,2339.160363796
9,104,3,447,0.5,0.5,-0.5,3,3,0.4,3,457,1,1,457,1,0,0.6,NaN,-0.780859304876103,-0.780859304876103,750,1,0,congruent,1,3028.50489029201,787.386611903756
9,104,3,448,0.5,-0.5,0.5,4,2,0.4,4,703,1,1,703,0,0,0.6,NaN,1.33827579625094,1.33827579625094,750,0,0,incongruent,0,1022.51008210529,991.321714742398
9,104,3,449,0.5,0.5,0,1,NaN,0.4,2,611,0,1,NaN,0,0,0.6,NaN,0.545753725910746,NaN,750,0,1,neutral,0,2071.40205003496,2732.55634999671
9,104,3,450,-0.5,-0.5,-0.5,4,4,0.4,4,477,1,1,477,1,0,0.6,0.4,-0.608571898280408,-0.608571898280408,750,1,0,congruent,0.1,913.976825355321,2244.95220097351
9,104,4,451,0.5,-0.5,0,3,NaN,0.4,3,503,1,1,503,1,0,0.6,NaN,-0.384598269706005,-0.384598269706005,750,0,0,neutral,1,1707.89112878204,626.076140355591
9,104,4,452,0.5,0.5,-0.5,4,4,0.4,4,434,1,1,434,1,0,1,NaN,-0.978989822461152,-0.978989822461152,750,1,0,congruent,1,1489.43315240623,1228.68714539461
9,104,4,453,-0.5,0.5,0.5,3,2,0.4,2,486,0,1,NaN,0,0,1,0.6,-0.531042565312346,NaN,750,1,0,incongruent,0,13360.1333348254,3115.16565435399
9,104,4,454,-0.5,0.5,-0.5,1,1,0.4,1,476,1,1,476,1,0,1,0.4,-0.617186268610193,-0.617186268610193,750,1,0,congruent,0.1,1402.0337354702,2354.78485966699
9,104,4,455,0.5,-0.5,0.5,2,3,0.6,2,577,1,1,577,0,0,1.2,NaN,0.252865134698065,0.252865134698065,750,0,0,incongruent,0,2172.83190688037,1758.64937112448
9,104,4,456,-0.5,0.5,0.5,1,4,0.6,4,636,0,1,NaN,0,0,1,0.4,0.761112984155365,NaN,750,1,0,incongruent,0,4107.34611175001,2725.97234299246
9,104,4,457,-0.5,0.5,0.5,3,1,0.4,3,749,1,1,749,1,0,0.6,0.2,1.73453683142104,1.73453683142104,750,0,0,incongruent,0.1,5025.9073773317,2239.31450223231
9,104,4,458,0.5,0.5,0,1,NaN,0.6,2,529,0,1,NaN,0,0,0.4,NaN,-0.160624641131602,NaN,750,0,1,neutral,0,2172.45792535754,1514.83981092765
9,104,4,459,-0.5,-0.5,-0.5,2,2,0.4,2,553,1,1,553,0,0,0.4,0.6,0.0461202467832317,0.0461202467832317,750,1,0,congruent,0,3613.13871392187,2743.8076754587
9,104,4,460,-0.5,-0.5,-0.5,4,4,0.4,4,370,1,1,370,0,0,0.2,0.6,-1.53030952356738,-1.53030952356738,750,1,0,congruent,0,4488.74135645412,2813.57608352969
9,104,4,461,-0.5,0.5,0.5,3,1,0.4,1,410,0,1,NaN,0,0,0.2,0.4,-1.18573471037599,NaN,750,1,0,incongruent,0,600.798225097493,1475.00388239278
9,104,4,462,-0.5,-0.5,0.5,2,4,0.4,4,752,0,0,NaN,0,0,0.2,0.4,1.76037994241039,NaN,750,1,0,incongruent,0,3318.49090439146,5220.95245927965
9,104,4,463,0.5,-0.5,-0.5,1,1,0.4,1,442,1,1,442,0,0,0,NaN,-0.910074859822874,-0.910074859822874,750,1,0,congruent,0,9664.17897277852,3401.5031931385
9,104,4,464,-0.5,0.5,0,2,NaN,0.4,2,505,1,1,505,1,0,0,0.4,-0.367369529046436,-0.367369529046436,750,0,0,neutral,0.1,7101.54585708942,2451.14646223045
9,104,4,465,0.5,0.5,-0.5,4,4,0.4,4,542,1,1,542,1,0,0.2,NaN,-0.0486378268444004,-0.0486378268444004,750,1,0,congruent,1,5516.41249633106,6961.96396731806
9,104,4,466,0.5,0.5,0.5,3,1,0.6,1,615,0,1,NaN,0,0,0.6,NaN,0.580211207229885,NaN,750,1,0,incongruent,0,5009.11900942409,3086.63226367914
9,104,4,467,-0.5,0.5,0.5,1,4,0.4,4,596,0,1,NaN,0,0,0.6,0.6,0.416538170963975,NaN,750,1,0,incongruent,0,1479.67449140613,11015.5548920373
9,104,4,468,-0.5,0.5,-0.5,3,3,0.4,3,562,1,1,562,1,0,0.6,0.4,0.123649579751294,0.123649579751294,750,1,0,congruent,0.1,4168.49876515276,4753.39776650119
9,104,4,469,0.5,0.5,0.5,2,1,0.6,2,476,1,1,476,1,0,0.8,NaN,-0.617186268610193,-0.617186268610193,750,0,0,incongruent,1,4632.58972608478,1504.94117233278
9,104,4,470,-0.5,0.5,0,3,NaN,0.6,3,512,1,1,512,1,0,1,0.6,-0.307068936737942,-0.307068936737942,750,0,0,neutral,0.1,4319.99232002724,2555.13816367117
9,104,4,471,0.5,0.5,0.5,2,3,0.6,2,601,1,1,601,1,0,0.8,NaN,0.459610022612899,0.459610022612899,750,0,0,incongruent,1,1525.76293366898,2338.02380853443
9,104,4,472,-0.5,-0.5,-0.5,4,4,0.8,4,503,1,1,503,1,0,1.2,0.4,-0.384598269706005,-0.384598269706005,750,1,0,congruent,0.1,2175.186033437,1401.52961807646
9,104,4,473,-0.5,0.5,-0.5,3,3,0.8,3,574,1,1,574,1,0,1.4,0.6,0.227022023708711,0.227022023708711,750,1,0,congruent,0.1,619.5990704224,3044.12399326831
9,104,4,474,-0.5,-0.5,-0.5,4,4,1,4,503,1,1,503,1,0,1.4,0.4,-0.384598269706005,-0.384598269706005,750,1,0,congruent,0.1,1459.22018251454,391.967203205606
9,104,4,475,0.5,-0.5,-0.5,2,2,1,2,536,1,1,536,1,0,1.2,NaN,-0.100324048823109,-0.100324048823109,750,1,0,congruent,1,7595.79539338049,847.954469447947
9,104,4,476,0.5,-0.5,0.5,4,1,1,4,728,1,1,728,1,0,1.4,NaN,1.55363505449556,1.55363505449556,750,0,0,incongruent,1,3757.41980968493,4207.76254712161
9,104,4,477,0.5,-0.5,0.5,1,3,1,1,783,1,0,783,1,0,1.4,NaN,2.02742542263372,2.02742542263372,750,0,0,incongruent,1,1716.98987964753,3543.93510323772
9,104,4,478,-0.5,0.5,0.5,3,1,1,3,607,1,1,607,1,0,1.6,0.8,0.511296244591607,0.511296244591607,750,0,0,incongruent,0.1,1795.96060009517,2159.85694009731
9,104,4,479,-0.5,-0.5,0,1,NaN,1,1,653,1,1,653,1,0,1.6,0.4,0.907557279761705,0.907557279761705,750,0,0,neutral,0.1,5392.22183605376,1421.25484423975
9,104,4,480,-0.5,0.5,-0.5,4,4,1,4,428,1,1,428,1,0,1.6,0.8,-1.03067604443986,-1.03067604443986,750,1,0,congruent,0.1,2270.59037643317,1032.6550012121
9,104,4,481,-0.5,-0.5,0,2,NaN,1,2,361,1,1,361,1,0,1.4,0.6,-1.60783885653544,-1.60783885653544,750,0,0,neutral,0.1,2097.88594070114,4650.29325264545
9,104,4,482,-0.5,0.5,0.5,3,1,1,3,764,1,0,764,0,0,1.2,1,1.86375238636781,1.86375238636781,750,0,0,incongruent,0,6448.37758940617,3466.56470585174
9,104,4,483,0.5,-0.5,0.5,1,2,0.8,2,621,0,1,NaN,1,0,0.8,NaN,0.631897429208594,NaN,750,1,0,incongruent,1,1461.78175037917,2931.49784348433
9,104,4,484,-0.5,0.5,0,4,NaN,0.8,4,574,1,1,574,1,0,1,0.8,0.227022023708711,0.227022023708711,750,0,0,neutral,0.1,3958.21100482157,2646.68556869621
9,104,4,485,0.5,-0.5,-0.5,3,3,0.8,3,607,1,1,607,1,0,1,NaN,0.511296244591607,0.511296244591607,750,1,0,congruent,1,4322.78799627304,2708.92945232617
9,104,4,486,0.5,-0.5,0.5,1,4,0.8,4,558,0,1,NaN,1,0,1.2,NaN,0.0891920984321554,NaN,750,1,0,incongruent,1,6672.86293645172,966.484299005506
9,104,4,487,-0.5,-0.5,0.5,2,1,0.8,2,701,1,1,701,0,0,1.4,0.8,1.32104705559137,1.32104705559137,750,0,0,incongruent,0,2305.57780101124,4930.86584600325
9,104,4,488,-0.5,-0.5,0,1,NaN,0.8,1,590,1,1,590,1,0,1.4,0.8,0.364851948985267,0.364851948985267,750,0,0,neutral,0.1,3251.2119884976,670.551263340538
9,104,4,489,-0.5,-0.5,-0.5,3,3,0.8,3,465,1,1,465,0,0,1.2,0.8,-0.711944342237825,-0.711944342237825,750,1,0,congruent,0,4890.17482571483,2218.83053811255
9,104,4,490,0.5,-0.5,0.5,2,1,0.8,2,571,1,1,571,1,0,1,NaN,0.201178912719357,0.201178912719357,750,0,0,incongruent,1,683.574680291163,2830.17974001473
9,104,4,491,-0.5,-0.5,0,3,NaN,0.8,3,519,1,1,519,1,0,1,0.6,-0.246768344429449,-0.246768344429449,750,0,0,neutral,0.1,3014.30170986022,3368.78843488476
9,104,4,492,-0.5,-0.5,-0.5,4,4,0.8,4,532,1,1,532,1,0,0.8,0.6,-0.134781530142248,-0.134781530142248,750,1,0,congruent,0.1,1017.71992576977,2336.53885862072
9,104,4,493,-0.5,0.5,0,3,NaN,0.8,3,569,1,1,569,1,0,1,0.8,0.183950172059788,0.183950172059788,750,0,0,neutral,0.1,4785.33408258034,2916.17355813516
9,104,4,494,0.5,0.5,-0.5,4,4,0.8,4,530,1,1,530,1,0,1,NaN,-0.152010270801817,-0.152010270801817,750,1,0,congruent,1,3014.41033123654,3356.70689584032
9,104,4,495,0.5,0.5,0.5,2,1,0.8,2,677,1,1,677,1,0,1.4,NaN,1.11430216767654,1.11430216767654,750,0,0,incongruent,1,1802.25509468119,8398.07499057795
9,104,4,496,-0.5,-0.5,-0.5,3,3,0.8,3,945,1,0,945,0,0,1.4,0.6,3.42295341605885,3.42295341605885,750,1,0,congruent,0,1387.75439507896,2805.5770010137
9,104,4,497,-0.5,-0.5,-0.5,1,1,0.8,1,571,1,1,571,1,0,1.2,0.6,0.201178912719357,0.201178912719357,750,1,0,congruent,0.1,7838.33580645227,2917.41569886348
9,104,4,498,0.5,0.5,0,2,NaN,0.8,2,573,1,1,573,1,0,1.2,NaN,0.218407653378926,0.218407653378926,750,0,0,neutral,1,1213.11892592111,1760.32473485989
9,104,4,499,0.5,-0.5,-0.5,1,1,1,2,591,0,1,NaN,1,0,1.4,NaN,0.373466319315052,NaN,750,0,1,congruent,1,2283.51080007378,2743.48843940441
9,104,4,500,0.5,0.5,-0.5,4,4,1,4,508,1,1,508,1,0,1.4,NaN,-0.341526418057081,-0.341526418057081,750,1,0,congruent,1,1237.65997802087,4576.09974606065
9,104,4,501,0.5,-0.5,0,2,NaN,1,2,527,1,1,527,1,0,1.4,NaN,-0.177853381791171,-0.177853381791171,750,0,0,neutral,1,2590.02865639084,1499.90385256762
9,104,4,502,0.5,0.5,0.5,4,3,1,4,601,1,1,601,1,0,1.8,NaN,0.459610022612899,0.459610022612899,750,0,0,incongruent,1,1299.4646064563,2668.86127680577
9,104,4,503,0.5,-0.5,-0.5,2,2,1,2,533,1,1,533,1,0,2,NaN,-0.126167159812463,-0.126167159812463,750,1,0,congruent,1,1468.07841511045,3398.68937508771
9,104,4,504,0.5,0.5,-0.5,4,4,1,4,528,1,1,528,1,0,2,NaN,-0.169239011461387,-0.169239011461387,750,1,0,congruent,1,2625.99178270474,3214.44358975521
9,104,4,505,0.5,0.5,0.5,2,3,1,2,422,1,1,422,1,0,2,NaN,-1.08236226641857,-1.08236226641857,750,0,0,incongruent,1,6568.93782819915,796.364733009802
9,104,4,506,0.5,-0.5,-0.5,1,1,1,1,485,1,1,485,1,0,2,NaN,-0.53965693564213,-0.53965693564213,750,1,0,congruent,1,3680.55478709406,1823.22291736086
9,104,4,507,-0.5,0.5,0.5,4,3,1,4,570,1,1,570,1,0,2,0.8,0.192564542389572,0.192564542389572,750,0,0,incongruent,0.1,1586.55002185386,5923.13830742925
9,104,4,508,-0.5,-0.5,-0.5,2,2,1,2,462,1,1,462,1,0,1.8,0.6,-0.737787453227179,-0.737787453227179,750,1,0,congruent,0.1,2128.84739679737,4835.04937418005
9,104,4,509,-0.5,-0.5,-0.5,1,1,1,1,473,1,1,473,1,0,1.6,0.8,-0.643029379599547,-0.643029379599547,750,1,0,congruent,0.1,1115.33688784707,1559.17817629206
9,104,4,510,0.5,0.5,0,2,NaN,1,2,510,1,1,510,1,0,1.4,NaN,-0.324297677397512,-0.324297677397512,750,0,0,neutral,1,7853.07077117041,2442.93955769366
9,104,4,511,0.5,-0.5,-0.5,3,3,1,3,441,1,1,441,1,0,1.4,NaN,-0.918689230152659,-0.918689230152659,750,1,0,congruent,1,1704.95770962259,3592.5517724843
9,104,4,512,-0.5,-0.5,-0.5,1,1,1,1,683,1,1,683,1,0,1.4,0.8,1.16598838965525,1.16598838965525,750,1,0,congruent,0.1,4770.83169299304,4758.79699335257
9,104,4,513,0.5,0.5,-0.5,3,3,1,3,415,1,1,415,1,0,1.4,NaN,-1.14266285872706,-1.14266285872706,750,1,0,congruent,1,4794.7304435076,1783.28663706489
9,104,4,514,0.5,0.5,0.5,1,4,1,4,622,0,1,NaN,0,0,1.6,NaN,0.640511799538379,NaN,750,1,0,incongruent,0,3977.20137879188,1974.97914595182
9,104,4,515,0.5,0.5,0,3,NaN,0.8,3,517,1,1,517,1,0,1.4,NaN,-0.263997085089019,-0.263997085089019,750,0,0,neutral,1,1936.7979046903,1439.54678949362
9,104,4,516,-0.5,-0.5,0.5,4,1,0.8,4,512,1,1,512,1,0,1.4,0.8,-0.307068936737942,-0.307068936737942,750,0,0,incongruent,0.1,3647.11514445001,1496.00822824951
9,104,4,517,-0.5,0.5,0,2,NaN,0.8,2,640,1,1,640,1,0,1.2,0.8,0.795570465474504,0.795570465474504,750,0,0,neutral,0.1,1002.13500783112,1981.3812895487
9,104,4,518,-0.5,0.5,-0.5,3,3,0.8,3,634,1,1,634,1,0,1.2,0.8,0.743884243495795,0.743884243495795,750,1,0,congruent,0.1,3173.41027861064,5766.70428503124
9,104,4,519,0.5,-0.5,0,1,NaN,0.8,1,440,1,1,440,1,0,1,NaN,-0.927303600482444,-0.927303600482444,750,0,0,neutral,1,2894.99617269957,5546.70665722315
9,104,4,520,-0.5,0.5,0.5,4,1,0.8,4,405,1,1,405,1,0,1.4,1,-1.22880656202491,-1.22880656202491,750,0,0,incongruent,0.1,1991.02168137566,2132.29331171931
9,104,4,521,0.5,0.5,0,1,NaN,0.8,1,479,1,1,479,1,0,1.2,NaN,-0.591343157620839,-0.591343157620839,750,0,0,neutral,1,1336.1708701434,4219.07552642136
9,104,4,522,0.5,-0.5,0.5,4,3,1,2,829,0,0,NaN,1,0,1.4,NaN,2.42368645780382,NaN,750,0,1,incongruent,1,2668.38871063564,5574.55624873841
9,104,4,523,-0.5,0.5,-0.5,2,2,1,2,318,1,1,318,1,0,1.6,1,-1.97825678071618,-1.97825678071618,750,1,0,congruent,0.1,3172.70065309743,1160.74223404598
9,104,4,524,0.5,-0.5,0,3,NaN,1,2,744,0,1,NaN,1,0,1.6,NaN,1.69146497977212,NaN,750,0,1,neutral,1,7318.11114272916,1869.35878319919
9,104,4,525,0.5,-0.5,-0.5,2,2,1,2,678,1,1,678,1,0,1.6,NaN,1.12291653800632,1.12291653800632,750,1,0,congruent,1,1819.82028363935,9124.21116134987
9,104,4,526,-0.5,0.5,-0.5,3,3,1,3,565,1,1,565,1,0,1.8,1,0.149492690740649,0.149492690740649,750,1,0,congruent,0.1,2383.49025443371,1718.4145214402
9,104,4,527,0.5,0.5,0.5,1,2,1,2,478,0,1,NaN,0,0,1.6,NaN,-0.599957527950624,NaN,750,1,0,incongruent,0,1127.3547380962,803.170854451085
9,104,4,528,0.5,0.5,0,3,NaN,0.8,3,509,1,1,509,1,0,1.2,NaN,-0.332912047727297,-0.332912047727297,750,0,0,neutral,1,3758.90888329482,2042.07363039199
9,104,4,529,0.5,-0.5,0.5,2,3,0.8,3,664,0,1,NaN,1,0,1.4,NaN,1.00231535338934,NaN,750,1,0,incongruent,1,6997.13440071691,4226.46148516876
9,104,4,530,-0.5,0.5,0,4,NaN,0.8,4,484,1,1,484,1,0,1.4,1,-0.548271305971915,-0.548271305971915,750,0,0,neutral,0.1,7407.08821330306,1476.88916636354
9,104,4,531,-0.5,0.5,-0.5,1,1,0.8,1,356,1,1,356,1,0,1.2,1,-1.65091070818436,-1.65091070818436,750,1,0,congruent,0.1,4641.17952316251,2454.47458065472
9,104,4,532,-0.5,0.5,-0.5,3,3,0.8,3,555,1,1,555,1,0,1.2,1,0.0633489874428012,0.0633489874428012,750,1,0,congruent,0.1,5072.60662850708,2191.47315227474
9,104,4,533,0.5,0.5,0.5,2,1,0.8,1,849,0,0,NaN,0,0,1.4,NaN,2.59597386439951,NaN,750,1,0,incongruent,0,3332.20157732474,4566.1752350969
9,104,4,534,-0.5,-0.5,0.5,4,2,0.8,4,548,1,1,548,0,0,1,1,0.00304839513430803,0.00304839513430803,750,0,0,incongruent,0,1466.12663651806,3597.50898888837
9,104,4,535,0.5,-0.5,0.5,2,1,0.8,2,407,1,1,407,1,0,0.6,NaN,-1.21157782136534,-1.21157782136534,750,0,0,incongruent,1,7714.54561127097,2299.42124025387
9,104,4,536,-0.5,-0.5,0,1,NaN,0.8,3,544,0,1,NaN,1,0,0.8,0.8,-0.0314090861848309,NaN,750,0,1,neutral,0.1,1726.71245820124,5883.30593954229
9,104,4,537,-0.5,-0.5,-0.5,2,2,0.8,2,463,1,1,463,0,0,0.8,0.8,-0.729173082897395,-0.729173082897395,750,1,0,congruent,0,2768.5882429629,2228.00326285753
9,104,4,538,-0.5,0.5,0.5,4,3,0.8,4,494,1,1,494,1,0,0.6,1,-0.462127602674068,-0.462127602674068,750,0,0,incongruent,0.1,4667.19145817251,1972.7957003269
9,104,4,539,-0.5,-0.5,-0.5,2,2,0.8,1,477,0,1,NaN,1,0,0.8,0.6,-0.608571898280408,NaN,750,0,1,congruent,0.1,6513.5545987421,560.639833448198
9,104,4,540,0.5,0.5,0,4,NaN,0.8,4,506,1,1,506,1,0,1,NaN,-0.358755158716651,-0.358755158716651,750,0,0,neutral,1,4680.89920359172,4660.04549543594
9,104,4,541,0.5,-0.5,-0.5,2,2,0.8,2,437,1,1,437,1,0,1,NaN,-0.953146711471798,-0.953146711471798,750,1,0,congruent,1,2653.88084806863,1427.68152206086
9,104,4,542,-0.5,0.5,0,4,NaN,0.8,4,611,1,1,611,1,0,1.2,1,0.545753725910746,0.545753725910746,750,0,0,neutral,0.1,1089.94347780227,7023.41667465259
9,104,4,543,0.5,0.5,0.5,1,2,0.8,2,569,0,1,NaN,0,0,1.4,NaN,0.183950172059788,NaN,750,1,0,incongruent,0,2958.72179152423,2745.07191580179
9,104,4,544,0.5,0.5,0,4,NaN,0.6,4,381,1,1,381,1,0,1.2,NaN,-1.43555144993974,-1.43555144993974,750,0,0,neutral,1,6457.61048139246,1109.37416366263
9,104,4,545,-0.5,0.5,-0.5,1,1,0.8,1,560,1,1,560,1,0,1.4,1,0.106420839091725,0.106420839091725,750,1,0,congruent,0.1,4530.57934057737,3633.27201677929
9,104,4,546,0.5,0.5,-0.5,2,2,0.8,2,418,1,1,418,1,0,1.2,NaN,-1.11681974773771,-1.11681974773771,750,1,0,congruent,1,4549.88777130336,7609.00568080506
9,104,4,547,-0.5,-0.5,-0.5,3,3,0.8,3,399,1,1,399,1,0,1.2,0.6,-1.28049278400362,-1.28049278400362,750,1,0,congruent,0.1,3781.91197933569,970.012476615333
9,104,4,548,0.5,-0.5,0,4,NaN,0.8,4,384,1,1,384,1,0,1.2,NaN,-1.40970833895039,-1.40970833895039,750,0,0,neutral,1,1003.67414259292,1440.84280844878
9,104,4,549,-0.5,-0.5,-0.5,2,2,0.8,2,490,1,1,490,1,0,1.6,0.6,-0.496585083993207,-0.496585083993207,750,1,0,congruent,0.1,1860.89276589971,3458.90220688777
9,104,4,550,0.5,0.5,-0.5,4,4,0.8,4,444,1,1,444,1,0,1.4,NaN,-0.892846119163305,-0.892846119163305,750,1,0,congruent,1,5290.08438667652,6810.59831710428
9,104,4,551,0.5,0.5,0.5,1,3,0.8,3,597,0,1,NaN,0,0,1.6,NaN,0.42515254129376,NaN,750,1,0,incongruent,0,2302.8685418101,1282.67411333506
9,104,4,552,-0.5,0.5,-0.5,2,2,0.8,2,548,1,1,548,1,0,1.2,1,0.00304839513430803,0.00304839513430803,750,1,0,congruent,0.1,2489.17469173375,2370.74189189152
9,104,4,554,-0.5,0.5,0,2,NaN,0.8,2,757,1,0,757,0,0,1,1,1.80345179405932,1.80345179405932,750,0,0,neutral,0,2001.92695495916,6326.97156561753
9,104,4,555,0.5,-0.5,-0.5,1,1,0.6,1,428,1,1,428,0,0,0.8,NaN,-1.03067604443986,-1.03067604443986,750,1,0,congruent,0,1577.5350023395,2730.41037261582
9,104,4,556,0.5,-0.5,0.5,3,2,0.6,2,763,0,0,NaN,1,0,0.4,NaN,1.85513801603803,NaN,750,1,0,incongruent,1,2463.5829241652,3491.23095221882
9,104,4,557,-0.5,-0.5,0,2,NaN,0.6,2,575,1,1,575,1,0,0.8,0.8,0.235636394038496,0.235636394038496,750,0,0,neutral,0.1,1049.72651988795,949.946110682316
9,104,4,558,-0.5,-0.5,0.5,4,1,0.6,1,620,0,1,NaN,1,0,0.8,1,0.623283058878809,NaN,750,1,0,incongruent,0.1,1358.28139749005,3385.62577430803
9,104,4,559,0.5,0.5,-0.5,2,2,0.6,2,606,1,1,606,1,0,0.8,NaN,0.502681874261823,0.502681874261823,750,1,0,congruent,1,3741.37514806904,3356.9620833829
9,104,4,560,-0.5,0.5,0,3,NaN,0.6,3,478,1,1,478,1,0,1.2,0.8,-0.599957527950624,-0.599957527950624,750,0,0,neutral,0.1,1933.93790678109,1147.59264141326
9,104,4,561,0.5,0.5,0.5,4,2,0.6,4,411,1,1,411,1,0,1.4,NaN,-1.1771203400462,-1.1771203400462,750,0,0,incongruent,1,4719.24127675872,1804.29992822376
9,104,4,562,-0.5,0.5,0,1,NaN,0.8,1,526,1,1,526,1,0,1.4,0.8,-0.186467752120956,-0.186467752120956,750,0,0,neutral,0.1,2704.52703831422,7709.23577545675
9,104,4,563,0.5,0.5,-0.5,3,3,0.8,3,472,1,1,472,1,0,1.4,NaN,-0.651643749929332,-0.651643749929332,750,1,0,congruent,1,7610.9361365652,2152.81379892691
9,104,4,564,-0.5,-0.5,-0.5,4,4,1,4,474,1,1,474,1,0,1.6,1,-0.634415009269763,-0.634415009269763,750,1,0,congruent,0.1,1955.93940488468,4565.03788459843
9,104,4,565,-0.5,-0.5,0,3,NaN,1,3,490,1,1,490,1,0,1.4,1,-0.496585083993207,-0.496585083993207,750,0,0,neutral,0.1,1490.2216250796,1612.07846831714
9,104,4,566,0.5,-0.5,-0.5,2,2,1,2,379,1,1,379,1,0,1.4,NaN,-1.45278019059931,-1.45278019059931,750,1,0,congruent,1,3106.50206024677,3811.63514890676
9,104,4,567,-0.5,0.5,-0.5,4,4,1,4,524,1,1,524,1,0,1.4,0.8,-0.203696492780526,-0.203696492780526,750,1,0,congruent,0.1,3240.44759931067,2940.58582291311
9,104,4,568,0.5,0.5,0,1,NaN,1,1,603,1,1,603,1,0,1.4,NaN,0.476838763272469,0.476838763272469,750,0,0,neutral,1,3137.16456869563,1738.06496542746
9,104,4,569,-0.5,-0.5,-0.5,4,4,1,4,457,1,1,457,1,0,1.4,1,-0.780859304876103,-0.780859304876103,750,1,0,congruent,0.1,1342.57691553667,2925.06845663275
9,104,4,570,0.5,0.5,0.5,3,2,1,2,688,0,1,NaN,0,0,1.4,NaN,1.20906024130417,NaN,750,1,0,incongruent,0,2043.65232018974,4468.44269685224
9,104,4,571,-0.5,0.5,0.5,4,3,0.8,4,677,1,1,677,1,0,1.2,0.8,1.11430216767654,1.11430216767654,750,0,0,incongruent,0.1,1492.85341198198,4518.92340179583
9,104,4,572,-0.5,0.5,-0.5,1,1,0.8,1,789,1,0,789,0,0,1,0.8,2.07911164461243,2.07911164461243,750,1,0,congruent,0,3253.82428453659,2041.68272066824
9,104,4,573,-0.5,-0.5,0,3,NaN,0.6,3,467,1,1,467,1,0,0.8,1,-0.694715601578256,-0.694715601578256,750,0,0,neutral,0.1,3947.57426066521,3659.68827828336
9,104,4,574,-0.5,0.5,-0.5,4,4,0.6,4,525,1,1,525,1,0,0.6,0.8,-0.195082122450741,-0.195082122450741,750,1,0,congruent,0.1,4143.21121034321,4755.77568321011
9,104,4,575,0.5,-0.5,0,3,NaN,0.6,3,584,1,1,584,0,0,0.6,NaN,0.313165727006559,0.313165727006559,750,0,0,neutral,0,1981.18143335912,4396.90430394102
9,104,4,576,0.5,0.5,-0.5,2,2,0.6,2,529,1,1,529,1,0,0.6,NaN,-0.160624641131602,-0.160624641131602,750,1,0,congruent,1,2819.84176677049,3926.19305260865
9,104,4,577,-0.5,-0.5,0.5,4,3,0.6,4,640,1,1,640,0,0,0.8,1,0.795570465474504,0.795570465474504,750,0,0,incongruent,0,1493.04176928658,1935.77627297797
9,104,4,578,-0.5,-0.5,0.5,2,1,0.6,1,548,0,1,NaN,1,0,0.8,0.8,0.00304839513430803,NaN,750,1,0,incongruent,0.1,7552.80262934279,3676.49984981964
9,104,4,579,-0.5,0.5,-0.5,3,3,0.6,3,393,1,1,393,1,0,0.8,0.8,-1.33217900598233,-1.33217900598233,750,1,0,congruent,0.1,1447.08443312445,1258.31096682718
9,104,4,580,0.5,-0.5,-0.5,4,4,0.8,4,566,1,1,566,1,0,0.8,NaN,0.158107061070433,0.158107061070433,750,1,0,congruent,1,1795.71989276288,2170.09048696202
9,104,4,581,-0.5,-0.5,0,1,NaN,0.8,1,654,1,1,654,1,0,1.2,0.8,0.91617165009149,0.91617165009149,750,0,0,neutral,0.1,1897.91663670322,2216.42948675189
9,104,4,582,-0.5,0.5,-0.5,2,2,0.8,2,522,1,1,522,1,0,1,0.8,-0.220925233440095,-0.220925233440095,750,1,0,congruent,0.1,1461.93356999515,3650.56223418032
9,104,4,584,0.5,0.5,0,1,NaN,1,1,563,1,1,563,1,0,1.4,NaN,0.132263950081079,0.132263950081079,750,0,0,neutral,1,8370.00391005948,5861.27680980727
9,104,4,585,-0.5,-0.5,0.5,4,3,1,4,813,1,0,813,1,0,1.6,0.8,2.28585653252726,2.28585653252726,750,0,0,incongruent,0.1,942.091401943986,3458.65014160661
9,104,4,586,-0.5,-0.5,0,3,NaN,1,3,471,1,1,471,1,0,1.4,0.8,-0.660258120259117,-0.660258120259117,750,0,0,neutral,0.1,4379.27448860917,3063.69116771673
9,104,4,587,0.5,0.5,-0.5,4,4,1,4,525,1,1,525,1,0,1.4,NaN,-0.195082122450741,-0.195082122450741,750,1,0,congruent,1,955.397380024018,2656.3104754984
9,104,4,588,0.5,-0.5,0.5,2,1,1,1,573,0,1,NaN,1,0,1.6,NaN,0.218407653378926,NaN,750,1,0,incongruent,1,5264.79341443104,1730.34101477187
9,104,4,589,0.5,-0.5,0,3,NaN,1,3,588,1,1,588,1,0,1.6,NaN,0.347623208325698,0.347623208325698,750,0,0,neutral,1,7432.61011409784,1784.09127763152
9,104,4,590,-0.5,-0.5,-0.5,4,4,1,4,438,1,1,438,1,0,1.6,0.8,-0.944532341142013,-0.944532341142013,750,1,0,congruent,0.1,2850.60660393299,3948.42468017008
9,104,4,591,0.5,0.5,0.5,1,2,1,2,420,0,1,NaN,0,0,1.6,NaN,-1.09959100707814,NaN,750,1,0,incongruent,0,6001.57645929434,1144.31898573843
9,104,4,592,0.5,0.5,0,4,NaN,0.8,4,398,1,1,398,1,0,1.4,NaN,-1.2891071543334,-1.2891071543334,750,0,0,neutral,1,4656.0845075901,3439.09092427467
9,104,4,593,-0.5,-0.5,-0.5,3,3,0.8,3,433,1,1,433,1,0,1.4,1,-0.987604192790937,-0.987604192790937,750,1,0,congruent,0.1,2936.31915573444,5786.26069002497
9,104,4,594,0.5,-0.5,0.5,2,1,0.8,2,849,1,0,849,1,0,1.2,NaN,2.59597386439951,2.59597386439951,750,0,0,incongruent,1,1113.91825246549,4014.8782343812
9,104,4,596,-0.5,-0.5,-0.5,3,3,0.8,3,646,1,1,646,1,0,1.2,1,0.847256687453212,0.847256687453212,750,1,0,congruent,0.1,1040.10279649182,4935.39457186471
9,104,4,597,-0.5,-0.5,0.5,2,4,0.8,4,566,0,1,NaN,1,0,1.4,1,0.158107061070433,NaN,750,1,0,incongruent,0.1,5001.64477647481,4347.32980891455
9,104,4,598,-0.5,-0.5,0,1,NaN,0.8,2,740,0,1,NaN,0,0,1.2,1,1.65700749845298,NaN,750,0,1,neutral,0,4040.23680806222,2193.48638314766
9,104,4,599,0.5,0.5,-0.5,3,3,0.8,3,379,1,1,379,1,0,1,NaN,-1.45278019059931,-1.45278019059931,750,1,0,congruent,1,4414.52556805534,6478.39579046998
9,104,4,600,-0.5,-0.5,-0.5,1,1,0.8,1,714,1,1,714,1,0,1,0.8,1.43303386987857,1.43303386987857,750,1,0,congruent,0.1,2833.78929276422,1227.60131891033
