subid,vers,block,trial,rewlvl,efflvl,congruency,targetresp,distractorresp,rollingefflvl,resp,rt,acc,fast,accrt,isrewarded,ismiss,runavgrrgen,runavgrrcond,zrt,acczrt,rtthreshold,isdisterror,isranderror,congruence,feedback,fcz_resp_theta,fcz_resp_theta_baseline
10,104,1,1,-0.5,0.5,0,4,NaN,0.4,4,742,1,1,742,1,0,0,0,-0.0544392445834709,-0.0544392445834709,750,0,0,neutral,0.1,3059.53147755746,3471.56400974164
10,104,1,2,0.5,0.5,-0.5,2,2,0.5,2,491,1,1,491,1,0,0.2,NaN,-2.32961819098453,-2.32961819098453,750,1,0,congruent,1,3608.26357449163,4152.70760280037
10,104,1,4,-0.5,-0.5,-0.5,2,2,0.6,2,663,1,1,663,1,0,1,0,-0.770531422932807,-0.770531422932807,750,1,0,congruent,0.1,1365.21466300481,3032.58360637723
10,104,1,5,-0.5,-0.5,0.5,4,3,0.6,4,696,1,1,696,1,0,1.2,0.2,-0.471404310457768,-0.471404310457768,750,0,0,incongruent,0.1,970.577387058602,4699.62775978041
10,104,1,6,0.5,0.5,-0.5,2,2,0.6,2,738,1,1,738,1,0,1.4,NaN,-0.0906970763986271,-0.0906970763986271,750,1,0,congruent,1,657.898854376903,2932.93974822273
10,104,1,7,-0.5,-0.5,0.5,1,4,0.7,1,723,1,1,723,1,0,1.6,0.4,-0.226663945705463,-0.226663945705463,750,0,0,incongruent,0.1,3054.82852742251,2172.50470717171
10,104,1,8,0.5,0.5,0.5,3,1,0.7,3,857,1,0,857,0,0,1.4,NaN,0.987973420102272,0.987973420102272,750,0,0,incongruent,0,5283.90311053762,1707.60528198947
10,104,1,9,-0.5,0.5,-0.5,2,2,0.7,2,745,1,1,745,1,0,1,0.2,-0.0272458707221037,-0.0272458707221037,750,1,0,congruent,0.1,3669.72301647335,2870.452463691
10,104,1,10,-0.5,-0.5,-0.5,3,3,0.8,3,651,1,1,651,1,0,1,0.6,-0.879304918378276,-0.879304918378276,750,1,0,congruent,0.1,13502.0775953365,2521.43698079519
10,104,1,11,0.5,-0.5,-0.5,4,4,0.8,4,468,1,1,468,1,0,1,NaN,-2.53810072392167,-2.53810072392167,750,1,0,congruent,1,2755.56670785089,1047.23043416997
10,104,1,12,0.5,-0.5,0.5,1,3,0.8,2,876,0,0,NaN,1,0,1,NaN,1.16019812122426,NaN,750,0,1,incongruent,1,6677.20002448505,4636.43619399893
10,104,1,14,-0.5,0.5,0,4,NaN,0.8,4,696,1,1,696,1,0,1.6,0.4,-0.471404310457768,-0.471404310457768,750,0,0,neutral,0.1,5871.56070051618,4704.39090020471
10,104,1,15,-0.5,-0.5,-0.5,2,2,0.8,2,911,1,0,911,1,0,1.6,0.8,1.47745414960688,1.47745414960688,750,1,0,congruent,0.1,14188.9644955662,3296.80629438046
10,104,1,16,0.5,-0.5,0.5,4,3,0.8,4,731,1,1,731,0,0,1.6,NaN,-0.154148282075151,-0.154148282075151,750,0,0,incongruent,0,2744.10242791778,5052.31958694802
10,104,1,17,-0.5,0.5,-0.5,1,1,0.8,1,792,1,0,792,0,0,1.2,0.6,0.398783653105982,0.398783653105982,750,1,0,congruent,0,8259.17894966244,3965.9609750929
10,104,1,18,0.5,0.5,0,2,NaN,0.6,2,805,1,0,805,0,0,0.8,NaN,0.51662160650524,0.51662160650524,750,0,0,neutral,0,8852.7265562444,3844.9168940322
10,104,1,19,-0.5,-0.5,-0.5,1,1,0.4,1,799,1,0,799,1,0,0.4,1,0.462234858782506,0.462234858782506,750,1,0,congruent,0.1,5631.72430876331,3114.25720279713
10,104,1,20,0.5,0.5,0.5,3,4,0.4,3,655,1,1,655,1,0,0.4,NaN,-0.84304708656312,-0.84304708656312,750,0,0,incongruent,1,8306.24984761324,2941.94233206171
10,104,1,21,0.5,0.5,-0.5,2,2,0.6,2,790,1,0,790,0,0,0.6,NaN,0.380654737198404,0.380654737198404,750,1,0,congruent,0,11162.6503903788,2843.74872728648
10,104,1,22,-0.5,0.5,-0.5,3,3,0.4,3,896,1,0,896,0,0,0.6,0.6,1.34148728030005,1.34148728030005,750,1,0,congruent,0,2913.7378264452,10538.0500756539
10,104,1,23,-0.5,-0.5,-0.5,4,4,0.2,4,632,1,1,632,0,0,0.6,1,-1.05152961950027,-1.05152961950027,750,1,0,congruent,0,2139.32987596015,1487.37810338037
10,104,1,24,0.5,-0.5,-0.5,1,1,0.2,1,790,1,0,790,0,0,0.6,NaN,0.380654737198404,0.380654737198404,750,1,0,congruent,0,4302.174156377,2720.22207744701
10,104,1,25,-0.5,-0.5,-0.5,4,4,0.2,4,716,1,1,716,0,0,0.4,0.8,-0.290115151381987,-0.290115151381987,750,1,0,congruent,0,1567.74580797985,3358.65631936196
10,104,1,26,-0.5,-0.5,0,3,NaN,0.2,3,721,1,1,721,0,0,0,0.6,-0.244792861613041,-0.244792861613041,750,0,0,neutral,0,1959.28011687693,3864.24658345436
10,104,1,27,0.5,-0.5,-0.5,4,4,0.2,4,632,1,1,632,1,0,0,NaN,-1.05152961950027,-1.05152961950027,750,1,0,congruent,1,6454.83697971187,3412.39177534022
10,104,1,28,0.5,-0.5,0,3,NaN,0.2,3,797,1,0,797,0,0,0.4,NaN,0.444105942874928,0.444105942874928,750,0,0,neutral,0,1774.89755298945,2479.4284054995
10,104,1,29,-0.5,0.5,0.5,2,3,0.2,2,837,1,0,837,0,0,0.4,0.6,0.80668426102649,0.80668426102649,750,0,0,incongruent,0,2616.00408296322,1780.15432256707
10,104,1,30,0.5,-0.5,0.5,3,2,0.2,1,785,0,0,NaN,0,0,0.4,NaN,0.335332447429459,NaN,750,0,1,incongruent,0,15304.3010300288,2695.7078867213
10,104,1,31,0.5,0.5,-0.5,4,4,0.2,4,633,1,1,633,1,0,0.4,NaN,-1.04246516154648,-1.04246516154648,750,1,0,congruent,1,1100.70763464698,4387.70205703782
10,104,1,32,-0.5,-0.5,0,1,NaN,0.4,1,741,1,1,741,0,0,0.8,0.4,-0.06350370253726,-0.06350370253726,750,0,0,neutral,0,4367.39154804655,2603.22581783548
10,104,1,33,-0.5,0.5,0.5,3,4,0.4,3,810,1,0,810,0,0,0.4,0.4,0.561943896274186,0.561943896274186,750,0,0,incongruent,0,3536.6991945191,7934.47212479748
10,104,1,34,-0.5,-0.5,0.5,4,3,0.2,4,693,1,1,693,0,0,0.4,0.2,-0.498597684319135,-0.498597684319135,750,0,0,incongruent,0,7092.14201277331,1362.44638441611
10,104,1,35,0.5,-0.5,0,1,NaN,0.2,1,930,1,0,930,0,0,0.4,NaN,1.64967885072887,1.64967885072887,750,0,0,neutral,0,2550.55064201446,5175.52123562508
10,104,1,38,0.5,0.5,-0.5,4,4,0.2,4,763,1,0,763,0,0,0.4,NaN,0.135914372446099,0.135914372446099,750,1,0,congruent,0,4213.36851285865,6204.52622722737
10,104,1,42,0.5,0.5,-0.5,4,4,0.4,4,679,1,1,679,1,0,0.8,NaN,-0.625500095672182,-0.625500095672182,750,1,0,congruent,1,1785.21717788952,1390.46441571573
10,104,1,43,0.5,0.5,-0.5,1,1,0.6,1,853,1,0,853,0,0,0.8,NaN,0.951715588287115,0.951715588287115,750,1,0,congruent,0,3412.0125163458,4167.10779262439
10,104,1,44,-0.5,0.5,0,4,NaN,0.4,4,711,1,1,711,1,0,0.8,0.2,-0.335437441150932,-0.335437441150932,750,0,0,neutral,0.1,997.648095264426,1457.36009153064
10,104,1,45,0.5,0.5,-0.5,1,1,0.6,1,784,1,0,784,0,0,1,NaN,0.32626798947567,0.32626798947567,750,1,0,congruent,0,6551.13496441383,1738.99054745126
10,104,1,46,-0.5,-0.5,0.5,2,4,0.6,4,799,0,0,NaN,1,0,1,0,0.462234858782506,NaN,750,1,0,incongruent,0.1,2061.42753309311,5886.49647610302
10,104,1,47,-0.5,-0.5,-0.5,1,1,0.6,1,835,1,0,835,0,0,0.8,0.2,0.788555345118912,0.788555345118912,750,1,0,congruent,0,1969.29295729639,3031.45398995487
10,104,1,48,-0.5,0.5,-0.5,2,2,0.6,2,781,1,0,781,0,0,0.4,0.2,0.299074615614303,0.299074615614303,750,1,0,congruent,0,6858.40633944351,2838.99711032557
10,104,1,49,-0.5,-0.5,0.5,4,3,0.4,4,750,1,1,750,1,0,0.4,0.2,0.0180764190468416,0.0180764190468416,750,0,0,incongruent,0.1,3010.36701619473,3054.26598154536
10,104,1,50,0.5,-0.5,0.5,3,1,0.4,3,843,1,0,843,0,0,0.4,NaN,0.861071008749225,0.861071008749225,750,0,0,incongruent,0,1079.78732800266,4249.62574814734
10,104,1,51,-0.5,0.5,-0.5,4,4,0.4,4,712,1,1,712,1,0,0.4,0.2,-0.326372983197143,-0.326372983197143,750,1,0,congruent,0.1,2074.7809111278,4416.61198067427
10,104,1,52,-0.5,0.5,0,3,NaN,0.4,3,795,1,0,795,0,0,0.4,0.4,0.42597702696735,0.42597702696735,750,0,0,neutral,0,5913.27605805991,4087.10429890431
10,104,1,53,0.5,0.5,-0.5,2,2,0.4,2,675,1,1,675,1,0,0.4,NaN,-0.661757927487338,-0.661757927487338,750,1,0,congruent,1,2878.39945483484,6895.69845244317
10,104,1,54,-0.5,0.5,-0.5,3,3,0.4,3,762,1,0,762,0,0,0.8,0.4,0.12684991449231,0.12684991449231,750,1,0,congruent,0,6554.41203388379,9118.4087769979
10,104,1,55,0.5,0.5,-0.5,1,1,0.4,1,755,1,0,755,0,0,0.6,NaN,0.0633987088157869,0.0633987088157869,750,1,0,congruent,0,6933.72536737032,2523.89786767544
10,104,1,56,0.5,0.5,0,3,NaN,0.4,4,882,0,0,NaN,0,0,0.6,NaN,1.214584868947,NaN,750,0,1,neutral,0,1711.04266476798,5655.68258092788
10,104,1,57,0.5,-0.5,-0.5,2,2,0.2,2,654,1,1,654,1,0,0.4,NaN,-0.852111544516909,-0.852111544516909,750,1,0,congruent,1,2060.51518623775,1752.86741407872
10,104,1,58,0.5,0.5,0,3,NaN,0.2,3,767,1,0,767,0,0,0.8,NaN,0.172172204261256,0.172172204261256,750,0,0,neutral,0,13320.8111257447,3340.99000675933
10,104,1,59,0.5,-0.5,-0.5,1,1,0.2,1,739,1,1,739,0,0,0.4,NaN,-0.0816326184448381,-0.0816326184448381,750,1,0,congruent,0,4424.46044755624,4224.15685430974
10,104,1,60,0.5,-0.5,0.5,4,2,0.2,2,865,0,0,NaN,0,0,0.4,NaN,1.06048908373258,NaN,750,1,0,incongruent,0,4749.36516621139,3114.58789736715
10,104,1,61,-0.5,-0.5,0,3,NaN,0.2,3,671,1,1,671,0,0,0.4,0.4,-0.698015759302494,-0.698015759302494,750,0,0,neutral,0,5983.76579580402,3221.98120405699
10,104,1,62,-0.5,0.5,0.5,1,4,0.2,4,664,0,1,NaN,0,0,0.4,0.4,-0.761466964979018,NaN,750,1,0,incongruent,0,6354.98487941862,3793.54637325148
10,104,1,64,-0.5,0.5,-0.5,2,2,0,2,695,1,1,695,1,0,0,0.2,-0.480468768411557,-0.480468768411557,750,1,0,congruent,0.1,3147.87516075223,6233.35133944355
10,104,1,65,-0.5,0.5,0,3,NaN,0.2,3,634,1,1,634,1,0,0.2,0.2,-1.03340070359269,-1.03340070359269,750,0,0,neutral,0.1,5768.70885504724,629.116993139616
10,104,1,66,-0.5,-0.5,-0.5,1,1,0.4,2,745,0,1,NaN,0,0,0.4,0.4,-0.0272458707221037,NaN,750,0,1,congruent,0,1808.20335017545,4891.19962908595
10,104,1,67,0.5,0.5,0.5,4,3,0.4,4,837,1,0,837,0,0,0.4,NaN,0.80668426102649,0.80668426102649,750,0,0,incongruent,0,1237.392247819,5732.21481231916
10,104,1,68,-0.5,0.5,0,1,NaN,0.4,1,754,1,0,754,0,0,0.4,0.4,0.0543342508619979,0.0543342508619979,750,0,0,neutral,0,1203.2160538006,1618.36940328523
10,104,1,69,-0.5,0.5,-0.5,3,3,0.4,3,597,1,1,597,1,0,0.4,0.4,-1.36878564788289,-1.36878564788289,750,1,0,congruent,0.1,1550.57141358852,1506.04771801075
10,104,1,70,0.5,0.5,0.5,1,4,0.6,4,647,0,1,NaN,0,0,0.4,NaN,-0.915562750193432,NaN,750,1,0,incongruent,0,3069.45541455732,5040.79071711796
10,104,1,71,0.5,-0.5,0.5,4,3,0.4,4,726,1,1,726,1,0,0.2,NaN,-0.199470571844096,-0.199470571844096,750,0,0,incongruent,1,4161.26123601218,8927.14561735796
10,104,1,72,-0.5,-0.5,0.5,2,1,0.4,1,849,0,0,NaN,1,0,0.6,0.4,0.915457756471959,NaN,750,1,0,incongruent,0.1,5794.93540462529,4895.06966380933
10,104,1,74,-0.5,0.5,0,2,NaN,0.2,2,748,1,1,748,1,0,0.8,0.6,-5.24968607364967e-05,-5.24968607364967e-05,750,0,0,neutral,0.1,3719.41577354134,4859.5371237906
10,104,1,75,0.5,0.5,0.5,4,1,0.4,4,854,1,0,854,0,0,0.8,NaN,0.960780046240904,0.960780046240904,750,0,0,incongruent,0,1958.27322663608,4414.99385466745
10,104,1,76,-0.5,-0.5,0,1,NaN,0.4,1,817,1,0,817,1,0,0.8,0.4,0.625395101950709,0.625395101950709,750,0,0,neutral,0.1,1271.92381688027,1034.71696443077
10,104,1,77,-0.5,-0.5,0.5,3,1,0.4,2,938,0,0,NaN,0,0,0.6,0.6,1.72219451435919,NaN,750,0,1,incongruent,0,784.450978129507,5136.3517939501
10,104,1,78,-0.5,-0.5,0.5,4,3,0.4,4,590,1,1,590,0,0,0.4,0.4,-1.43223685355941,-1.43223685355941,750,0,0,incongruent,0,6185.4603456124,4905.94697141542
10,104,1,79,-0.5,0.5,0.5,1,4,0.4,4,748,0,1,NaN,0,0,0.4,0.6,-5.24968607364967e-05,NaN,750,1,0,incongruent,0,2382.59666456339,4266.10642634451
10,104,1,80,-0.5,0.5,-0.5,2,2,0.2,2,844,1,0,844,0,0,0.2,0.4,0.870135466703014,0.870135466703014,750,1,0,congruent,0,2796.27653115295,1733.05332447961
10,104,1,81,-0.5,0.5,0.5,3,4,0.2,3,883,1,0,883,0,0,0.2,0.4,1.22364932690079,1.22364932690079,750,0,0,incongruent,0,16406.435396347,963.694207688552
10,104,1,82,0.5,-0.5,0.5,2,1,0.2,1,738,0,1,NaN,1,0,0,NaN,-0.0906970763986271,NaN,750,1,0,incongruent,1,4248.18522356215,3107.78025111278
10,104,1,83,-0.5,0.5,-0.5,4,4,0.2,4,679,1,1,679,1,0,0.4,0.2,-0.625500095672182,-0.625500095672182,750,1,0,congruent,0.1,3482.03580314529,2792.26236203259
10,104,1,84,0.5,-0.5,-0.5,3,3,0.2,3,701,1,1,701,0,0,0.6,NaN,-0.426082020688823,-0.426082020688823,750,1,0,congruent,0,1640.03850830455,1001.19850819306
10,104,1,85,0.5,-0.5,0.5,2,1,0.2,2,631,1,1,631,1,0,0.6,NaN,-1.06059407745406,-1.06059407745406,750,0,0,incongruent,1,3196.15968680927,3945.59163645439
10,104,1,86,-0.5,0.5,-0.5,3,3,0.2,3,805,1,0,805,0,0,1,0.4,0.51662160650524,0.51662160650524,750,1,0,congruent,0,9705.68337235106,9146.56727439511
10,104,1,87,-0.5,0.5,0.5,1,4,0.2,4,800,0,0,NaN,0,0,1,0.2,0.471299316736295,NaN,750,1,0,incongruent,0,4211.65351378322,1088.54420962541
10,104,1,88,0.5,-0.5,0.5,4,3,0.2,4,662,1,1,662,1,0,0.6,NaN,-0.779595880886596,-0.779595880886596,750,0,0,incongruent,1,3788.33040685205,3911.14356830156
10,104,1,89,0.5,-0.5,0,2,NaN,0.2,2,702,1,1,702,0,0,0.8,NaN,-0.417017562735033,-0.417017562735033,750,0,0,neutral,0,2150.26889876175,1520.77806480637
10,104,1,90,-0.5,0.5,-0.5,4,4,0.2,4,606,1,1,606,1,0,0.8,0.2,-1.28720552629878,-1.28720552629878,750,1,0,congruent,0.1,2262.93177324367,2070.38363617273
10,104,1,91,0.5,-0.5,0,2,NaN,0.4,2,662,1,1,662,1,0,0.6,NaN,-0.779595880886596,-0.779595880886596,750,0,0,neutral,1,3367.86794682244,300.005886371561
10,104,1,92,-0.5,-0.5,0.5,1,2,0.4,1,931,1,0,931,0,0,1,0.4,1.65874330868266,1.65874330868266,750,0,0,incongruent,0,1954.27002342293,2824.36708519746
10,104,1,93,0.5,0.5,-0.5,3,3,0.4,3,698,1,1,698,1,0,1,NaN,-0.45327539455019,-0.45327539455019,750,1,0,congruent,1,1398.10269484962,6848.15253303835
10,104,1,94,-0.5,0.5,0,4,NaN,0.6,2,597,0,1,NaN,0,0,1,0.4,-1.36878564788289,NaN,750,0,1,neutral,0,5970.80343550952,1694.91366187386
10,104,1,95,-0.5,0.5,0.5,1,4,0.4,4,584,0,1,NaN,0,0,1,0.4,-1.48662360128214,NaN,750,1,0,incongruent,0,2975.1056922935,2121.95352772479
10,104,1,96,0.5,-0.5,0,4,NaN,0.4,4,692,1,1,692,0,0,0.8,NaN,-0.507662142272924,-0.507662142272924,750,0,0,neutral,0,2996.04002429024,3708.19119213606
10,104,1,97,-0.5,-0.5,0.5,3,2,0.4,2,867,0,0,NaN,0,0,0.4,0.4,1.07861799964016,NaN,750,1,0,incongruent,0,3256.54652021801,3271.70717348524
10,104,1,99,-0.5,-0.5,-0.5,1,1,0.4,1,762,1,0,762,1,0,0,0,0.12684991449231,0.12684991449231,750,1,0,congruent,0.1,2199.55834918676,3557.74147580324
10,104,1,100,0.5,0.5,0,4,NaN,0.4,4,926,1,0,926,0,0,0.2,NaN,1.61342101891372,1.61342101891372,750,0,0,neutral,0,3641.05905214427,2900.48478931491
10,104,1,101,-0.5,0.5,-0.5,1,1,0.4,1,739,1,1,739,1,0,0.2,0.2,-0.0816326184448381,-0.0816326184448381,750,1,0,congruent,0.1,2457.99610429412,2974.59635852905
10,104,1,102,-0.5,-0.5,-0.5,4,4,0.4,4,625,1,1,625,0,0,0.4,0.2,-1.11498082517679,-1.11498082517679,750,1,0,congruent,0,5050.48393553976,3407.13188891662
10,104,1,103,0.5,-0.5,-0.5,1,1,0.4,1,780,1,0,780,1,0,0.4,NaN,0.290010157660514,0.290010157660514,750,1,0,congruent,1,3298.06171598457,1156.62070518391
10,104,1,104,0.5,0.5,0,4,NaN,0.4,4,735,1,1,735,1,0,0.8,NaN,-0.117890450259994,-0.117890450259994,750,0,0,neutral,1,968.409590969967,3133.98189513441
10,104,1,105,-0.5,-0.5,-0.5,3,3,0.4,3,705,1,1,705,0,0,1,0.2,-0.389824188873666,-0.389824188873666,750,1,0,congruent,0,2443.83687661093,2436.78263042276
10,104,1,106,0.5,0.5,0,2,NaN,0.4,2,657,1,1,657,1,0,1,NaN,-0.824918170655541,-0.824918170655541,750,0,0,neutral,1,6431.10395341632,1988.09826937314
10,104,1,107,-0.5,0.5,-0.5,3,3,0.6,4,772,0,0,NaN,0,0,1.2,0.4,0.217494494030201,NaN,750,0,1,congruent,0,6560.29829640441,2416.15501879964
10,104,1,110,0.5,-0.5,-0.5,1,1,0.8,1,687,1,1,687,0,0,1,NaN,-0.552984432041869,-0.552984432041869,750,1,0,congruent,0,6586.50239718422,2863.41370634911
10,104,1,111,0.5,0.5,0,2,NaN,0.8,2,947,1,0,947,0,0,1,NaN,1.80377463594329,1.80377463594329,750,0,0,neutral,0,3323.72702034531,930.079418531598
10,104,1,113,0.5,-0.5,-0.5,2,2,0.4,2,638,1,1,638,1,0,0.6,NaN,-0.997142871777534,-0.997142871777534,750,1,0,congruent,1,2295.31377899868,4150.43698183957
10,104,1,114,0.5,-0.5,0,3,NaN,0.4,3,757,1,0,757,0,0,0.6,NaN,0.0815276247233651,0.0815276247233651,750,0,0,neutral,0,3002.68991681094,4162.71082085332
10,104,1,115,0.5,0.5,-0.5,1,1,0.4,1,772,1,0,772,0,0,0.4,NaN,0.217494494030201,0.217494494030201,750,1,0,congruent,0,1805.61761931378,5489.79359820623
10,104,1,116,-0.5,0.5,0,2,NaN,0.2,2,882,1,0,882,0,0,0.4,0.4,1.214584868947,1.214584868947,750,0,0,neutral,0,4556.30740783781,3643.52274379652
10,104,1,118,-0.5,-0.5,0,3,NaN,0,1,784,0,0,NaN,0,0,0.4,0.2,0.32626798947567,NaN,750,0,1,neutral,0,5294.63553147075,3512.04800472397
10,104,1,119,-0.5,0.5,0.5,2,3,0,2,783,1,0,783,0,0,0,0.4,0.317203531521881,0.317203531521881,750,0,0,incongruent,0,4779.02121670855,507.949938377955
10,104,1,120,0.5,0.5,0.5,3,2,0,4,904,0,0,NaN,0,0,0,NaN,1.41400294393036,NaN,750,0,1,incongruent,0,2118.82192064738,4619.45911441119
10,104,1,121,0.5,-0.5,-0.5,4,4,0,4,702,1,1,702,0,0,0,NaN,-0.417017562735033,-0.417017562735033,750,1,0,congruent,0,1478.52054550219,5263.14871266882
10,104,1,123,-0.5,-0.5,-0.5,4,4,0,4,617,1,1,617,0,0,0,0.2,-1.1874964888071,-1.1874964888071,750,1,0,congruent,0,4052.94321583337,4155.24296728644
10,104,1,124,0.5,-0.5,0.5,2,1,0,2,873,1,0,873,0,0,0,NaN,1.1330047473629,1.1330047473629,750,0,0,incongruent,0,7310.67246812726,4585.35491891923
10,104,1,125,-0.5,0.5,0.5,1,2,0,1,811,1,0,811,0,0,0,0.2,0.571008354227975,0.571008354227975,750,0,0,incongruent,0,2170.89121665494,4764.7133106191
10,104,1,126,-0.5,0.5,-0.5,4,4,0,4,712,1,1,712,1,0,0,0.2,-0.326372983197143,-0.326372983197143,750,1,0,congruent,0.1,842.67387422265,6884.46291757897
10,104,1,127,-0.5,-0.5,-0.5,3,3,0.2,3,595,1,1,595,0,0,0.2,0.2,-1.38691456379046,-1.38691456379046,750,1,0,congruent,0,1783.0110178331,3837.4573985487
10,104,1,128,-0.5,-0.5,0,2,NaN,0.2,2,854,1,0,854,0,0,0.2,0,0.960780046240904,0.960780046240904,750,0,0,neutral,0,4858.56143543354,2362.45095291744
10,104,1,129,-0.5,0.5,0.5,4,1,0.2,4,615,1,1,615,1,0,0.2,0.2,-1.20562540471468,-1.20562540471468,750,0,0,incongruent,0.1,8731.63015132054,4814.83616554774
10,104,1,130,0.5,-0.5,-0.5,2,2,0.4,2,717,1,1,717,1,0,0.4,NaN,-0.281050693428197,-0.281050693428197,750,1,0,congruent,1,6076.79730812847,1705.31578431472
10,104,1,131,-0.5,0.5,0.5,1,3,0.4,1,983,1,0,983,0,0,0.8,0.4,2.13009512227969,2.13009512227969,750,0,0,incongruent,0,2291.9993614711,1719.23281998414
10,104,1,132,-0.5,0.5,0,2,NaN,0.4,2,781,1,0,781,0,0,0.6,0.4,0.299074615614303,0.299074615614303,750,0,0,neutral,0,4751.08860555759,3644.91579349753
10,104,1,133,-0.5,0.5,-0.5,3,3,0.4,3,789,1,0,789,0,0,0.6,0.4,0.371590279244615,0.371590279244615,750,1,0,congruent,0,3140.8834267732,2931.70294511395
10,104,1,134,0.5,0.5,0,4,NaN,0.4,4,716,1,1,716,1,0,0.6,NaN,-0.290115151381987,-0.290115151381987,750,0,0,neutral,1,3831.69647610587,3027.17038949124
10,104,1,135,-0.5,0.5,0.5,1,3,0.4,2,882,0,0,NaN,0,0,0.8,0.4,1.214584868947,NaN,750,0,1,incongruent,0,1435.51303867234,2142.98459105132
10,104,1,137,-0.5,0.5,0.5,2,3,0.2,2,870,1,0,870,0,0,0.4,0.2,1.10581137350153,1.10581137350153,750,0,0,incongruent,0,10663.6289390742,2587.26511005716
10,104,1,138,0.5,0.5,-0.5,4,4,0.2,4,586,1,1,586,1,0,0.4,NaN,-1.46849468537457,-1.46849468537457,750,1,0,congruent,1,1971.12287340084,5256.97302731871
10,104,1,139,-0.5,0.5,0.5,1,2,0.4,1,869,1,0,869,0,0,0.8,0,1.09674691554774,1.09674691554774,750,0,0,incongruent,0,1568.23850463714,1699.56198677979
10,104,1,140,0.5,0.5,0,2,NaN,0.4,2,653,1,1,653,1,0,0.4,NaN,-0.861176002470698,-0.861176002470698,750,0,0,neutral,1,1088.46772147359,1683.97967247361
10,104,1,141,-0.5,-0.5,0.5,4,2,0.4,4,752,1,0,752,1,0,0.8,0,0.0362053349544198,0.0362053349544198,750,0,0,incongruent,0.1,2465.26804748106,4468.47350273953
10,104,1,142,-0.5,-0.5,0,2,NaN,0.4,2,717,1,1,717,0,0,1,0.2,-0.281050693428197,-0.281050693428197,750,0,0,neutral,0,3041.34177895364,9762.22208834061
10,104,1,143,-0.5,0.5,-0.5,1,1,0.4,2,856,0,0,NaN,0,0,1,0,0.978908962148482,NaN,750,0,1,congruent,0,2188.97480710887,4344.19746085573
10,104,1,144,0.5,-0.5,-0.5,2,2,0.4,1,931,0,0,NaN,1,0,0.6,NaN,1.65874330868266,NaN,750,0,1,congruent,1,3191.60374291761,1129.95774662028
10,104,1,145,-0.5,0.5,0.5,3,1,0.4,3,954,1,0,954,0,0,1,0,1.86722584161981,1.86722584161981,750,0,0,incongruent,0,9606.98495505064,10526.7952677251
10,104,1,146,0.5,0.5,0.5,4,2,0.4,4,651,1,1,651,1,0,0.6,NaN,-0.879304918378276,-0.879304918378276,750,0,0,incongruent,1,714.421008445628,1953.34218449388
10,104,1,148,0.5,-0.5,0.5,4,1,0.4,4,666,1,1,666,1,0,1.2,NaN,-0.74333804907144,-0.74333804907144,750,0,0,incongruent,1,1419.82558701777,1171.30533127184
10,104,1,149,0.5,-0.5,0,1,NaN,0.4,1,662,1,1,662,0,0,1.6,NaN,-0.779595880886596,-0.779595880886596,750,0,0,neutral,0,2810.94841480082,3280.86311312918
10,104,1,150,0.5,0.5,-0.5,2,2,0.4,2,637,1,1,637,1,0,1.2,NaN,-1.00620732973132,-1.00620732973132,750,1,0,congruent,1,1598.64450625883,4536.80034206853
10,104,2,151,-0.5,0.5,-0.5,3,3,0.6,3,921,1,0,921,0,0,1.6,0,1.56809872914477,1.56809872914477,750,1,0,congruent,0,1309.65882828508,4260.76979207089
10,104,2,152,-0.5,0.5,0,2,NaN,0.4,2,646,1,1,646,1,0,1.2,0,-0.924627208147221,-0.924627208147221,750,0,0,neutral,0.1,7465.68017790396,4369.99263119377
10,104,2,153,0.5,0.5,0.5,4,1,0.6,4,678,1,1,678,1,0,1,NaN,-0.634564553625971,-0.634564553625971,750,0,0,incongruent,1,3116.73465085465,2838.03883879355
10,104,2,154,-0.5,-0.5,0,2,NaN,0.8,2,961,1,0,961,1,0,1,0.2,1.93067704729633,1.93067704729633,750,0,0,neutral,0.1,4128.29108442369,1745.43941404073
10,104,2,155,-0.5,-0.5,-0.5,3,3,0.8,3,876,1,0,876,0,0,1.2,0.4,1.16019812122426,1.16019812122426,750,1,0,congruent,0,1516.69829282677,3744.60713153445
10,104,2,156,-0.5,0.5,-0.5,2,2,0.8,2,793,1,0,793,0,0,0.8,0.2,0.407848111059771,0.407848111059771,750,1,0,congruent,0,4017.8862913422,2612.16203250841
10,104,2,158,0.5,0.5,0,2,NaN,0.4,2,725,1,1,725,1,0,0.6,NaN,-0.208535029797885,-0.208535029797885,750,0,0,neutral,1,4318.86745446769,4307.93754790621
10,104,2,159,0.5,0.5,-0.5,3,3,0.6,3,583,1,1,583,1,0,0.6,NaN,-1.49568805923593,-1.49568805923593,750,1,0,congruent,1,478.88672340399,6809.57246012604
10,104,2,160,-0.5,-0.5,-0.5,4,4,0.6,4,553,1,1,553,1,0,0.8,0.4,-1.7676217978496,-1.7676217978496,750,1,0,congruent,0.1,749.508228588977,4659.06057713115
10,104,2,161,-0.5,-0.5,0.5,3,1,0.6,3,999,1,0,999,1,0,1,0.6,2.27512644954032,2.27512644954032,750,0,0,incongruent,0.1,1490.19866295063,3206.7222305509
10,104,2,163,-0.5,-0.5,-0.5,2,2,0.4,2,663,1,1,663,0,0,1.2,0.6,-0.770531422932807,-0.770531422932807,750,1,0,congruent,0,1181.42174859355,3935.55069805208
10,104,2,164,-0.5,-0.5,0,4,NaN,0.4,4,587,1,1,587,0,0,0.8,0.6,-1.45943022742078,-1.45943022742078,750,0,0,neutral,0,2811.80372783192,999.580286829113
10,104,2,165,-0.5,-0.5,0.5,2,4,0.4,3,886,0,0,NaN,1,0,0.4,0.4,1.25084270076215,NaN,750,0,1,incongruent,0.1,9696.23955262725,1709.84709619655
10,104,2,166,-0.5,0.5,0.5,4,1,0.4,4,675,1,1,675,1,0,0.4,0.2,-0.661757927487338,-0.661757927487338,750,0,0,incongruent,0.1,9803.2888411577,4634.53107955703
10,104,2,167,-0.5,0.5,-0.5,3,3,0.6,3,701,1,1,701,1,0,0.4,0.4,-0.426082020688823,-0.426082020688823,750,1,0,congruent,0.1,1109.41807869224,952.27313803109
10,104,2,168,0.5,0.5,0,2,NaN,0.8,2,869,1,0,869,0,0,0.6,NaN,1.09674691554774,1.09674691554774,750,0,0,neutral,0,8873.14058650133,2792.65870549495
10,104,2,169,0.5,0.5,-0.5,3,3,0.6,3,686,1,1,686,1,0,0.6,NaN,-0.562048889995658,-0.562048889995658,750,1,0,congruent,1,4493.44370231968,8010.83766780774
10,104,2,170,0.5,-0.5,0,2,NaN,0.6,2,762,1,0,762,0,0,1,NaN,0.12684991449231,0.12684991449231,750,0,0,neutral,0,1294.1684073941,4580.77580349715
10,104,2,171,-0.5,-0.5,-0.5,4,4,0.6,4,585,1,1,585,1,0,0.8,0.6,-1.47755914332835,-1.47755914332835,750,1,0,congruent,0.1,2768.53749640221,5040.6853393545
10,104,2,172,0.5,-0.5,-0.5,2,2,0.6,2,805,1,0,805,0,0,0.8,NaN,0.51662160650524,0.51662160650524,750,1,0,congruent,0,1393.72961614783,2318.82451972742
10,104,2,173,-0.5,0.5,-0.5,3,3,0.6,3,827,1,0,827,0,0,0.6,0.6,0.7160396814886,0.7160396814886,750,1,0,congruent,0,1591.04077183889,4345.81707208952
10,104,2,174,0.5,0.5,0,1,NaN,0.6,1,775,1,0,775,0,0,0.6,NaN,0.244687867891568,0.244687867891568,750,0,0,neutral,0,2869.52421186265,2292.31163607797
10,104,2,175,-0.5,-0.5,-0.5,2,2,0.4,3,643,0,1,NaN,0,0,0.2,0.6,-0.951820582008588,NaN,750,0,1,congruent,0,11717.4597361308,1317.7316579273
10,104,2,177,-0.5,-0.5,-0.5,3,3,0.2,3,849,1,0,849,0,0,0,0.4,0.915457756471959,0.915457756471959,750,1,0,congruent,0,10546.0210219528,4220.17511803041
10,104,2,178,-0.5,-0.5,-0.5,2,2,0.2,2,690,1,1,690,1,0,0,0.4,-0.525791058180502,-0.525791058180502,750,1,0,congruent,0.1,7579.89200800785,3005.22525610182
10,104,2,179,-0.5,-0.5,0.5,3,4,0.2,3,812,1,0,812,0,0,0.2,0.6,0.580072812181764,0.580072812181764,750,0,0,incongruent,0,379.316289851248,9111.45864617232
10,104,2,180,-0.5,0.5,0,4,NaN,0.2,4,693,1,1,693,1,0,0.2,0.4,-0.498597684319135,-0.498597684319135,750,0,0,neutral,0.1,2556.8969025913,2583.86817293218
10,104,2,181,-0.5,-0.5,0.5,1,2,0.4,1,796,1,0,796,0,0,0.4,0.4,0.435041484921139,0.435041484921139,750,0,0,incongruent,0,2261.04253253699,1234.17929174086
10,104,2,182,0.5,-0.5,-0.5,4,4,0.4,4,634,1,1,634,0,0,0.4,NaN,-1.03340070359269,-1.03340070359269,750,1,0,congruent,0,1432.7826084337,958.531805300977
10,104,2,183,0.5,0.5,0.5,3,2,0.4,3,812,1,0,812,0,0,0.4,NaN,0.580072812181764,0.580072812181764,750,0,0,incongruent,0,4306.32557943009,3422.27823688872
10,104,2,184,0.5,0.5,0.5,2,1,0.2,2,821,1,0,821,0,0,0.2,NaN,0.661652933765865,0.661652933765865,750,0,0,incongruent,0,8285.06168223901,3855.35619595275
10,104,2,185,-0.5,0.5,-0.5,3,3,0.2,3,660,1,1,660,1,0,0.2,0.6,-0.797724796794174,-0.797724796794174,750,1,0,congruent,0.1,3841.09556721199,5933.27311799032
10,104,2,186,0.5,0.5,0,4,NaN,0.4,4,636,1,1,636,1,0,0.2,NaN,-1.01527178768511,-1.01527178768511,750,0,0,neutral,1,2248.87341225913,3572.8547454344
10,104,2,187,-0.5,0.5,-0.5,1,1,0.6,1,729,1,1,729,1,0,0.6,0.6,-0.172277197982729,-0.172277197982729,750,1,0,congruent,0.1,9637.5872854094,918.285408996909
10,104,2,188,-0.5,0.5,0,2,NaN,0.6,2,610,1,1,610,1,0,0.8,0.6,-1.25094769448363,-1.25094769448363,750,0,0,neutral,0.1,1964.81117905845,4221.72650911939
10,104,2,189,0.5,-0.5,-0.5,3,3,0.8,3,728,1,1,728,1,0,1,NaN,-0.181341655936518,-0.181341655936518,750,1,0,congruent,1,5159.3845911829,1755.59034354965
10,104,2,190,0.5,0.5,0.5,2,1,0.8,1,813,0,0,NaN,0,0,1.4,NaN,0.589137270135553,NaN,750,1,0,incongruent,0,2008.88478684342,1266.08197699736
10,104,2,191,0.5,0.5,-0.5,4,4,0.8,4,652,1,1,652,1,0,1.2,NaN,-0.870240460424487,-0.870240460424487,750,1,0,congruent,1,1304.34716636132,2068.91485128935
10,104,2,192,0.5,-0.5,0.5,3,1,0.8,3,698,1,1,698,1,0,1.2,NaN,-0.45327539455019,-0.45327539455019,750,0,0,incongruent,1,4299.03214403103,2416.00039544286
10,104,2,193,0.5,-0.5,-0.5,4,4,0.8,4,650,1,1,650,1,0,1.4,NaN,-0.888369376332065,-0.888369376332065,750,1,0,congruent,1,1548.36694605221,5270.31673850579
10,104,2,194,0.5,-0.5,0,1,NaN,0.8,1,847,1,0,847,1,0,1.6,NaN,0.897328840564381,0.897328840564381,750,0,0,neutral,1,1877.68167712096,1047.99198336613
10,104,2,195,0.5,0.5,-0.5,2,2,0.8,2,703,1,1,703,1,0,1.6,NaN,-0.407953104781244,-0.407953104781244,750,1,0,congruent,1,2477.85458253851,1173.12674891029
10,104,2,198,0.5,0.5,0.5,3,4,0.4,3,830,1,0,830,0,0,1.2,NaN,0.743233055349967,0.743233055349967,750,0,0,incongruent,0,1750.02496581336,1821.79529583527
10,104,2,199,0.5,-0.5,-0.5,1,1,0.4,1,928,1,0,928,0,0,0.8,NaN,1.6315499348213,1.6315499348213,750,1,0,congruent,0,3677.9159799562,2916.98114496274
10,104,2,200,-0.5,0.5,0,3,NaN,0.4,3,806,1,0,806,0,0,0.4,0.8,0.525686064459029,0.525686064459029,750,0,0,neutral,0,5718.17429586021,2570.84421044507
10,104,2,201,-0.5,-0.5,0.5,1,2,0.2,1,873,1,0,873,0,0,0,0.2,1.1330047473629,1.1330047473629,750,0,0,incongruent,0,20277.7210485154,3999.28438286713
10,104,2,202,0.5,0.5,0.5,4,3,0.2,4,663,1,1,663,1,0,0,NaN,-0.770531422932807,-0.770531422932807,750,0,0,incongruent,1,2167.72263256899,2182.44122029184
10,104,2,203,-0.5,0.5,-0.5,2,2,0.2,2,722,1,1,722,1,0,0.4,0.6,-0.235728403659252,-0.235728403659252,750,1,0,congruent,0.1,1750.35161896198,2156.33796662824
10,104,2,204,-0.5,0.5,0,1,NaN,0.4,1,710,1,1,710,1,0,0.6,0.6,-0.344501899104721,-0.344501899104721,750,0,0,neutral,0.1,2351.41547290593,2756.69049943591
10,104,2,205,0.5,-0.5,-0.5,2,2,0.6,2,671,1,1,671,0,0,0.8,NaN,-0.698015759302494,-0.698015759302494,750,1,0,congruent,0,6544.1449963828,1411.56688140294
10,104,2,206,0.5,-0.5,-0.5,3,3,0.6,3,627,1,1,627,0,0,0.8,NaN,-1.09685190926921,-1.09685190926921,750,1,0,congruent,0,3568.43889352099,6479.19623670375
10,104,2,207,-0.5,0.5,0,2,NaN,0.6,2,731,1,1,731,1,0,0.8,0.6,-0.154148282075151,-0.154148282075151,750,0,0,neutral,0.1,5179.92217939728,1208.76690687339
10,104,2,208,0.5,0.5,-0.5,4,4,0.8,4,551,1,1,551,1,0,0.6,NaN,-1.78575071375718,-1.78575071375718,750,1,0,congruent,1,3450.50119676485,5435.35344110178
10,104,2,210,0.5,0.5,-0.5,1,1,1,1,696,1,1,696,1,0,1,NaN,-0.471404310457768,-0.471404310457768,750,1,0,congruent,1,3579.92199325435,3588.72824815983
10,104,2,211,-0.5,-0.5,0,2,NaN,1,2,911,1,0,911,1,0,1.4,0.2,1.47745414960688,1.47745414960688,750,0,0,neutral,0.1,2559.26420215412,2787.61886412927
10,104,2,212,-0.5,0.5,0.5,1,2,1,1,948,1,0,948,0,0,1.6,0.6,1.81283909389708,1.81283909389708,750,0,0,incongruent,0,1955.71655359923,7177.80895033692
10,104,2,213,-0.5,-0.5,-0.5,3,3,0.8,3,628,1,1,628,1,0,1.4,0.4,-1.08778745131542,-1.08778745131542,750,1,0,congruent,0.1,3472.55013010914,6103.79736259608
10,104,2,215,0.5,0.5,0,4,NaN,0.6,4,672,1,1,672,1,0,0.8,NaN,-0.688951301348705,-0.688951301348705,750,0,0,neutral,1,3380.7869462333,1558.4123043254
10,104,2,216,-0.5,0.5,-0.5,1,1,0.6,1,733,1,1,733,1,0,0.8,0.6,-0.136019366167572,-0.136019366167572,750,1,0,congruent,0.1,1171.52978096615,3727.14372394033
10,104,2,217,-0.5,0.5,0.5,4,3,0.6,4,658,1,1,658,1,0,0.8,0.8,-0.815853712701752,-0.815853712701752,750,0,0,incongruent,0.1,637.232259230728,2819.07146343976
10,104,2,218,0.5,0.5,0,2,NaN,0.6,3,809,0,0,NaN,0,0,1,NaN,0.552879438320396,NaN,750,0,1,neutral,0,2986.00241270458,683.433171057566
10,104,2,219,0.5,0.5,0.5,1,4,0.6,4,740,0,1,NaN,0,0,0.8,NaN,-0.072568160491049,NaN,750,1,0,incongruent,0,6850.25847620317,5345.40750633378
10,104,2,220,-0.5,0.5,0.5,4,1,0.6,4,588,1,1,588,1,0,0.8,0.8,-1.45036576946699,-1.45036576946699,750,0,0,incongruent,0.1,4000.11610613172,2757.18335218454
10,104,2,222,0.5,-0.5,0,2,NaN,0.6,2,790,1,0,790,0,0,0.6,NaN,0.380654737198404,0.380654737198404,750,0,0,neutral,0,1394.53581209274,10419.6234679666
10,104,2,223,-0.5,0.5,-0.5,3,3,0.6,3,758,1,0,758,0,0,0.4,0.8,0.0905920826771542,0.0905920826771542,750,1,0,congruent,0,1793.12276458616,3057.33181187799
10,104,2,224,0.5,0.5,0,2,NaN,0.4,3,727,0,1,NaN,0,0,0.4,NaN,-0.190406113890307,NaN,750,0,1,neutral,0,5626.95241814373,3873.78233509071
10,104,2,225,0.5,-0.5,-0.5,4,4,0.2,4,605,1,1,605,0,0,0.4,NaN,-1.29626998425257,-1.29626998425257,750,1,0,congruent,0,6425.31055284505,2937.49714418601
10,104,2,226,0.5,0.5,-0.5,2,2,0.2,2,678,1,1,678,1,0,0.2,NaN,-0.634564553625971,-0.634564553625971,750,1,0,congruent,1,1518.37976194749,9410.15712097494
10,104,2,227,-0.5,-0.5,-0.5,1,1,0.4,1,771,1,0,771,1,0,0.4,0.6,0.208430036076412,0.208430036076412,750,1,0,congruent,0.1,1422.59960387648,6997.24084463404
10,104,2,228,0.5,-0.5,-0.5,3,3,0.4,4,782,0,0,NaN,0,0,0.6,NaN,0.308139073568092,NaN,750,0,1,congruent,0,2695.29123382859,6508.13012649762
10,104,2,230,0.5,0.5,0,2,NaN,0.4,2,552,1,1,552,1,0,0.8,NaN,-1.77668625580339,-1.77668625580339,750,0,0,neutral,1,2995.41719184603,1208.79398269512
10,104,2,232,0.5,-0.5,0.5,3,4,0.6,4,736,0,1,NaN,1,0,0.8,NaN,-0.108825992306205,NaN,750,1,0,incongruent,1,7488.70086477516,2580.05356599365
10,104,2,233,-0.5,0.5,0,1,NaN,0.6,1,646,1,1,646,1,0,1,0.6,-0.924627208147221,-0.924627208147221,750,0,0,neutral,0.1,2372.55847010419,2425.67198548255
10,104,2,234,-0.5,0.5,-0.5,3,3,0.6,4,633,0,1,NaN,0,0,1.2,0.8,-1.04246516154648,NaN,750,0,1,congruent,0,6271.47337305386,4682.62928102571
10,104,2,238,0.5,-0.5,-0.5,3,3,0.2,4,623,0,1,NaN,1,0,0.2,NaN,-1.13310974108437,NaN,750,0,1,congruent,1,2028.64213760188,1924.86798782577
10,104,2,239,-0.5,-0.5,-0.5,1,1,0.2,1,687,1,1,687,0,0,0.4,1,-0.552984432041869,-0.552984432041869,750,1,0,congruent,0,3622.54352024979,1716.13532962713
10,104,2,241,-0.5,-0.5,-0.5,3,3,0,4,571,0,1,NaN,0,0,0.4,0.8,-1.6044615546814,NaN,750,0,1,congruent,0,746.757063054931,5712.61677582425
10,104,2,242,-0.5,-0.5,0,1,NaN,0,2,965,0,0,NaN,0,0,0.4,0.6,1.96693487911149,NaN,750,0,1,neutral,0,1468.6441385278,1936.60311397885
10,104,2,243,0.5,-0.5,0.5,2,1,0,2,624,1,1,624,0,0,0.4,NaN,-1.12404528313058,-1.12404528313058,750,0,0,incongruent,0,1637.35085114269,13065.8880434955
10,104,2,245,-0.5,-0.5,-0.5,1,1,0,1,645,1,1,645,0,0,0,0.2,-0.93369166610101,-0.93369166610101,750,1,0,congruent,0,4749.02464384718,1292.06375536543
10,104,2,247,-0.5,-0.5,-0.5,2,2,0,2,620,1,1,620,0,0,0,0,-1.16030311494574,-1.16030311494574,750,1,0,congruent,0,3808.66914663787,2433.03368902153
10,104,2,248,0.5,0.5,0.5,1,4,0,1,780,1,0,780,0,0,0,NaN,0.290010157660514,0.290010157660514,750,0,0,incongruent,0,1447.52741036888,3140.04212523099
10,104,2,249,0.5,0.5,-0.5,3,3,0,4,615,0,1,NaN,0,0,0,NaN,-1.20562540471468,NaN,750,0,1,congruent,0,10616.6927600901,3294.06903738421
10,104,2,251,0.5,-0.5,-0.5,2,2,0,2,641,1,1,641,0,0,0,NaN,-0.969949497916166,-0.969949497916166,750,1,0,congruent,0,3150.67345346591,3658.43262413544
10,104,2,252,-0.5,0.5,0.5,3,4,0,4,859,0,0,NaN,0,0,0,0.2,1.00610233600985,NaN,750,1,0,incongruent,0,4789.47537776482,3462.0380869599
10,104,2,253,-0.5,0.5,0.5,1,2,0,1,793,1,0,793,0,0,0,0.2,0.407848111059771,0.407848111059771,750,0,0,incongruent,0,2973.46281725005,3883.25036006286
10,104,2,255,0.5,-0.5,-0.5,1,1,0,1,821,1,0,821,0,0,0,NaN,0.661652933765865,0.661652933765865,750,1,0,congruent,0,1094.1464877542,2987.79714062561
10,104,2,256,-0.5,-0.5,0,2,NaN,0,2,479,1,1,479,0,0,0,0,-2.43839168642999,-2.43839168642999,750,0,0,neutral,0,2263.97536618074,5509.01676243491
10,104,2,258,-0.5,0.5,0.5,3,2,0,4,661,0,1,NaN,0,0,0,0,-0.788660338840385,NaN,750,0,1,incongruent,0,5516.40322738377,1907.24337857982
10,104,2,260,0.5,-0.5,0,3,NaN,0,4,750,0,1,NaN,0,0,0,NaN,0.0180764190468416,NaN,750,0,1,neutral,0,17736.8163436644,4393.30159855202
10,104,2,262,-0.5,-0.5,0.5,2,3,0,1,857,0,0,NaN,0,0,0,0,0.987973420102272,NaN,750,0,1,incongruent,0,2217.30970440478,6437.4965541326
10,104,2,263,-0.5,0.5,0,1,NaN,0,2,854,0,0,NaN,0,0,0,0,0.960780046240904,NaN,750,0,1,neutral,0,5969.99303433183,6037.52389795635
10,104,2,264,-0.5,0.5,-0.5,3,3,0,4,727,0,1,NaN,0,0,0,0,-0.190406113890307,NaN,750,0,1,congruent,0,3017.21202937057,8533.24906419612
10,104,2,265,0.5,0.5,0,2,NaN,0,2,749,1,1,749,1,0,0,NaN,0.00901196109305257,0.00901196109305257,750,0,0,neutral,1,1322.74439375822,2862.02231449756
10,104,2,266,0.5,0.5,-0.5,3,3,0.2,4,749,0,1,NaN,0,0,0.4,NaN,0.00901196109305257,NaN,750,0,1,congruent,0,4990.96371576018,5746.39727312168
10,104,2,268,0.5,0.5,-0.5,2,2,0.2,2,727,1,1,727,1,0,0.4,NaN,-0.190406113890307,-0.190406113890307,750,1,0,congruent,1,11610.02621891,4067.52759347086
10,104,2,270,-0.5,-0.5,-0.5,1,1,0.4,1,915,1,0,915,1,0,1,0.2,1.51371198142204,1.51371198142204,750,1,0,congruent,0.1,2404.20508665281,4663.05708734661
10,104,2,271,-0.5,-0.5,0,2,NaN,0.4,2,623,1,1,623,0,0,0.8,0.4,-1.13310974108437,-1.13310974108437,750,0,0,neutral,0,2553.06503975896,3514.49928998724
10,104,2,272,-0.5,-0.5,-0.5,3,3,0.4,4,829,0,0,NaN,0,0,0.8,0.4,0.734168597396178,NaN,750,0,1,congruent,0,2735.54675189661,6224.12950559889
10,104,2,273,-0.5,0.5,0.5,2,1,0.4,2,660,1,1,660,1,0,0.8,0,-0.797724796794174,-0.797724796794174,750,0,0,incongruent,0.1,1807.07132806771,1660.72510985069
10,104,2,276,0.5,-0.5,0.5,2,4,0.4,1,891,0,0,NaN,0,0,0.2,NaN,1.2961649905311,NaN,750,0,1,incongruent,0,4794.72580377928,3074.56192141384
10,104,2,277,-0.5,-0.5,-0.5,1,1,0.4,1,853,1,0,853,1,0,0.2,0.4,0.951715588287115,0.951715588287115,750,1,0,congruent,0.1,8004.75508643533,1112.64618713688
10,104,2,279,-0.5,0.5,0,3,NaN,0.4,4,794,0,0,NaN,0,0,0.2,0.2,0.41691256901356,NaN,750,0,1,neutral,0,785.030816124374,889.845954193352
10,104,2,281,-0.5,-0.5,-0.5,3,3,0.4,4,823,0,0,NaN,0,0,0.2,0.2,0.679781849673443,NaN,750,0,1,congruent,0,1993.5233246999,5252.07500821175
10,104,2,282,0.5,0.5,0.5,2,1,0.4,2,805,1,0,805,0,0,0.2,NaN,0.51662160650524,0.51662160650524,750,0,0,incongruent,0,4679.0888872776,5908.24337994345
10,104,2,284,0.5,-0.5,-0.5,2,2,0,2,838,1,0,838,0,0,0,NaN,0.815748718980279,0.815748718980279,750,1,0,congruent,0,3208.09924785357,4837.28661663828
10,104,2,285,0.5,0.5,0,1,NaN,0,1,754,1,0,754,0,0,0,NaN,0.0543342508619979,0.0543342508619979,750,0,0,neutral,0,3862.30983046608,287.272150177421
10,104,2,286,-0.5,-0.5,0.5,2,1,0,2,761,1,0,761,0,0,0,0.2,0.117785456538521,0.117785456538521,750,0,0,incongruent,0,5900.00935117528,2229.25438647849
10,104,2,287,0.5,-0.5,0,3,NaN,0,4,936,0,0,NaN,0,0,0,NaN,1.70406559845161,NaN,750,0,1,neutral,0,2628.15796194616,908.882720551217
10,104,2,288,-0.5,0.5,-0.5,2,2,0,2,846,1,0,846,0,0,0,0.2,0.888264382610592,0.888264382610592,750,1,0,congruent,0,1925.86462995775,1642.5436204957
10,104,2,289,-0.5,-0.5,0.5,1,3,0,1,937,1,0,937,0,0,0,0.2,1.7131300564054,1.7131300564054,750,0,0,incongruent,0,3250.70321146877,2650.77760743902
10,104,2,292,0.5,-0.5,-0.5,3,3,0,4,727,0,1,NaN,0,0,0,NaN,-0.190406113890307,NaN,750,0,1,congruent,0,3265.49852824346,4287.14654700783
10,104,2,293,-0.5,0.5,-0.5,1,1,0,1,869,1,0,869,0,0,0,0.2,1.09674691554774,1.09674691554774,750,1,0,congruent,0,15391.2934718628,14683.4835724724
10,104,2,294,-0.5,0.5,-0.5,2,2,0,2,584,1,1,584,1,0,0,0.2,-1.48662360128214,-1.48662360128214,750,1,0,congruent,0.1,2555.00716813737,7035.87721163739
10,104,2,295,0.5,-0.5,-0.5,3,3,0.2,4,552,0,1,NaN,0,0,0.2,NaN,-1.77668625580339,NaN,750,0,1,congruent,0,2991.90954951474,3788.37411275345
10,104,2,296,-0.5,-0.5,-0.5,2,2,0.2,2,767,1,0,767,1,0,0.2,0.2,0.172172204261256,0.172172204261256,750,1,0,congruent,0.1,3032.83263970628,4604.13690438705
10,104,2,299,0.5,-0.5,0.5,3,4,0.2,4,784,0,0,NaN,1,0,0.8,NaN,0.32626798947567,NaN,750,1,0,incongruent,1,2474.84374398429,1304.27722685002
10,104,2,300,0.5,-0.5,0.5,2,1,0.2,2,633,1,1,633,0,0,1,NaN,-1.04246516154648,-1.04246516154648,750,0,0,incongruent,0,2574.44843981822,3981.14207900328
10,104,3,302,0.5,0.5,0.5,1,2,0.2,1,747,1,1,747,1,0,0.8,NaN,-0.00911695481452556,-0.00911695481452556,750,0,0,incongruent,1,2212.87486275359,1394.17672769588
10,104,3,303,-0.5,0.5,0.5,3,4,0.4,4,648,0,1,NaN,0,0,0.8,0.2,-0.906498292239643,NaN,750,1,0,incongruent,0,2063.20865291302,6167.03466318497
10,104,3,304,0.5,0.5,-0.5,2,2,0.4,2,595,1,1,595,1,0,0.8,NaN,-1.38691456379046,-1.38691456379046,750,1,0,congruent,1,1385.55675466338,1800.64562287891
10,104,3,305,0.5,0.5,0.5,1,3,0.6,4,777,0,0,NaN,0,0,0.8,NaN,0.262816783799146,NaN,750,0,1,incongruent,0,1077.33023929609,2969.32980165799
10,104,3,307,-0.5,0.5,-0.5,3,3,0.4,4,713,0,1,NaN,0,0,0.8,0.2,-0.317308525243354,NaN,750,0,1,congruent,0,734.339912605423,3877.12168389552
10,104,3,308,0.5,-0.5,0,1,NaN,0.2,1,710,1,1,710,0,0,0.4,NaN,-0.344501899104721,-0.344501899104721,750,0,0,neutral,0,3174.91686313422,3438.02891133736
10,104,3,310,0.5,0.5,0,2,NaN,0.2,2,712,1,1,712,1,0,0,NaN,-0.326372983197143,-0.326372983197143,750,0,0,neutral,1,2107.02097099183,2181.38468475892
10,104,3,311,0.5,-0.5,-0.5,1,1,0.2,2,783,0,0,NaN,0,0,0.4,NaN,0.317203531521881,NaN,750,0,1,congruent,0,2576.5746066277,3433.25310934268
10,104,3,317,0.5,0.5,0.5,3,1,0.2,1,869,0,0,NaN,0,0,0,NaN,1.09674691554774,NaN,750,1,0,incongruent,0,898.728823428811,9144.97014878684
10,104,3,319,0.5,-0.5,-0.5,2,2,0.2,1,808,0,0,NaN,0,0,0,NaN,0.543814980366607,NaN,750,0,1,congruent,0,2960.6344779682,7001.11140649021
10,104,3,321,0.5,-0.5,-0.5,2,2,0.2,2,710,1,1,710,0,0,0,NaN,-0.344501899104721,-0.344501899104721,750,1,0,congruent,0,1383.80483878616,2825.37938096565
10,104,3,323,-0.5,0.5,0.5,3,4,0.2,4,880,0,0,NaN,0,0,0.2,0.2,1.19645595303942,NaN,750,1,0,incongruent,0,2826.73152997887,2720.19076906624
10,104,3,324,-0.5,-0.5,-0.5,2,2,0.2,2,877,1,0,877,1,0,0.2,0.4,1.16926257917805,1.16926257917805,750,1,0,congruent,0.1,10154.5176310281,1917.69276849314
10,104,3,327,-0.5,0.5,0,3,NaN,0,4,680,0,1,NaN,0,0,0.8,0,-0.616435637718393,NaN,750,0,1,neutral,0,11691.0731181479,20741.5164075408
10,104,3,328,0.5,0.5,-0.5,2,2,0,2,806,1,0,806,0,0,0.6,NaN,0.525686064459029,0.525686064459029,750,1,0,congruent,0,567.969146127535,4752.66060182579
10,104,3,330,0.5,-0.5,0.5,3,1,0,4,777,0,0,NaN,0,0,0.4,NaN,0.262816783799146,NaN,750,0,1,incongruent,0,2324.62952358564,5991.1595344854
10,104,3,332,-0.5,0.5,0,3,NaN,0,4,861,0,0,NaN,0,0,0,0,1.02423125191743,NaN,750,0,1,neutral,0,3060.51710225818,2000.89770341352
10,104,3,333,0.5,0.5,-0.5,2,2,0,2,871,1,0,871,0,0,0,NaN,1.11487583145532,1.11487583145532,750,1,0,congruent,0,4634.75954200444,1948.56617857485
10,104,3,337,0.5,0.5,0.5,1,2,0,2,736,0,1,NaN,0,0,0,NaN,-0.108825992306205,NaN,750,1,0,incongruent,0,6820.82121733651,1154.09267772532
10,104,3,339,0.5,-0.5,-0.5,2,2,0,1,720,0,1,NaN,0,0,0,NaN,-0.25385731956683,NaN,750,0,1,congruent,0,3080.07800274283,2249.76721445011
10,104,3,340,0.5,0.5,0.5,1,3,0,2,857,0,0,NaN,0,0,0,NaN,0.987973420102272,NaN,750,0,1,incongruent,0,7957.13446607254,2388.22632055587
10,104,3,341,-0.5,0.5,0,2,NaN,0,2,778,1,0,778,0,0,0,0,0.271881241752935,0.271881241752935,750,0,0,neutral,0,1518.83104816897,3007.14221197336
10,104,3,342,0.5,0.5,-0.5,3,3,0,4,808,0,0,NaN,0,0,0,NaN,0.543814980366607,NaN,750,0,1,congruent,0,2323.17455750395,3247.30050607743
10,104,3,344,-0.5,-0.5,0,2,NaN,0,2,726,1,1,726,0,0,0,0.4,-0.199470571844096,-0.199470571844096,750,0,0,neutral,0,6826.16811830551,4354.43032209846
10,104,3,345,0.5,-0.5,-0.5,3,3,0,4,644,0,1,NaN,0,0,0,NaN,-0.942756124054799,NaN,750,0,1,congruent,0,707.125541714931,1464.29644225224
10,104,3,346,0.5,0.5,0,2,NaN,0,2,757,1,0,757,0,0,0,NaN,0.0815276247233651,0.0815276247233651,750,0,0,neutral,0,1724.6893263433,5367.40479647174
10,104,3,347,-0.5,0.5,0.5,1,2,0,1,921,1,0,921,0,0,0,0,1.56809872914477,1.56809872914477,750,0,0,incongruent,0,1800.85313203848,3300.50135559354
10,104,3,349,0.5,0.5,-0.5,2,2,0,2,944,1,0,944,0,0,0,NaN,1.77658126208192,1.77658126208192,750,1,0,congruent,0,1321.68070745985,5874.31433417098
10,104,3,350,-0.5,0.5,0.5,1,3,0,4,774,0,0,NaN,0,0,0,0,0.235623409937779,NaN,750,0,1,incongruent,0,1728.67575077441,1653.36254828781
10,104,3,351,0.5,-0.5,-0.5,2,2,0,2,772,1,0,772,0,0,0,NaN,0.217494494030201,0.217494494030201,750,1,0,congruent,0,2268.42606577899,3693.14491852358
10,104,3,352,-0.5,-0.5,0,3,NaN,0,4,717,0,1,NaN,0,0,0,0.4,-0.281050693428197,NaN,750,0,1,neutral,0,4009.67905213386,4753.74170270938
10,104,3,353,-0.5,0.5,-0.5,2,2,0,2,629,1,1,629,1,0,0,0,-1.07872299336164,-1.07872299336164,750,1,0,congruent,0.1,17271.2041304287,2069.99345640844
10,104,3,354,-0.5,0.5,-0.5,1,1,0.2,1,902,1,0,902,0,0,0.2,0.2,1.39587402802278,1.39587402802278,750,1,0,congruent,0,2187.16623567826,4055.42329937914
10,104,3,355,-0.5,0.5,-0.5,3,3,0.2,4,750,0,1,NaN,0,0,0.2,0.2,0.0180764190468416,NaN,750,0,1,congruent,0,1744.5274840144,3573.43335277994
10,104,3,357,-0.5,0.5,-0.5,1,1,0.2,1,850,1,0,850,0,0,0.2,0.2,0.924522214425748,0.924522214425748,750,1,0,congruent,0,2617.21142445664,2377.9442317238
10,104,3,358,-0.5,-0.5,-0.5,2,2,0.2,2,586,1,1,586,0,0,0.2,0.4,-1.46849468537457,-1.46849468537457,750,1,0,congruent,0,2471.17148704903,1997.88263086913
10,104,3,360,-0.5,0.5,-0.5,1,1,0.2,1,827,1,0,827,0,0,0.2,0.2,0.7160396814886,0.7160396814886,750,1,0,congruent,0,1960.89704289294,5340.48207019717
10,104,3,362,-0.5,-0.5,-0.5,3,3,0,4,502,0,1,NaN,0,0,0.2,0.2,-2.22990915349285,NaN,750,0,1,congruent,0,1759.89735736669,2050.37930355672
10,104,3,363,-0.5,0.5,0,2,NaN,0,2,762,1,0,762,0,0,0.2,0,0.12684991449231,0.12684991449231,750,0,0,neutral,0,3337.81724686821,786.830705540794
10,104,3,364,0.5,-0.5,0.5,1,3,0,4,731,0,1,NaN,0,0,0.2,NaN,-0.154148282075151,NaN,750,0,1,incongruent,0,5540.18797217485,3222.25896189616
10,104,3,365,-0.5,-0.5,0,3,NaN,0,2,642,0,1,NaN,0,0,0,0.2,-0.960885039962377,NaN,750,0,1,neutral,0,4904.88951627072,2396.03917493576
10,104,3,367,0.5,-0.5,0,2,NaN,0.2,2,883,1,0,883,0,0,0.2,NaN,1.22364932690079,1.22364932690079,750,0,0,neutral,0,2604.83455500838,922.982630349767
10,104,3,369,0.5,0.5,-0.5,2,2,0.2,2,793,1,0,793,0,0,0.2,NaN,0.407848111059771,0.407848111059771,750,1,0,congruent,0,3762.88619688482,3016.67693553926
10,104,3,370,-0.5,0.5,-0.5,1,1,0.2,1,742,1,1,742,1,0,0.2,0.2,-0.0544392445834709,-0.0544392445834709,750,1,0,congruent,0.1,601.369214885746,1839.48250128402
10,104,3,372,-0.5,-0.5,0,2,NaN,0.4,2,687,1,1,687,0,0,0.2,0.2,-0.552984432041869,-0.552984432041869,750,0,0,neutral,0,1796.94372583036,2967.03781648457
10,104,3,373,0.5,-0.5,-0.5,1,1,0.4,2,778,0,0,NaN,0,0,0.2,NaN,0.271881241752935,NaN,750,0,1,congruent,0,2779.56519922409,1099.31068382248
10,104,3,376,-0.5,0.5,-0.5,3,3,0.2,3,968,1,0,968,0,0,0,0.4,1.99412825297286,1.99412825297286,750,1,0,congruent,0,2079.56862324817,5332.85407790673
10,104,3,377,-0.5,0.5,0.5,4,1,0.2,4,536,1,1,536,1,0,0,0.4,-1.92171758306402,-1.92171758306402,750,0,0,incongruent,0.1,1198.4508548688,2307.55607359082
10,104,3,378,0.5,-0.5,0.5,3,4,0.2,4,837,0,0,NaN,1,0,0.2,NaN,0.80668426102649,NaN,750,1,0,incongruent,1,927.498412986582,11453.6192400893
10,104,3,379,-0.5,0.5,0.5,1,2,0.2,2,755,0,0,NaN,0,0,0.6,0.6,0.0633987088157869,NaN,750,1,0,incongruent,0,1518.48574410493,1331.83619130291
10,104,3,380,0.5,-0.5,0.5,4,1,0.2,4,663,1,1,663,1,0,0.6,NaN,-0.770531422932807,-0.770531422932807,750,0,0,incongruent,1,2191.19738706993,1849.13192971343
10,104,3,382,-0.5,0.5,0.5,3,2,0.2,2,722,0,1,NaN,0,0,1,0.6,-0.235728403659252,NaN,750,1,0,incongruent,0,4243.52340969707,4032.05077387327
10,104,3,383,-0.5,0.5,-0.5,4,4,0.2,4,493,1,1,493,1,0,0.8,0.4,-2.31148927507695,-2.31148927507695,750,1,0,congruent,0.1,1621.36005854129,1070.51733287421
10,104,3,384,-0.5,0.5,-0.5,2,2,0.4,2,669,1,1,669,1,0,0.6,0.4,-0.716144675210073,-0.716144675210073,750,1,0,congruent,0.1,2698.40590381704,1699.37375459883
10,104,3,386,-0.5,0.5,0.5,2,1,0.4,4,873,0,0,NaN,0,0,0.8,0.6,1.1330047473629,NaN,750,0,1,incongruent,0,2416.76524154745,4240.93766819585
10,104,3,387,-0.5,0.5,0,1,NaN,0.4,1,822,1,0,822,0,0,0.8,0.4,0.670717391719654,0.670717391719654,750,0,0,neutral,0,1370.16504588354,9071.81431842005
10,104,3,388,0.5,-0.5,-0.5,2,2,0.4,2,475,1,1,475,0,0,0.8,NaN,-2.47464951824515,-2.47464951824515,750,1,0,congruent,0,2836.73288759215,4178.49708787283
10,104,3,389,0.5,0.5,0,1,NaN,0.4,1,879,1,0,879,0,0,0.6,NaN,1.18739149508563,1.18739149508563,750,0,0,neutral,0,2988.34592803667,3650.58754880416
10,104,3,390,0.5,-0.5,-0.5,3,3,0.4,3,721,1,1,721,0,0,0.4,NaN,-0.244792861613041,-0.244792861613041,750,1,0,congruent,0,7243.87894211432,7119.99810637937
10,104,3,391,0.5,0.5,0,2,NaN,0.4,2,941,1,0,941,0,0,0,NaN,1.74938788822055,1.74938788822055,750,0,0,neutral,0,3991.73841536694,834.462932389295
10,104,3,392,-0.5,0.5,-0.5,4,4,0.2,4,889,1,0,889,0,0,0,0.4,1.27803607462352,1.27803607462352,750,1,0,congruent,0,2246.9702316154,1133.81691811803
10,104,3,393,-0.5,0.5,0,3,NaN,0,3,894,1,0,894,0,0,0,0.4,1.32335836439247,1.32335836439247,750,0,0,neutral,0,1448.46170386741,1675.92509526298
10,104,3,394,0.5,0.5,0.5,1,3,0,1,857,1,0,857,0,0,0,NaN,0.987973420102272,0.987973420102272,750,0,0,incongruent,0,2950.85786820686,3435.30300080741
10,104,3,395,-0.5,-0.5,-0.5,4,4,0,4,567,1,1,567,0,0,0,0.2,-1.64071938649656,-1.64071938649656,750,1,0,congruent,0,4548.14533567303,3486.77292482616
10,104,3,396,-0.5,0.5,-0.5,3,3,0,3,794,1,0,794,0,0,0,0.2,0.41691256901356,0.41691256901356,750,1,0,congruent,0,932.997813234877,4043.04532872998
10,104,3,397,0.5,-0.5,-0.5,2,2,0,2,807,1,0,807,0,0,0,NaN,0.534750522412818,0.534750522412818,750,1,0,congruent,0,1270.38649835397,2590.09072297194
10,104,3,398,-0.5,0.5,0.5,4,3,0,4,584,1,1,584,1,0,0,0,-1.48662360128214,-1.48662360128214,750,0,0,incongruent,0.1,4103.48082118478,3337.30562218063
10,104,3,399,-0.5,-0.5,0.5,3,1,0.2,3,962,1,0,962,0,0,0.2,0.2,1.93974150525012,1.93974150525012,750,0,0,incongruent,0,2253.81293914213,3369.54263967999
10,104,3,400,0.5,0.5,-0.5,4,4,0.2,4,655,1,1,655,1,0,0.2,NaN,-0.84304708656312,-0.84304708656312,750,1,0,congruent,1,1593.88424311136,1220.02463382738
10,104,3,401,0.5,0.5,0.5,3,2,0.4,3,762,1,0,762,0,0,0.6,NaN,0.12684991449231,0.12684991449231,750,0,0,incongruent,0,1959.95850388344,2866.20787129492
10,104,3,402,0.5,-0.5,0,4,NaN,0.4,2,675,0,1,NaN,0,0,0.6,NaN,-0.661757927487338,NaN,750,0,1,neutral,0,10114.3675000079,2449.10614155819
10,104,3,403,-0.5,-0.5,-0.5,1,1,0.4,1,704,1,1,704,0,0,0.6,0,-0.398888646827455,-0.398888646827455,750,1,0,congruent,0,2410.85349439193,1155.67453587095
10,104,3,404,-0.5,0.5,-0.5,3,3,0.4,3,719,1,1,719,1,0,0.4,0.2,-0.262921777520619,-0.262921777520619,750,1,0,congruent,0.1,2185.42220114449,5361.36759790402
10,104,3,405,0.5,-0.5,-0.5,1,1,0.6,1,869,1,0,869,1,0,0.6,NaN,1.09674691554774,1.09674691554774,750,1,0,congruent,1,3572.27624063947,3123.5690613875
10,104,3,406,0.5,-0.5,0,2,NaN,0.6,2,519,1,1,519,0,0,0.6,NaN,-2.07581336827843,-2.07581336827843,750,0,0,neutral,0,4526.23640182577,1394.60573638712
10,104,3,407,0.5,-0.5,0.5,3,2,0.6,3,991,1,0,991,1,0,0.6,NaN,2.20261078591001,2.20261078591001,750,0,0,incongruent,1,3955.05934083306,872.908321280321
10,104,3,408,-0.5,0.5,0.5,4,3,0.6,4,692,1,1,692,1,0,1,0.4,-0.507662142272924,-0.507662142272924,750,0,0,incongruent,0.1,2242.83461685635,7972.17152701191
10,104,3,409,-0.5,-0.5,-0.5,2,2,0.8,2,861,1,0,861,1,0,1.2,0,1.02423125191743,1.02423125191743,750,1,0,congruent,0.1,6100.66954407513,3199.92336327904
10,104,3,410,0.5,0.5,0.5,4,3,0.8,4,903,1,0,903,0,0,1.2,NaN,1.40493848597657,1.40493848597657,750,0,0,incongruent,0,2158.87939765395,4328.68583087469
10,104,3,411,0.5,-0.5,0,1,NaN,0.6,1,619,1,1,619,0,0,0.8,NaN,-1.16936757289953,-1.16936757289953,750,0,0,neutral,0,4641.83833991987,3132.53836378164
10,104,3,413,0.5,0.5,0.5,4,3,0.4,4,639,1,1,639,1,0,0.4,NaN,-0.988078413823745,-0.988078413823745,750,0,0,incongruent,1,3704.4546337228,2831.67684941529
10,104,3,414,-0.5,0.5,0,3,NaN,0.6,3,781,1,0,781,0,0,0.6,0.6,0.299074615614303,0.299074615614303,750,0,0,neutral,0,3073.10501482724,2637.22575960158
10,104,3,415,-0.5,0.5,-0.5,2,2,0.4,2,761,1,0,761,0,0,0.4,0.6,0.117785456538521,0.117785456538521,750,1,0,congruent,0,2623.4511646923,5416.76186525477
10,104,3,416,-0.5,0.5,0.5,4,1,0.2,4,677,1,1,677,1,0,0.4,0.4,-0.64362901157976,-0.64362901157976,750,0,0,incongruent,0.1,1640.34341193626,2503.36374869127
10,104,3,417,0.5,0.5,0,2,NaN,0.4,2,786,1,0,786,0,0,0.6,NaN,0.344396905383248,0.344396905383248,750,0,0,neutral,0,3860.48742163948,1456.3452779907
10,104,3,419,-0.5,-0.5,0.5,3,2,0.4,3,967,1,0,967,1,0,0.2,0.2,1.98506379501907,1.98506379501907,750,0,0,incongruent,0.1,1579.58250247135,5246.49705999517
10,104,3,420,-0.5,0.5,0.5,2,1,0.4,2,912,1,0,912,0,0,0.4,0.4,1.48651860756067,1.48651860756067,750,0,0,incongruent,0,4045.33431625382,7845.58920388731
10,104,3,421,-0.5,0.5,-0.5,3,3,0.2,3,659,1,1,659,1,0,0.4,0.2,-0.806789254747963,-0.806789254747963,750,1,0,congruent,0.1,3163.52610532985,3597.3983530102
10,104,3,422,0.5,0.5,0,1,NaN,0.4,1,816,1,0,816,0,0,0.4,NaN,0.61633064399692,0.61633064399692,750,0,0,neutral,0,1840.74881019696,1781.34523312388
10,104,3,423,0.5,0.5,0.5,2,3,0.4,3,807,0,0,NaN,0,0,0.4,NaN,0.534750522412818,NaN,750,1,0,incongruent,0,442.801908162999,1743.13036038312
10,104,3,424,0.5,-0.5,0,3,NaN,0.2,3,690,1,1,690,0,0,0.4,NaN,-0.525791058180502,-0.525791058180502,750,0,0,neutral,0,5756.31796177965,4259.97328541044
10,104,3,425,0.5,-0.5,0.5,4,3,0.2,4,539,1,1,539,1,0,0.2,NaN,-1.89452420920265,-1.89452420920265,750,0,0,incongruent,1,2495.98540409867,3965.50398410467
10,104,3,426,-0.5,-0.5,0.5,3,1,0.2,3,751,1,0,751,0,0,0.6,0.4,0.0271408770006307,0.0271408770006307,750,0,0,incongruent,0,6861.51485520252,3780.94855068662
10,104,3,427,-0.5,0.5,0.5,2,3,0.2,2,776,1,0,776,0,0,0.4,0.4,0.253752325845357,0.253752325845357,750,0,0,incongruent,0,3124.75264010747,6770.96791470734
10,104,3,428,0.5,0.5,-0.5,4,4,0.2,4,626,1,1,626,1,0,0.4,NaN,-1.105916367223,-1.105916367223,750,1,0,congruent,1,5104.26269318044,3896.45198187553
10,104,3,429,-0.5,0.5,0,1,NaN,0.4,1,738,1,1,738,1,0,0.8,0.4,-0.0906970763986271,-0.0906970763986271,750,0,0,neutral,0.1,7598.52239000861,2854.21999035183
10,104,3,431,0.5,-0.5,0.5,2,1,0.6,2,773,1,0,773,1,0,0.8,NaN,0.22655895198399,0.22655895198399,750,0,0,incongruent,1,7198.91855056262,1230.36691248667
10,104,3,432,0.5,0.5,0,3,NaN,0.6,3,886,1,0,886,0,0,1.2,NaN,1.25084270076215,1.25084270076215,750,0,0,neutral,0,2555.98018869575,3310.89045215031
10,104,3,433,0.5,-0.5,0.5,1,3,0.6,1,868,1,0,868,1,0,1.2,NaN,1.08768245759395,1.08768245759395,750,0,0,incongruent,1,3876.52265271364,1407.90586766891
10,104,3,434,-0.5,-0.5,0,2,NaN,0.6,2,715,1,1,715,1,0,1.2,0.4,-0.299179609335776,-0.299179609335776,750,0,0,neutral,0.1,5465.41495027063,9195.21895003368
10,104,3,435,-0.5,0.5,0.5,4,1,0.6,4,650,1,1,650,1,0,1.2,0.6,-0.888369376332065,-0.888369376332065,750,0,0,incongruent,0.1,2976.37268405047,4551.68507546343
10,104,3,436,0.5,0.5,0,2,NaN,0.8,2,656,1,1,656,1,0,1.2,NaN,-0.83398262860933,-0.83398262860933,750,0,0,neutral,1,8960.16826327909,2084.56615537599
10,104,3,437,-0.5,0.5,-0.5,4,4,0.8,4,671,1,1,671,1,0,1.2,0.8,-0.698015759302494,-0.698015759302494,750,1,0,congruent,0.1,2745.05865937572,2534.49183020707
10,104,3,438,-0.5,0.5,0.5,2,3,0.8,2,861,1,0,861,0,0,1.4,0.8,1.02423125191743,1.02423125191743,750,0,0,incongruent,0,2190.84622822011,1298.78484648242
10,104,3,439,-0.5,-0.5,0,3,NaN,0.6,3,542,1,1,542,0,0,1,0.6,-1.86733083534128,-1.86733083534128,750,0,0,neutral,0,3324.76814696454,1039.76301583518
10,104,3,440,-0.5,0.5,-0.5,4,4,0.6,4,537,1,1,537,1,0,0.8,0.8,-1.91265312511023,-1.91265312511023,750,1,0,congruent,0.1,1173.29103439155,945.401074985218
10,104,3,441,-0.5,0.5,0,2,NaN,0.8,2,999,1,0,999,0,0,0.8,0.8,2.27512644954032,2.27512644954032,750,0,0,neutral,0,2467.93614255119,4424.99717349303
10,104,3,442,-0.5,0.5,-0.5,3,3,0.6,3,679,1,1,679,1,0,0.4,0.6,-0.625500095672182,-0.625500095672182,750,1,0,congruent,0.1,5253.29774403068,3239.63160670143
10,104,3,443,-0.5,0.5,-0.5,2,2,0.6,2,916,1,0,916,0,0,0.4,0.6,1.52277643937583,1.52277643937583,750,1,0,congruent,0,3810.36279985449,3068.49743033614
10,104,3,445,0.5,-0.5,0.5,4,1,0.4,4,661,1,1,661,0,0,0.4,NaN,-0.788660338840385,-0.788660338840385,750,0,0,incongruent,0,2365.82813164072,5988.43552328648
10,104,3,446,0.5,0.5,0,3,NaN,0.4,3,607,1,1,607,1,0,0.2,NaN,-1.27814106834499,-1.27814106834499,750,0,0,neutral,1,5761.59235525743,4335.30171076793
10,104,3,447,-0.5,-0.5,0.5,1,3,0.4,2,909,0,0,NaN,0,0,0.6,0.6,1.4593252336993,NaN,750,0,1,incongruent,0,2019.0341338821,1631.22472198517
10,104,3,448,0.5,0.5,0.5,2,4,0.4,2,883,1,0,883,0,0,0.4,NaN,1.22364932690079,1.22364932690079,750,0,0,incongruent,0,4799.29813871205,1400.51652697068
10,104,3,449,0.5,-0.5,0.5,3,2,0.4,3,861,1,0,861,1,0,0.4,NaN,1.02423125191743,1.02423125191743,750,0,0,incongruent,1,6226.37653816434,2751.93048338407
10,104,3,450,0.5,-0.5,0,1,NaN,0.4,1,856,1,0,856,0,0,0.8,NaN,0.978908962148482,0.978908962148482,750,0,0,neutral,0,1871.57417165095,2072.79944835964
10,104,4,451,0.5,-0.5,-0.5,2,2,0.4,2,689,1,1,689,0,0,0.8,NaN,-0.534855516134291,-0.534855516134291,750,1,0,congruent,0,928.281181940708,11036.9750294055
10,104,4,452,-0.5,-0.5,-0.5,4,4,0.4,4,568,1,1,568,0,0,0.4,0.4,-1.63165492854277,-1.63165492854277,750,1,0,congruent,0,1963.88085371041,6047.72227503817
10,104,4,454,0.5,-0.5,-0.5,1,1,0.4,1,753,1,0,753,0,0,0.6,NaN,0.0452697929082088,0.0452697929082088,750,1,0,congruent,0,1804.26992842739,965.699114889596
10,104,4,455,-0.5,-0.5,-0.5,2,2,0.4,2,708,1,1,708,0,0,0.2,0.2,-0.362630815012299,-0.362630815012299,750,1,0,congruent,0,2389.95848605817,1512.69349902822
10,104,4,456,0.5,0.5,-0.5,4,4,0.4,4,772,1,0,772,0,0,0.2,NaN,0.217494494030201,0.217494494030201,750,1,0,congruent,0,2570.58696170443,2313.67048285616
10,104,4,457,0.5,-0.5,0.5,1,3,0.4,2,912,0,0,NaN,0,0,0.2,NaN,1.48651860756067,NaN,750,0,1,incongruent,0,3891.14721124074,6571.54994300012
10,104,4,458,-0.5,-0.5,0,4,NaN,0.4,4,702,1,1,702,0,0,0.2,0.2,-0.417017562735033,-0.417017562735033,750,0,0,neutral,0,3417.13627515974,2109.25801317206
10,104,4,459,0.5,-0.5,-0.5,3,3,0.4,3,836,1,0,836,0,0,0,NaN,0.797619803072701,0.797619803072701,750,1,0,congruent,0,14323.6361752517,1330.76173845916
10,104,4,460,0.5,0.5,-0.5,4,4,0.4,3,659,0,1,NaN,0,0,0,NaN,-0.806789254747963,NaN,750,0,1,congruent,0,2593.69515639044,2869.37208483235
10,104,4,461,0.5,-0.5,-0.5,1,1,0.4,1,795,1,0,795,0,0,0,NaN,0.42597702696735,0.42597702696735,750,1,0,congruent,0,2155.63258626914,3117.83399407094
10,104,4,462,-0.5,0.5,-0.5,3,3,0.4,3,879,1,0,879,0,0,0,0.6,1.18739149508563,1.18739149508563,750,1,0,congruent,0,3690.99008152371,2037.21247834306
10,104,4,463,0.5,0.5,0,4,NaN,0.2,4,644,1,1,644,1,0,0,NaN,-0.942756124054799,-0.942756124054799,750,0,0,neutral,1,1359.65809251739,2888.08302112327
10,104,4,464,-0.5,-0.5,-0.5,3,3,0.4,3,769,1,0,769,1,0,0.4,0,0.190301120168834,0.190301120168834,750,1,0,congruent,0.1,2624.73565938963,5089.49630906543
10,104,4,465,0.5,-0.5,-0.5,1,1,0.4,2,939,0,0,NaN,0,0,0.6,NaN,1.73125897231297,NaN,750,0,1,congruent,0,4386.23951666283,2583.03420155209
10,104,4,466,-0.5,0.5,0,3,NaN,0.4,3,847,1,0,847,0,0,0.6,0.4,0.897328840564381,0.897328840564381,750,0,0,neutral,0,2563.22272657697,1075.05055978046
10,104,4,468,0.5,-0.5,0.5,4,3,0.2,4,710,1,1,710,0,0,0.6,NaN,-0.344501899104721,-0.344501899104721,750,0,0,incongruent,0,2040.40264166471,4511.45035336981
10,104,4,470,-0.5,-0.5,0,1,NaN,0.2,1,755,1,0,755,1,0,0,0.2,0.0633987088157869,0.0633987088157869,750,0,0,neutral,0.1,1079.26859353178,855.756554321193
10,104,4,471,0.5,0.5,0.5,4,2,0.2,3,817,0,0,NaN,0,0,0.2,NaN,0.625395101950709,NaN,750,0,1,incongruent,0,3716.79653195653,6639.57163076451
10,104,4,472,-0.5,-0.5,-0.5,3,3,0.2,3,947,1,0,947,1,0,0.2,0.4,1.80377463594329,1.80377463594329,750,1,0,congruent,0.1,5559.97972674803,3088.72415133402
10,104,4,473,0.5,0.5,0.5,1,4,0.2,4,957,0,0,NaN,0,0,0.4,NaN,1.89441921548118,NaN,750,1,0,incongruent,0,6884.87126208385,5327.30503042159
10,104,4,474,-0.5,0.5,0.5,4,3,0.2,4,603,1,1,603,1,0,0.4,0.4,-1.31439890016015,-1.31439890016015,750,0,0,incongruent,0.1,1151.52551108127,5168.67500413952
10,104,4,475,-0.5,-0.5,0,3,NaN,0.2,3,772,1,0,772,1,0,0.6,0.6,0.217494494030201,0.217494494030201,750,0,0,neutral,0.1,10925.6076310861,2031.76743664678
10,104,4,476,0.5,0.5,-0.5,4,4,0.2,4,670,1,1,670,1,0,0.6,NaN,-0.707080217256284,-0.707080217256284,750,1,0,congruent,1,1663.60800574366,2371.11690370336
10,104,4,477,-0.5,-0.5,0,2,NaN,0.4,1,854,0,0,NaN,0,0,1,0.8,0.960780046240904,NaN,750,0,1,neutral,0,3192.19153911662,2276.51613515071
10,104,4,478,-0.5,-0.5,0.5,3,2,0.4,3,856,1,0,856,0,0,0.8,0.6,0.978908962148482,0.978908962148482,750,0,0,incongruent,0,6630.22626253254,2905.76415515709
10,104,4,479,0.5,0.5,0,2,NaN,0.4,2,831,1,0,831,0,0,0.8,NaN,0.752297513303756,0.752297513303756,750,0,0,neutral,0,865.092926433579,2675.35150257053
10,104,4,480,0.5,-0.5,-0.5,4,4,0.4,4,630,1,1,630,0,0,0.6,NaN,-1.06965853540785,-1.06965853540785,750,1,0,congruent,0,12218.2064659861,4733.71913868174
10,104,4,481,0.5,-0.5,0.5,3,2,0.4,3,939,1,0,939,0,0,0.4,NaN,1.73125897231297,1.73125897231297,750,0,0,incongruent,0,2055.73459807561,5722.50008624226
10,104,4,483,0.5,0.5,0.5,2,1,0.4,2,807,1,0,807,0,0,0,NaN,0.534750522412818,0.534750522412818,750,0,0,incongruent,0,1170.64018867659,2546.66619138138
10,104,4,484,-0.5,0.5,0,1,NaN,0.4,1,791,1,0,791,0,0,0,0.4,0.389719195152193,0.389719195152193,750,0,0,neutral,0,1052.79194388235,1759.72749295331
10,104,4,486,-0.5,-0.5,0.5,1,2,0.2,2,962,0,0,NaN,0,0,0,0.6,1.93974150525012,NaN,750,1,0,incongruent,0,2169.69718575113,4617.38936625395
10,104,4,487,-0.5,-0.5,-0.5,3,3,0.2,3,697,1,1,697,1,0,0,0.4,-0.462339852503979,-0.462339852503979,750,1,0,congruent,0.1,2694.9069077414,1613.10387397291
10,104,4,488,-0.5,-0.5,-0.5,1,1,0.2,1,789,1,0,789,0,0,0.2,0.4,0.371590279244615,0.371590279244615,750,1,0,congruent,0,730.571796347129,2559.70614378163
10,104,4,490,-0.5,-0.5,-0.5,2,2,0,2,790,1,0,790,0,0,0.2,0.2,0.380654737198404,0.380654737198404,750,1,0,congruent,0,4031.50621435311,4020.45917274674
10,104,4,491,-0.5,0.5,0,4,NaN,0,4,876,1,0,876,0,0,0.2,0.2,1.16019812122426,1.16019812122426,750,0,0,neutral,0,9427.79983774855,8879.60249844044
10,104,4,492,-0.5,0.5,-0.5,3,3,0,3,742,1,1,742,1,0,0.2,0.2,-0.0544392445834709,-0.0544392445834709,750,1,0,congruent,0.1,2996.55291589891,8223.97908301018
10,104,4,493,0.5,0.5,0.5,4,2,0.2,4,767,1,0,767,0,0,0.2,NaN,0.172172204261256,0.172172204261256,750,0,0,incongruent,0,3023.50253491276,3233.68375365178
10,104,4,494,0.5,-0.5,0,1,NaN,0.2,1,899,1,0,899,0,0,0.2,NaN,1.36868065416141,1.36868065416141,750,0,0,neutral,0,3426.05164679232,2631.15813928328
10,104,4,495,0.5,0.5,-0.5,4,4,0.2,4,673,1,1,673,1,0,0.2,NaN,-0.679886843394916,-0.679886843394916,750,1,0,congruent,1,1239.13214198605,15500.6621619266
10,104,4,496,0.5,-0.5,-0.5,2,2,0.4,3,664,0,1,NaN,0,0,0.6,NaN,-0.761466964979018,NaN,750,0,1,congruent,0,516.060196206671,3187.96524772549
10,104,4,497,0.5,0.5,0.5,4,3,0.4,4,737,1,1,737,1,0,0.6,NaN,-0.0997615343524162,-0.0997615343524162,750,0,0,incongruent,1,2915.18403503402,4681.4683793023
10,104,4,498,-0.5,0.5,0.5,2,4,0.6,2,889,1,0,889,0,0,0.8,0.4,1.27803607462352,1.27803607462352,750,0,0,incongruent,0,2179.73617494114,3643.38117265786
10,104,4,499,-0.5,0.5,0.5,4,1,0.6,4,884,1,0,884,0,0,0.8,0.2,1.23271378485458,1.23271378485458,750,0,0,incongruent,0,2171.04730272744,2009.06920621173
10,104,4,500,-0.5,-0.5,-0.5,2,2,0.4,3,893,0,0,NaN,1,0,0.8,0.2,1.31429390643868,NaN,750,0,1,congruent,0.1,2778.5751301318,2725.40084420797
10,104,4,501,0.5,-0.5,-0.5,1,1,0.4,2,967,0,0,NaN,0,0,0.6,NaN,1.98506379501907,NaN,750,0,1,congruent,0,1526.02339160515,6535.13482711639
10,104,4,502,0.5,0.5,0.5,2,3,0.4,2,634,1,1,634,1,0,0.6,NaN,-1.03340070359269,-1.03340070359269,750,0,0,incongruent,1,2416.42598910714,989.05551708415
10,104,4,503,0.5,0.5,-0.5,1,1,0.6,1,771,1,0,771,0,0,0.6,NaN,0.208430036076412,0.208430036076412,750,1,0,congruent,0,4010.89889746066,1448.1156554011
10,104,4,504,-0.5,0.5,0,4,NaN,0.4,4,588,1,1,588,1,0,0.6,0.2,-1.45036576946699,-1.45036576946699,750,0,0,neutral,0.1,5024.28582641622,1349.8235290296
10,104,4,505,0.5,-0.5,0.5,1,2,0.4,1,903,1,0,903,1,0,0.8,NaN,1.40493848597657,1.40493848597657,750,0,0,incongruent,1,4354.82474401667,5144.85527279383
10,104,4,506,0.5,-0.5,0.5,2,3,0.4,2,711,1,1,711,0,0,1,NaN,-0.335437441150932,-0.335437441150932,750,0,0,incongruent,0,1163.4201363491,1999.66357275966
10,104,4,507,-0.5,0.5,0.5,3,4,0.4,3,871,1,0,871,0,0,1,0.4,1.11487583145532,1.11487583145532,750,0,0,incongruent,0,1458.73310928618,1752.32559618424
10,104,4,508,0.5,-0.5,0.5,1,2,0.4,1,856,1,0,856,0,0,0.6,NaN,0.978908962148482,0.978908962148482,750,0,0,incongruent,0,1181.17145036179,2071.31641364317
10,104,4,509,0.5,0.5,0.5,2,4,0.4,2,826,1,0,826,0,0,0.6,NaN,0.706975223534811,0.706975223534811,750,0,0,incongruent,0,2039.34083807959,4139.27256210428
10,104,4,511,-0.5,0.5,-0.5,3,3,0.4,3,712,1,1,712,1,0,0.4,0.4,-0.326372983197143,-0.326372983197143,750,1,0,congruent,0.1,5164.37138933868,4583.77308210066
10,104,4,512,0.5,-0.5,0.5,2,1,0.6,2,728,1,1,728,0,0,0.6,NaN,-0.181341655936518,-0.181341655936518,750,0,0,incongruent,0,5044.24425167155,7910.45265952893
10,104,4,513,0.5,-0.5,0.5,4,3,0.6,4,666,1,1,666,1,0,0.6,NaN,-0.74333804907144,-0.74333804907144,750,0,0,incongruent,1,6772.04557339979,4718.84594239159
10,104,4,514,-0.5,-0.5,0.5,3,4,0.6,3,862,1,0,862,0,0,1,0.4,1.03329570987122,1.03329570987122,750,0,0,incongruent,0,2433.02451425276,1545.73029589483
10,104,4,515,0.5,0.5,0.5,4,1,0.6,4,645,1,1,645,1,0,1,NaN,-0.93369166610101,-0.93369166610101,750,0,0,incongruent,1,8091.34939928742,3555.54285452927
10,104,4,516,0.5,0.5,0,2,NaN,0.6,2,536,1,1,536,1,0,1,NaN,-1.92171758306402,-1.92171758306402,750,0,0,neutral,1,1313.88176307736,3549.05923051304
10,104,4,517,-0.5,0.5,0.5,1,2,0.8,1,892,1,0,892,0,0,1.2,0.4,1.30522944848489,1.30522944848489,750,0,0,incongruent,0,3721.27304006234,6133.29735728308
10,104,4,518,-0.5,0.5,-0.5,3,3,0.8,3,767,1,0,767,0,0,1.2,0.4,0.172172204261256,0.172172204261256,750,1,0,congruent,0,5624.90489499844,3833.17310907032
10,104,4,519,-0.5,0.5,-0.5,2,2,0.6,2,671,1,1,671,1,0,0.8,0.4,-0.698015759302494,-0.698015759302494,750,1,0,congruent,0.1,4542.58950260714,6824.59717462555
10,104,4,520,0.5,-0.5,-0.5,4,4,0.6,4,680,1,1,680,1,0,1,NaN,-0.616435637718393,-0.616435637718393,750,1,0,congruent,1,4683.40172442209,5430.58837664176
10,104,4,521,0.5,-0.5,0.5,3,2,0.6,3,805,1,0,805,1,0,1,NaN,0.51662160650524,0.51662160650524,750,0,0,incongruent,1,4004.88941273343,8743.29002215983
10,104,4,522,0.5,0.5,0.5,4,1,0.6,4,975,1,0,975,0,0,1,NaN,2.05757945864938,2.05757945864938,750,0,0,incongruent,0,5773.10938554503,2462.62966468173
10,104,4,523,0.5,-0.5,0,3,NaN,0.4,3,857,1,0,857,0,0,1,NaN,0.987973420102272,0.987973420102272,750,0,0,neutral,0,4370.51588615373,1664.87332350645
10,104,4,524,0.5,-0.5,-0.5,2,2,0.4,2,843,1,0,843,0,0,1,NaN,0.861071008749225,0.861071008749225,750,1,0,congruent,0,1120.67014697412,7107.35199798691
10,104,4,525,0.5,-0.5,-0.5,3,3,0.4,3,569,1,1,569,0,0,0.8,NaN,-1.62259047058898,-1.62259047058898,750,1,0,congruent,0,3707.48142963281,12021.9226862297
10,104,4,526,0.5,-0.5,0.5,2,1,0.4,2,851,1,0,851,1,0,0.4,NaN,0.933586672379537,0.933586672379537,750,0,0,incongruent,1,4040.52169472997,3402.31142697003
10,104,4,527,-0.5,0.5,0,4,NaN,0.4,4,626,1,1,626,1,0,0.4,0.4,-1.105916367223,-1.105916367223,750,0,0,neutral,0.1,494.052979354119,1529.17720228866
10,104,4,529,-0.5,0.5,-0.5,2,2,0.6,2,582,1,1,582,1,0,1,0.6,-1.50475251718972,-1.50475251718972,750,1,0,congruent,0.1,3244.94788730285,1245.86440405816
10,104,4,530,0.5,0.5,-0.5,4,4,0.8,4,574,1,1,574,1,0,1.2,NaN,-1.57726818082003,-1.57726818082003,750,1,0,congruent,1,2537.27156179589,2979.5621661501
10,104,4,531,-0.5,0.5,0,1,NaN,0.8,1,724,1,1,724,1,0,1.6,0.6,-0.217599487751674,-0.217599487751674,750,0,0,neutral,0.1,4068.49744074858,1655.24444364124
10,104,4,532,-0.5,0.5,0.5,2,1,1,2,733,1,1,733,1,0,1.4,0.8,-0.136019366167572,-0.136019366167572,750,0,0,incongruent,0.1,2041.93020884773,5937.22907298127
10,104,4,534,-0.5,-0.5,-0.5,4,4,1,4,680,1,1,680,1,0,1.2,0.4,-0.616435637718393,-0.616435637718393,750,1,0,congruent,0.1,1957.45157259157,2050.55125189952
10,104,4,535,-0.5,0.5,0,1,NaN,1,1,787,1,0,787,0,0,1.2,1,0.353461363337037,0.353461363337037,750,0,0,neutral,0,2418.41399549772,2006.85343733994
10,104,4,536,0.5,0.5,0.5,4,2,0.8,4,843,1,0,843,0,0,0.8,NaN,0.861071008749225,0.861071008749225,750,0,0,incongruent,0,439.349237113553,2590.79705396151
10,104,4,537,-0.5,0.5,0.5,3,1,0.6,2,726,0,1,NaN,0,0,0.6,0.8,-0.199470571844096,NaN,750,0,1,incongruent,0,386.766874668722,1957.79592116794
10,104,4,539,-0.5,0.5,-0.5,1,1,0.4,1,629,1,1,629,1,0,0.4,0.6,-1.07872299336164,-1.07872299336164,750,1,0,congruent,0.1,4955.18934725234,2583.52475957315
10,104,4,540,-0.5,-0.5,-0.5,4,4,0.4,4,513,1,1,513,0,0,0.4,0.4,-2.13020011600117,-2.13020011600117,750,1,0,congruent,0,2537.19817215727,717.191635934461
10,104,4,542,-0.5,0.5,-0.5,1,1,0.4,1,697,1,1,697,1,0,0.4,0.6,-0.462339852503979,-0.462339852503979,750,1,0,congruent,0.1,3998.12667511591,2160.94468182387
10,104,4,543,-0.5,0.5,0,3,NaN,0.6,4,744,0,1,NaN,0,0,0.6,0.6,-0.0363103286758928,NaN,750,0,1,neutral,0,12945.7706292468,3768.21954011958
10,104,4,544,-0.5,0.5,-0.5,4,4,0.6,4,587,1,1,587,1,0,0.4,0.6,-1.45943022742078,-1.45943022742078,750,1,0,congruent,0.1,2760.96206128877,1084.98104372399
10,104,4,545,-0.5,-0.5,-0.5,1,1,0.6,1,806,1,0,806,1,0,0.4,0.4,0.525686064459029,0.525686064459029,750,1,0,congruent,0.1,2101.87737890613,6799.18729865686
10,104,4,546,-0.5,-0.5,0.5,3,2,0.6,4,820,0,0,NaN,1,0,0.6,0.6,0.652588475812076,NaN,750,0,1,incongruent,0.1,4251.30589248754,7479.90701519554
10,104,4,547,0.5,0.5,0,2,NaN,0.6,2,666,1,1,666,1,0,0.8,NaN,-0.74333804907144,-0.74333804907144,750,0,0,neutral,1,4238.28458846741,2032.92362518933
10,104,4,548,-0.5,0.5,-0.5,1,1,0.6,1,682,1,1,682,1,0,1,0.8,-0.598306721810815,-0.598306721810815,750,1,0,congruent,0.1,3240.87953668961,5001.32276957422
10,104,4,549,-0.5,0.5,-0.5,3,3,0.8,3,655,1,1,655,1,0,1.2,0.8,-0.84304708656312,-0.84304708656312,750,1,0,congruent,0.1,4859.06238911325,6139.9553991975
10,104,4,550,0.5,0.5,0,1,NaN,0.8,1,774,1,0,774,0,0,1.2,NaN,0.235623409937779,0.235623409937779,750,0,0,neutral,0,1390.37716105326,1482.12818050944
10,104,4,551,0.5,0.5,0.5,4,3,0.8,4,985,1,0,985,0,0,1,NaN,2.14822403818727,2.14822403818727,750,0,0,incongruent,0,1774.93353535918,3607.03821878702
10,104,4,553,0.5,0.5,-0.5,2,2,0.6,1,958,0,0,NaN,0,0,0.4,NaN,1.90348367343497,NaN,750,0,1,congruent,0,5278.93513483834,927.40885725439
10,104,4,554,-0.5,0.5,-0.5,3,3,0.4,3,564,1,1,564,1,0,0.2,0.8,-1.66791276035792,-1.66791276035792,750,1,0,congruent,0.1,5104.50026910631,3257.96961751839
10,104,4,555,0.5,-0.5,0.5,1,2,0.4,2,891,0,0,NaN,1,0,0.2,NaN,1.2961649905311,NaN,750,1,0,incongruent,1,3543.51288713518,1288.13064479313
10,104,4,556,0.5,0.5,0.5,3,4,0.4,3,726,1,1,726,1,0,0.6,NaN,-0.199470571844096,-0.199470571844096,750,0,0,incongruent,1,4834.41470809928,1479.61406185542
10,104,4,557,-0.5,0.5,-0.5,1,1,0.4,1,942,1,0,942,0,0,1,0.8,1.75845234617434,1.75845234617434,750,1,0,congruent,0,4956.39022601941,974.730852957003
10,104,4,558,0.5,0.5,-0.5,4,4,0.4,4,707,1,1,707,1,0,1,NaN,-0.371695272966088,-0.371695272966088,750,1,0,congruent,1,3541.92649652793,10758.5601034998
10,104,4,559,0.5,-0.5,0,2,NaN,0.6,3,512,0,1,NaN,1,0,1.4,NaN,-2.13926457395496,NaN,750,0,1,neutral,1,1302.62091805431,5884.31440602744
10,104,4,560,0.5,0.5,-0.5,4,4,0.6,4,704,1,1,704,1,0,1.6,NaN,-0.398888646827455,-0.398888646827455,750,1,0,congruent,1,1572.22879602906,2765.37651965112
10,104,4,561,-0.5,0.5,0,3,NaN,0.8,3,698,1,1,698,1,0,1.6,0.8,-0.45327539455019,-0.45327539455019,750,0,0,neutral,0.1,3589.20069897317,4982.81705671688
10,104,4,562,0.5,-0.5,-0.5,1,1,0.8,1,815,1,0,815,1,0,1.4,NaN,0.607266186043131,0.607266186043131,750,1,0,congruent,1,3172.08901356448,4299.95951438524
10,104,4,564,0.5,0.5,0.5,3,4,0.8,4,829,0,0,NaN,0,0,1.8,NaN,0.734168597396178,NaN,750,1,0,incongruent,0,1565.29618704064,2350.24639936236
10,104,4,565,0.5,-0.5,0,4,NaN,0.6,4,591,1,1,591,1,0,1.4,NaN,-1.42317239560562,-1.42317239560562,750,0,0,neutral,1,3696.90482625672,3887.09254117283
10,104,4,566,0.5,0.5,-0.5,2,2,0.6,2,778,1,0,778,0,0,1.4,NaN,0.271881241752935,0.271881241752935,750,1,0,congruent,0,9297.06038441189,3471.06773354474
10,104,4,567,-0.5,-0.5,0,4,NaN,0.6,4,646,1,1,646,0,0,1.2,0.6,-0.924627208147221,-0.924627208147221,750,0,0,neutral,0,1603.51523805753,2876.67143724148
10,104,4,568,0.5,-0.5,-0.5,2,2,0.6,2,705,1,1,705,1,0,0.8,NaN,-0.389824188873666,-0.389824188873666,750,1,0,congruent,1,1903.50184826437,2740.98863773908
10,104,4,569,0.5,-0.5,0.5,3,4,0.6,3,877,1,0,877,0,0,0.8,NaN,1.16926257917805,1.16926257917805,750,0,0,incongruent,0,3787.49778042347,2430.51090287429
10,104,4,570,-0.5,0.5,-0.5,1,1,0.6,2,930,0,0,NaN,0,0,0.8,0.8,1.64967885072887,NaN,750,0,1,congruent,0,2509.14090033509,3058.34711113174
10,104,4,571,0.5,0.5,-0.5,4,4,0.4,4,731,1,1,731,1,0,0.4,NaN,-0.154148282075151,-0.154148282075151,750,1,0,congruent,1,4715.79284919576,4981.67584356785
10,104,4,572,-0.5,-0.5,0,1,NaN,0.4,1,840,1,0,840,1,0,0.8,0.4,0.833877634887857,0.833877634887857,750,0,0,neutral,0.1,1101.8192532954,2487.89445806097
10,104,4,573,0.5,0.5,-0.5,2,2,0.4,2,772,1,0,772,0,0,1,NaN,0.217494494030201,0.217494494030201,750,1,0,congruent,0,5660.98358734831,3353.52694026831
10,104,4,574,0.5,0.5,-0.5,3,3,0.2,3,490,1,1,490,1,0,0.6,NaN,-2.33868264893832,-2.33868264893832,750,1,0,congruent,1,2105.47550336639,1645.24418794383
10,104,4,576,0.5,0.5,0,3,NaN,0.4,3,806,1,0,806,0,0,1,NaN,0.525686064459029,0.525686064459029,750,0,0,neutral,0,4243.47605646078,1397.74537662799
10,104,4,577,-0.5,-0.5,-0.5,4,4,0.4,4,628,1,1,628,0,0,0.6,0.6,-1.08778745131542,-1.08778745131542,750,1,0,congruent,0,3066.97346086113,1730.98110348592
10,104,4,578,0.5,-0.5,0,2,NaN,0.4,1,654,0,1,NaN,0,0,0.4,NaN,-0.852111544516909,NaN,750,0,1,neutral,0,1673.28942741738,2424.58114046343
10,104,4,579,-0.5,0.5,-0.5,4,4,0.4,4,560,1,1,560,1,0,0.4,0.6,-1.70417059217308,-1.70417059217308,750,1,0,congruent,0.1,3855.48149975808,3741.38792448887
10,104,4,580,-0.5,0.5,0,2,NaN,0.4,2,690,1,1,690,1,0,0.2,0.6,-0.525791058180502,-0.525791058180502,750,0,0,neutral,0.1,1845.0684411004,3633.8368157273
10,104,4,581,0.5,0.5,0.5,3,2,0.6,3,697,1,1,697,1,0,0.4,NaN,-0.462339852503979,-0.462339852503979,750,0,0,incongruent,1,3635.60144023615,6399.16079219002
10,104,4,582,0.5,-0.5,0.5,2,1,0.6,2,820,1,0,820,1,0,0.8,NaN,0.652588475812076,0.652588475812076,750,0,0,incongruent,1,3538.48371441971,4554.58903930693
10,104,4,585,0.5,-0.5,-0.5,3,3,0.6,3,782,1,0,782,0,0,1,NaN,0.308139073568092,0.308139073568092,750,1,0,congruent,0,1544.03617735234,9046.37673765413
10,104,4,586,0.5,0.5,0,4,NaN,0.6,4,733,1,1,733,1,0,0.8,NaN,-0.136019366167572,-0.136019366167572,750,0,0,neutral,1,2929.29309949334,5887.67427691088
10,104,4,587,0.5,-0.5,-0.5,1,1,0.6,1,738,1,1,738,1,0,0.8,NaN,-0.0906970763986271,-0.0906970763986271,750,1,0,congruent,1,5643.51951465671,727.998414013568
10,104,4,588,0.5,0.5,0,4,NaN,0.6,2,746,0,1,NaN,0,0,0.8,NaN,-0.0181814127683146,NaN,750,0,1,neutral,0,7152.43088730689,6963.87536583188
10,104,4,589,-0.5,0.5,0.5,1,4,0.4,3,719,0,1,NaN,0,0,0.8,0.6,-0.262921777520619,NaN,750,0,1,incongruent,0,5325.30435607722,10113.7427624165
10,104,4,590,-0.5,0.5,0,2,NaN,0.2,2,772,1,0,772,0,0,0.8,0.6,0.217494494030201,0.217494494030201,750,0,0,neutral,0,2451.0745133813,1807.91907617409
10,104,4,591,-0.5,0.5,-0.5,1,1,0.2,1,682,1,1,682,1,0,0.8,0.4,-0.598306721810815,-0.598306721810815,750,1,0,congruent,0.1,4219.57039734728,2031.88786981497
10,104,4,592,-0.5,0.5,0.5,3,4,0.4,4,708,0,1,NaN,0,0,0.6,0.6,-0.362630815012299,NaN,750,1,0,incongruent,0,660.198943468062,5029.41054833847
10,104,4,593,0.5,-0.5,0,2,NaN,0.2,2,760,1,0,760,1,0,0.2,NaN,0.108720998584732,0.108720998584732,750,0,0,neutral,1,1994.82160118188,5442.65101721332
10,104,4,594,-0.5,0.5,-0.5,3,3,0.2,3,779,1,0,779,0,0,0.6,0.4,0.280945699706725,0.280945699706725,750,1,0,congruent,0,2599.25851245345,3856.3999513483
10,104,4,596,-0.5,0.5,0,3,NaN,0.2,2,699,0,1,NaN,0,0,0.6,0.2,-0.444210936596401,NaN,750,0,1,neutral,0,4164.78259634427,2881.17262043128
10,104,4,597,0.5,-0.5,-0.5,1,1,0.2,1,708,1,1,708,0,0,0.4,NaN,-0.362630815012299,-0.362630815012299,750,1,0,congruent,0,1410.55276757045,1261.53711034243
10,104,4,599,0.5,0.5,-0.5,3,3,0.2,3,678,1,1,678,1,0,0,NaN,-0.634564553625971,-0.634564553625971,750,1,0,congruent,1,3628.06605159309,6410.27059314181
10,104,4,600,0.5,-0.5,-0.5,1,1,0.2,2,879,0,0,NaN,0,0,0.4,NaN,1.18739149508563,NaN,750,0,1,congruent,0,2147.04064539756,2163.81537386838
