subid,vers,block,trial,rewlvl,efflvl,congruency,targetresp,distractorresp,rollingefflvl,resp,rt,acc,fast,accrt,isrewarded,ismiss,runavgrrgen,runavgrrcond,zrt,acczrt,rtthreshold,isdisterror,isranderror,congruence,feedback,fcz_resp_theta,fcz_resp_theta_baseline
11,104,1,1,-0.5,0.5,0.5,1,2,0.2,2,996,0,0,NaN,0,0,0,0,2.50942733239156,NaN,750,1,0,incongruent,0,1001.23288406336,774.862965105392
11,104,1,2,-0.5,-0.5,0.5,3,4,0.2,4,696,0,1,NaN,0,0,0,0,0.253816429691706,NaN,750,1,0,incongruent,0,1765.42230198338,2417.85246385317
11,104,1,3,0.5,-0.5,0,1,NaN,0.2,1,805,1,0,805,0,0,0,NaN,1.07335505767265,1.07335505767265,750,0,0,neutral,0,3193.19906377837,3484.44749877056
11,104,1,4,0.5,0.5,-0.5,4,4,0.2,4,585,1,1,585,1,0,0,NaN,-0.580759604307241,-0.580759604307241,750,1,0,congruent,1,3334.64801173902,2418.88133073635
11,104,1,5,0.5,-0.5,-0.5,3,3,0.3,1,829,0,0,NaN,0,0,0.4,NaN,1.25380392988864,NaN,750,0,1,congruent,0,1735.67262241726,2692.67288276729
11,104,1,6,-0.5,-0.5,-0.5,4,4,0.3,4,588,1,1,588,0,0,0.4,0,-0.558203495280242,-0.558203495280242,750,1,0,congruent,0,1776.01170658638,1727.40645601808
11,104,1,7,-0.5,-0.5,0.5,2,1,0.3,1,921,0,0,NaN,0,0,0.4,0,1.9455246067166,NaN,750,1,0,incongruent,0,6418.62013263582,11673.5684806538
11,104,1,8,0.5,-0.5,0,3,NaN,0.3,2,682,0,1,NaN,0,0,0.4,NaN,0.148554587565713,NaN,750,0,1,neutral,0,8580.10682586732,2893.39630995879
11,104,1,9,0.5,-0.5,-0.5,2,2,0.3,2,706,1,1,706,0,0,0.4,NaN,0.329003459781702,0.329003459781702,750,1,0,congruent,0,4464.04969165842,2502.83398598622
11,104,1,12,-0.5,-0.5,-0.5,3,3,0.3,2,863,0,0,NaN,0,0,0.4,0,1.50943983219463,NaN,750,0,1,congruent,0,2625.0318484727,5337.30921074369
11,104,1,13,0.5,-0.5,-0.5,4,4,0.3,4,677,1,1,677,0,0,0.4,NaN,0.110961072520715,0.110961072520715,750,1,0,congruent,0,1418.42788710074,1767.3449141016
11,104,1,14,-0.5,-0.5,-0.5,1,1,0.3,1,913,1,0,913,0,0,0.4,0,1.8853749826446,1.8853749826446,750,1,0,congruent,0,1829.37700060217,8251.56263588953
11,104,1,15,-0.5,-0.5,-0.5,4,4,0.3,4,576,1,1,576,0,0,0.4,0,-0.648427931388237,-0.648427931388237,750,1,0,congruent,0,2810.16544802471,1291.26669070449
11,104,1,17,-0.5,0.5,-0.5,1,1,0.3,1,669,1,1,669,1,0,0,0,0.0508114484487193,0.0508114484487193,750,1,0,congruent,0.1,1827.60709175133,4229.34525158814
11,104,1,18,0.5,-0.5,-0.5,4,4,0.4,4,598,1,1,598,0,0,0.2,NaN,-0.483016465190247,-0.483016465190247,750,1,0,congruent,0,1531.88684159018,1823.98370358581
11,104,1,19,-0.5,-0.5,0,3,NaN,0.4,2,989,0,0,NaN,0,0,0.2,0,2.45679641132857,NaN,750,0,1,neutral,0,5918.57811673538,3525.69752426244
11,104,1,20,0.5,-0.5,0.5,4,1,0.4,4,944,1,0,944,0,0,0.2,NaN,2.11845477592359,2.11845477592359,750,0,0,incongruent,0,1915.16733896506,1853.43659520992
11,104,1,21,0.5,0.5,0,2,NaN,0.4,2,701,1,1,701,1,0,0.2,NaN,0.291409944736704,0.291409944736704,750,0,0,neutral,1,17891.1845005176,12252.0848403031
11,104,1,22,0.5,0.5,-0.5,1,1,0.6,1,724,1,1,724,1,0,0.6,NaN,0.464340113943693,0.464340113943693,750,1,0,congruent,1,1763.00359557864,8518.97399776882
11,104,1,23,-0.5,0.5,-0.5,4,4,0.8,4,564,1,1,564,1,0,0.8,0.2,-0.738652367496231,-0.738652367496231,750,1,0,congruent,0.1,2640.73596152985,3093.29803466409
11,104,1,24,-0.5,-0.5,-0.5,3,3,0.8,3,905,1,0,905,1,0,1,0,1.82522535857261,1.82522535857261,750,1,0,congruent,0.1,5013.8432066043,822.52274913495
11,104,1,25,-0.5,-0.5,0,4,NaN,0.8,4,624,1,1,624,1,0,1.2,0.2,-0.287530186956259,-0.287530186956259,750,0,0,neutral,0.1,3084.50520762507,2704.88132022388
11,104,1,26,0.5,0.5,-0.5,3,3,0.8,3,860,1,0,860,0,0,1.4,NaN,1.48688372316763,1.48688372316763,750,1,0,congruent,0,6594.63660343151,5336.3173272149
11,104,1,28,0.5,0.5,0.5,3,2,0.6,2,851,0,0,NaN,0,0,0.6,NaN,1.41921539608663,NaN,750,1,0,incongruent,0,2353.84486492564,974.824193509716
11,104,1,29,-0.5,0.5,0.5,2,1,0.4,3,948,0,0,NaN,0,0,0.4,0.4,2.14852958795959,NaN,750,0,1,incongruent,0,11709.3203787686,3388.71180865713
11,104,1,30,-0.5,0.5,0,4,NaN,0.2,4,642,1,1,642,1,0,0.2,0.4,-0.152193532794268,-0.152193532794268,750,0,0,neutral,0.1,868.221928766974,5372.9427884072
11,104,1,31,-0.5,0.5,0.5,3,1,0.2,3,857,1,0,857,0,0,0.2,0.6,1.46432761414063,1.46432761414063,750,0,0,incongruent,0,1337.55913571139,8221.51938468376
11,104,1,32,-0.5,0.5,-0.5,2,2,0.2,2,714,1,1,714,1,0,0.2,0.4,0.389153083853698,0.389153083853698,750,1,0,congruent,0.1,2827.59862348142,1222.31848998851
11,104,1,33,0.5,0.5,0,4,NaN,0.4,4,626,1,1,626,1,0,0.4,NaN,-0.27249278093826,-0.27249278093826,750,0,0,neutral,1,5011.82701790966,2063.28707933534
11,104,1,34,0.5,0.5,0.5,3,4,0.6,2,902,0,0,NaN,0,0,0.8,NaN,1.80266924954561,NaN,750,0,1,incongruent,0,9913.6939859702,2629.09240030154
11,104,1,35,-0.5,0.5,-0.5,1,1,0.6,2,692,0,1,NaN,0,0,0.8,0.4,0.223741617655708,NaN,750,0,1,congruent,0,7601.09012133713,26241.2954687153
11,104,1,36,0.5,-0.5,-0.5,4,4,0.4,4,493,1,1,493,1,0,0.6,NaN,-1.2724802811352,-1.2724802811352,750,1,0,congruent,1,2636.89731279464,477.16780779064
11,104,1,37,-0.5,0.5,0,1,NaN,0.4,1,809,1,0,809,0,0,1,0.4,1.10342986970865,1.10342986970865,750,0,0,neutral,0,4835.98698575811,4760.02496210943
11,104,1,38,0.5,-0.5,-0.5,2,2,0.4,2,685,1,1,685,1,0,0.8,NaN,0.171110696592712,0.171110696592712,750,1,0,congruent,1,628.993722355937,2595.94272509673
11,104,1,39,-0.5,0.5,-0.5,3,3,0.4,3,843,1,0,843,0,0,0.8,0.4,1.35906577201464,1.35906577201464,750,1,0,congruent,0,4463.24848052163,3584.57960276903
11,104,1,40,-0.5,0.5,-0.5,1,1,0.2,1,696,1,1,696,1,0,0.8,0.2,0.253816429691706,0.253816429691706,750,1,0,congruent,0.1,2273.50320662528,1963.32471849765
11,104,1,41,0.5,0.5,0,4,NaN,0.2,4,618,1,1,618,1,0,1,NaN,-0.332642405010256,-0.332642405010256,750,0,0,neutral,1,2221.51112393548,2713.71554904302
11,104,1,42,-0.5,-0.5,0.5,1,2,0.4,3,904,0,0,NaN,1,0,1,0.4,1.81770665556361,NaN,750,0,1,incongruent,0.1,4481.05675980523,1325.83473205902
11,104,1,43,0.5,0.5,0,4,NaN,0.4,4,561,1,1,561,1,0,1.2,NaN,-0.761208476523229,-0.761208476523229,750,0,0,neutral,1,3707.98601849108,4625.41569551865
11,104,1,46,-0.5,0.5,0.5,3,2,0.6,2,684,0,1,NaN,0,0,1.4,0.2,0.163591993583712,NaN,750,1,0,incongruent,0,1053.17635508949,7515.88714453448
11,104,1,47,-0.5,0.5,0,2,NaN,0.6,2,705,1,1,705,1,0,1,0.2,0.321484756772702,0.321484756772702,750,0,0,neutral,0.1,10717.2405131706,2348.73697916005
11,104,1,48,-0.5,-0.5,-0.5,1,1,0.6,1,639,1,1,639,0,0,1,0.6,-0.174749641821266,-0.174749641821266,750,1,0,congruent,0,5799.71616339486,1867.8624804399
11,104,1,49,-0.5,-0.5,-0.5,4,4,0.6,4,537,1,1,537,1,0,0.6,0.6,-0.941657348739218,-0.941657348739218,750,1,0,congruent,0.1,1691.2473362281,5765.54764405344
11,104,1,50,-0.5,-0.5,0,2,NaN,0.6,4,513,0,1,NaN,1,0,0.8,0.8,-1.12210622095521,NaN,750,0,1,neutral,0.1,6424.37359158416,4035.49139964147
11,104,1,51,0.5,-0.5,0.5,3,4,0.6,4,537,0,1,NaN,1,0,0.6,NaN,-0.941657348739218,NaN,750,1,0,incongruent,1,1732.64209135914,4953.95610897734
11,104,1,52,0.5,-0.5,0,2,NaN,0.6,1,835,0,0,NaN,1,0,1,NaN,1.29891614794264,NaN,750,0,1,neutral,1,4433.57924402582,2413.76111270996
11,104,1,53,-0.5,0.5,-0.5,1,1,0.6,1,753,1,0,753,0,0,1.2,0.4,0.682382501204679,0.682382501204679,750,1,0,congruent,0,1324.2299308632,4300.39097444079
11,104,1,54,-0.5,0.5,-0.5,3,3,0.4,2,684,0,1,NaN,0,0,1.2,0.4,0.163591993583712,NaN,750,0,1,congruent,0,9919.75850302007,6068.93866533651
11,104,1,55,-0.5,-0.5,0.5,4,1,0.2,1,802,0,0,NaN,0,0,1,0.8,1.05079894864566,NaN,750,1,0,incongruent,0,5200.62279381119,5507.59440012192
11,104,1,56,-0.5,-0.5,0,2,NaN,0.2,2,652,1,1,652,0,0,0.8,0.6,-0.0770065027042727,-0.0770065027042727,750,0,0,neutral,0,1376.16613772176,3570.52681012704
11,104,1,57,-0.5,-0.5,-0.5,3,3,0.2,3,758,1,0,758,0,0,0.4,0.4,0.719976016249677,0.719976016249677,750,1,0,congruent,0,1971.60543247511,2624.44581543737
11,104,1,58,0.5,0.5,0.5,4,2,0.2,2,760,0,0,NaN,0,0,0,NaN,0.735013422267676,NaN,750,1,0,incongruent,0,4635.47913288982,4868.40544603916
11,104,1,59,0.5,0.5,-0.5,1,1,0.2,1,770,1,0,770,0,0,0,NaN,0.810200452357671,0.810200452357671,750,1,0,congruent,0,1817.2784622903,9076.04621951463
11,104,1,60,0.5,-0.5,0,4,NaN,0.2,4,581,1,1,581,0,0,0,NaN,-0.610834416343239,-0.610834416343239,750,0,0,neutral,0,2195.02911570133,2528.8707659279
11,104,1,61,-0.5,0.5,-0.5,1,1,0.2,1,678,1,1,678,1,0,0,0.2,0.118479775529715,0.118479775529715,750,1,0,congruent,0.1,1451.86322952536,1497.70739756691
11,104,1,62,-0.5,-0.5,0,2,NaN,0.2,3,874,0,0,NaN,0,0,0.2,0.4,1.59214556529362,NaN,750,0,1,neutral,0,579.078223437633,13005.3454257877
11,104,1,63,-0.5,-0.5,-0.5,4,4,0.2,4,604,1,1,604,0,0,0.2,0.2,-0.43790424713625,-0.43790424713625,750,1,0,congruent,0,688.981816236003,4902.82950862192
11,104,1,64,0.5,0.5,0.5,3,1,0.2,1,696,0,1,NaN,0,0,0.2,NaN,0.253816429691706,NaN,750,1,0,incongruent,0,2216.35533171739,1095.62566755097
11,104,1,65,-0.5,-0.5,-0.5,4,4,0.2,4,691,1,1,691,0,0,0.2,0,0.216222914646709,0.216222914646709,750,1,0,congruent,0,1175.08861352437,1353.46702008682
11,104,1,67,-0.5,0.5,0.5,2,1,0.2,2,883,1,0,883,0,0,0,0.4,1.65981389237462,1.65981389237462,750,0,0,incongruent,0,4881.4754608463,2416.91120580763
11,104,1,68,0.5,-0.5,0.5,1,4,0.2,4,628,0,1,NaN,0,0,0,NaN,-0.257455374920261,NaN,750,1,0,incongruent,0,5869.61915562453,769.591794917079
11,104,1,69,-0.5,-0.5,-0.5,3,3,0.2,3,845,1,0,845,0,0,0,0,1.37410317803264,1.37410317803264,750,1,0,congruent,0,2669.0323942137,3700.18030826586
11,104,1,70,0.5,0.5,0,4,NaN,0.2,4,554,1,1,554,1,0,0,NaN,-0.813839397586226,-0.813839397586226,750,0,0,neutral,1,3744.87979133642,1515.90986655285
11,104,1,71,-0.5,-0.5,-0.5,1,1,0.4,1,635,1,1,635,1,0,0.4,0,-0.204824453857265,-0.204824453857265,750,1,0,congruent,0.1,1352.50936718765,2018.00295687941
11,104,1,72,-0.5,-0.5,-0.5,4,4,0.4,4,661,1,1,661,0,0,0.6,0.2,-0.00933817562327695,-0.00933817562327695,750,1,0,congruent,0,1871.52035507827,2829.07907512738
11,104,1,73,0.5,0.5,0.5,2,1,0.4,3,909,0,0,NaN,0,0,0.6,NaN,1.85530017060861,NaN,750,0,1,incongruent,0,3607.77989242238,1355.20878875695
11,104,1,75,-0.5,0.5,0,4,NaN,0.2,4,509,1,1,509,1,0,0.6,0.2,-1.1521810329912,-1.1521810329912,750,0,0,neutral,0.1,2006.83318116883,1759.71663581932
11,104,1,76,-0.5,-0.5,-0.5,3,3,0.4,3,843,1,0,843,0,0,0.4,0.2,1.35906577201464,1.35906577201464,750,1,0,congruent,0,1292.04930370981,4082.73726884045
11,104,1,77,-0.5,0.5,0,4,NaN,0.4,4,594,1,1,594,1,0,0.2,0.4,-0.513091277226245,-0.513091277226245,750,0,0,neutral,0.1,3451.32152708639,2836.41593555647
11,104,1,78,-0.5,-0.5,0.5,1,2,0.6,3,872,0,0,NaN,1,0,0.4,0.2,1.57710815927562,NaN,750,0,1,incongruent,0.1,9550.58846264684,1362.56131567004
11,104,1,79,0.5,0.5,-0.5,3,3,0.6,3,671,1,1,671,1,0,0.6,NaN,0.0658488544667183,0.0658488544667183,750,1,0,congruent,1,2469.93911466269,3331.58072602271
11,104,1,80,0.5,0.5,-0.5,1,1,0.6,1,639,1,1,639,1,0,1,NaN,-0.174749641821266,-0.174749641821266,750,1,0,congruent,1,1877.45186298859,1105.76264770936
11,104,1,81,0.5,-0.5,-0.5,4,4,0.8,4,553,1,1,553,0,0,1.2,NaN,-0.821358100595226,-0.821358100595226,750,1,0,congruent,0,2334.72440994216,1603.98568285843
11,104,1,82,0.5,0.5,-0.5,2,2,0.8,2,744,1,1,744,1,0,1.2,NaN,0.614714174123684,0.614714174123684,750,1,0,congruent,1,3046.73385872375,2703.15359475235
11,104,1,83,0.5,0.5,0.5,1,3,1,3,758,0,0,NaN,0,0,1.4,NaN,0.719976016249677,NaN,750,1,0,incongruent,0,1810.01869343337,407.933843514763
11,104,1,84,-0.5,0.5,-0.5,2,2,0.8,2,760,1,0,760,0,0,1.2,0.6,0.735013422267676,0.735013422267676,750,1,0,congruent,0,5096.75855548175,1603.48972571983
11,104,1,85,-0.5,0.5,0.5,1,4,0.6,4,666,0,1,NaN,0,0,0.8,0.4,0.0282553394217207,NaN,750,1,0,incongruent,0,9196.27928361173,767.814673204797
11,104,1,86,-0.5,-0.5,0,3,NaN,0.4,3,916,1,0,916,0,0,0.4,0.4,1.9079310916716,1.9079310916716,750,0,0,neutral,0,1407.35152994002,8990.83028063899
11,104,1,87,-0.5,-0.5,-0.5,1,1,0.4,1,886,1,0,886,0,0,0.4,0.4,1.68237000140162,1.68237000140162,750,1,0,congruent,0,1344.65111932812,3011.49454953573
11,104,1,88,-0.5,-0.5,0.5,2,4,0.4,4,707,0,1,NaN,0,0,0,0.2,0.336522162790701,NaN,750,1,0,incongruent,0,2940.27171625513,4962.89607897944
11,104,1,89,-0.5,-0.5,0,4,NaN,0.4,4,619,1,1,619,1,0,0,0.2,-0.325123702001257,-0.325123702001257,750,0,0,neutral,0.1,6557.37531198771,3337.2137327431
11,104,1,90,-0.5,-0.5,-0.5,1,1,0.4,1,714,1,1,714,0,0,0.2,0.4,0.389153083853698,0.389153083853698,750,1,0,congruent,0,2669.52071367481,1415.42814658815
11,104,1,94,-0.5,0.5,-0.5,4,4,0.4,4,631,1,1,631,1,0,1.2,0.4,-0.234899265893263,-0.234899265893263,750,1,0,congruent,0.1,5017.50333840131,2862.2330984229
11,104,1,95,-0.5,-0.5,0,2,NaN,0.4,4,574,0,1,NaN,0,0,1.2,0.4,-0.663465337406236,NaN,750,0,1,neutral,0,5714.67266777758,2798.48153885944
11,104,1,96,-0.5,0.5,-0.5,1,1,0.4,1,674,1,1,674,1,0,1.2,0.6,0.0884049634937169,0.0884049634937169,750,1,0,congruent,0.1,3952.30000692745,1819.28876044784
11,104,1,97,0.5,-0.5,0,4,NaN,0.4,4,555,1,1,555,0,0,1,NaN,-0.806320694577227,-0.806320694577227,750,0,0,neutral,0,8558.93666487829,1135.01654711339
11,104,1,98,0.5,-0.5,0.5,1,3,0.4,3,752,0,0,NaN,0,0,0.8,NaN,0.67486379819568,NaN,750,1,0,incongruent,0,1836.3663782122,5030.68834662597
11,104,1,99,0.5,-0.5,0,4,NaN,0.4,4,565,1,1,565,1,0,0.4,NaN,-0.731133664487231,-0.731133664487231,750,0,0,neutral,1,3341.83921803019,710.704858043051
11,104,1,100,0.5,0.5,-0.5,2,2,0.4,2,751,1,0,751,0,0,0.6,NaN,0.66734509518668,0.66734509518668,750,1,0,congruent,0,2027.71599802783,4551.1775015338
11,104,1,101,-0.5,0.5,0.5,3,1,0.4,3,816,1,0,816,0,0,0.6,0.6,1.15606079077165,1.15606079077165,750,0,0,incongruent,0,4385.90138453065,2194.46330088652
11,104,1,103,-0.5,-0.5,0.5,4,1,0.4,3,846,0,0,NaN,0,0,0.8,0.4,1.38162188104164,NaN,750,0,1,incongruent,0,11515.638767108,4960.56170145346
11,104,1,104,-0.5,-0.5,0,2,NaN,0.4,2,745,1,1,745,0,0,0.8,0.4,0.622232877132683,0.622232877132683,750,0,0,neutral,0,1426.38162923226,1468.55037341827
11,104,1,105,0.5,-0.5,-0.5,4,4,0.4,4,648,1,1,648,0,0,0.4,NaN,-0.107081314740271,-0.107081314740271,750,1,0,congruent,0,7629.60188987333,10951.6064450136
11,104,1,106,-0.5,0.5,-0.5,3,3,0.4,3,848,1,0,848,0,0,0.4,0.4,1.39665928705963,1.39665928705963,750,1,0,congruent,0,4852.91107657201,4758.33121360317
11,104,1,107,-0.5,-0.5,-0.5,4,4,0.4,4,570,1,1,570,1,0,0.4,0.2,-0.693540149442234,-0.693540149442234,750,1,0,congruent,0.1,1714.19978034213,3135.45085284186
11,104,1,108,-0.5,0.5,0,3,NaN,0.4,3,620,1,1,620,1,0,0.2,0.4,-0.317604998992257,-0.317604998992257,750,0,0,neutral,0.1,4947.52565034206,5530.60924570481
11,104,1,109,-0.5,-0.5,-0.5,1,1,0.4,1,919,1,0,919,1,0,0.4,0.4,1.9304872006986,1.9304872006986,750,1,0,congruent,0.1,6557.73174041553,1979.44632937753
11,104,1,110,-0.5,0.5,0.5,3,4,0.4,4,768,0,0,NaN,0,0,0.6,0.6,0.795163046339672,NaN,750,1,0,incongruent,0,3821.26593835843,1818.56142994108
11,104,1,111,0.5,0.5,0,2,NaN,0.2,2,781,1,0,781,0,0,0.6,NaN,0.892906185456666,0.892906185456666,750,0,0,neutral,0,1184.39424311041,3334.67118289325
11,104,1,112,0.5,0.5,-0.5,3,3,0.2,3,777,1,0,777,0,0,0.6,NaN,0.862831373420668,0.862831373420668,750,1,0,congruent,0,2333.39269551681,2710.59921781042
11,104,1,113,-0.5,0.5,-0.5,1,1,0.2,1,595,1,1,595,1,0,0.4,0.4,-0.505572574217246,-0.505572574217246,750,1,0,congruent,0.1,3514.1661941807,1744.51598559411
11,104,1,114,0.5,0.5,-0.5,4,4,0.4,4,895,1,0,895,0,0,0.4,NaN,1.75003832848261,1.75003832848261,750,1,0,congruent,0,2191.78121995149,2278.48190343937
11,104,1,115,0.5,-0.5,-0.5,1,1,0.2,1,704,1,1,704,0,0,0.2,NaN,0.313966053763703,0.313966053763703,750,1,0,congruent,0,5198.45937684751,2588.61669505676
11,104,1,116,0.5,-0.5,0,2,NaN,0.2,2,970,1,0,970,0,0,0.2,NaN,2.31394105415758,2.31394105415758,750,0,0,neutral,0,1166.97809763937,9436.89696617228
11,104,1,117,0.5,0.5,-0.5,4,4,0.2,4,563,1,1,563,1,0,0.2,NaN,-0.74617107050523,-0.74617107050523,750,1,0,congruent,1,4206.32485503208,1225.87992009751
11,104,1,119,0.5,0.5,0.5,3,4,0.4,4,971,0,0,NaN,0,0,0.4,NaN,2.32145975716658,NaN,750,1,0,incongruent,0,2063.46260584349,5347.70061233441
11,104,1,120,-0.5,0.5,0.5,2,1,0.4,2,755,1,0,755,0,0,0.4,0.4,0.697419907222678,0.697419907222678,750,0,0,incongruent,0,4780.6030868911,3009.39361532571
11,104,1,121,-0.5,0.5,0.5,1,2,0.2,4,659,0,1,NaN,0,0,0.4,0.4,-0.024375581641276,NaN,750,0,1,incongruent,0,663.100556949593,2698.62817027941
11,104,1,122,0.5,-0.5,0.5,3,1,0.2,1,704,0,1,NaN,0,0,0.4,NaN,0.313966053763703,NaN,750,1,0,incongruent,0,2892.11196254707,3281.03837287966
11,104,1,123,-0.5,0.5,0,4,NaN,0.2,4,514,1,1,514,1,0,0,0.2,-1.11458751794621,-1.11458751794621,750,0,0,neutral,0.1,1614.82203478418,1924.14518792671
11,104,1,124,0.5,-0.5,0.5,3,1,0.2,2,612,0,1,NaN,0,0,0.2,NaN,-0.377754623064254,NaN,750,0,1,incongruent,0,4304.67924402763,959.522772805735
11,104,1,125,-0.5,0.5,0.5,1,3,0.2,4,674,0,1,NaN,0,0,0.2,0.4,0.0884049634937169,NaN,750,0,1,incongruent,0,7501.74447307318,3289.46633359874
11,104,1,126,0.5,0.5,-0.5,2,2,0.2,2,624,1,1,624,1,0,0.2,NaN,-0.287530186956259,-0.287530186956259,750,1,0,congruent,1,2407.82273733378,1034.68290594272
11,104,1,127,-0.5,-0.5,0,4,NaN,0.4,4,576,1,1,576,0,0,0.6,0.4,-0.648427931388237,-0.648427931388237,750,0,0,neutral,0,2074.03737936155,2395.88180609725
11,104,1,128,0.5,-0.5,0.5,3,1,0.4,2,613,0,1,NaN,0,0,0.6,NaN,-0.370235920055254,NaN,750,0,1,incongruent,0,4109.60204271477,1800.57446872724
11,104,1,129,0.5,0.5,-0.5,2,2,0.4,2,582,1,1,582,1,0,0.4,NaN,-0.603315713334239,-0.603315713334239,750,1,0,congruent,1,1523.90000466547,566.383446886586
11,104,1,130,0.5,0.5,-0.5,1,1,0.6,1,646,1,1,646,1,0,0.8,NaN,-0.12211872075827,-0.12211872075827,750,1,0,congruent,1,1140.52108877869,2952.38454089541
11,104,1,131,-0.5,-0.5,0.5,2,4,0.8,4,725,0,1,NaN,1,0,1.2,0.4,0.471858816952693,NaN,750,1,0,incongruent,0.1,4147.65500260956,2617.72045809452
11,104,1,132,-0.5,0.5,0,3,NaN,0.8,2,877,0,0,NaN,0,0,1,0.2,1.61470167432062,NaN,750,0,1,neutral,0,2888.18679008021,4060.97623263471
11,104,1,133,-0.5,0.5,0.5,1,3,0.6,1,970,1,0,970,0,0,1,0.2,2.31394105415758,2.31394105415758,750,0,0,incongruent,0,4205.46074261071,3422.38668945628
11,104,1,134,0.5,0.5,0,2,NaN,0.6,2,720,1,1,720,1,0,1,NaN,0.434265301907695,0.434265301907695,750,0,0,neutral,1,2067.59872595677,3925.81238830321
11,104,1,135,-0.5,0.5,0.5,1,2,0.6,1,874,1,0,874,0,0,1,0.2,1.59214556529362,1.59214556529362,750,0,0,incongruent,0,4908.07669795399,6393.35271975905
11,104,1,136,0.5,0.5,0.5,3,4,0.4,3,899,1,0,899,0,0,0.6,NaN,1.78011314051861,1.78011314051861,750,0,0,incongruent,0,4167.40474045978,6959.16004185939
11,104,1,137,-0.5,-0.5,0,4,NaN,0.2,4,570,1,1,570,0,0,0.4,0.6,-0.693540149442234,-0.693540149442234,750,0,0,neutral,0,4857.04630000788,2513.70238272849
11,104,1,138,0.5,0.5,-0.5,3,3,0.2,3,755,1,0,755,0,0,0.4,NaN,0.697419907222678,0.697419907222678,750,1,0,congruent,0,2998.91440778989,3388.06839618885
11,104,1,139,0.5,0.5,0,4,NaN,0.2,4,500,1,1,500,1,0,0.4,NaN,-1.2198493600722,-1.2198493600722,750,0,0,neutral,1,783.64229569027,1690.44159443142
11,104,1,140,-0.5,0.5,-0.5,2,2,0.4,2,805,1,0,805,0,0,0.4,0.2,1.07335505767265,1.07335505767265,750,1,0,congruent,0,2747.29321345519,1928.01459418878
11,104,1,143,0.5,-0.5,-0.5,3,3,0.2,3,733,1,1,733,0,0,0.4,NaN,0.532008441024689,0.532008441024689,750,1,0,congruent,0,950.805834219734,523.843189315222
11,104,1,144,0.5,-0.5,0.5,1,2,0.2,4,817,0,0,NaN,0,0,0.4,NaN,1.16357949378065,NaN,750,0,1,incongruent,0,2435.42823073279,6285.24628477419
11,104,1,145,-0.5,-0.5,-0.5,4,4,0.2,4,612,1,1,612,0,0,0,0.6,-0.377754623064254,-0.377754623064254,750,1,0,congruent,0,2871.98368370987,1172.16040849815
11,104,1,146,-0.5,0.5,-0.5,3,3,0.2,3,716,1,1,716,1,0,0,0,0.404190489871697,0.404190489871697,750,1,0,congruent,0.1,2500.02937196836,7106.64876773843
11,104,1,147,-0.5,0.5,0.5,2,1,0.4,2,961,1,0,961,0,0,0.2,0.2,2.24627272707658,2.24627272707658,750,0,0,incongruent,0,739.242556178282,3093.11750121915
11,104,1,148,-0.5,-0.5,0.5,1,2,0.4,2,775,0,0,NaN,1,0,0.2,0.4,0.847793967402669,NaN,750,1,0,incongruent,0.1,2080.78547368426,2690.62077974711
11,104,1,149,0.5,-0.5,0,2,NaN,0.4,2,713,1,1,713,0,0,0.4,NaN,0.381634380844698,0.381634380844698,750,0,0,neutral,0,4432.75555741793,1863.89197108801
11,104,1,150,-0.5,0.5,-0.5,3,3,0.4,3,692,1,1,692,1,0,0.4,0.2,0.223741617655708,0.223741617655708,750,1,0,congruent,0.1,1471.83275184713,799.347550350412
11,104,2,151,-0.5,-0.5,-0.5,2,2,0.4,2,751,1,0,751,0,0,0.6,0.4,0.66734509518668,0.66734509518668,750,1,0,congruent,0,2540.06414188949,3264.69954250028
11,104,2,152,-0.5,-0.5,0,1,NaN,0.4,1,757,1,0,757,0,0,0.4,0.4,0.712457313240677,0.712457313240677,750,0,0,neutral,0,1498.47241889389,1080.65527632146
11,104,2,153,-0.5,-0.5,0.5,2,4,0.4,4,611,0,1,NaN,0,0,0.4,0.2,-0.385273326073253,NaN,750,1,0,incongruent,0,5566.07241239414,2100.4011630222
11,104,2,154,0.5,-0.5,-0.5,3,3,0.4,3,590,1,1,590,0,0,0.2,NaN,-0.543166089262243,-0.543166089262243,750,1,0,congruent,0,1745.41542141097,339.542975213099
11,104,2,155,-0.5,-0.5,0.5,4,1,0.4,1,834,0,0,NaN,0,0,0.2,0.2,1.29139744493364,NaN,750,1,0,incongruent,0,2064.00896840402,5194.30547501799
11,104,2,156,-0.5,-0.5,0.5,1,3,0.4,3,965,0,0,NaN,0,0,0,0.2,2.27634753911258,NaN,750,1,0,incongruent,0,807.304551949256,5154.52142340304
11,104,2,157,-0.5,-0.5,0,3,NaN,0.4,3,677,1,1,677,0,0,0,0,0.110961072520715,0.110961072520715,750,0,0,neutral,0,3152.36417388108,2057.56675422479
11,104,2,158,0.5,-0.5,-0.5,2,2,0.4,2,664,1,1,664,1,0,0,NaN,0.0132179334037216,0.0132179334037216,750,1,0,congruent,1,1087.41424032841,4086.9757733319
11,104,2,159,0.5,0.5,-0.5,4,4,0.4,4,657,1,1,657,1,0,0.4,NaN,-0.039412987659275,-0.039412987659275,750,1,0,congruent,1,1840.9341239836,1640.18978836612
11,104,2,160,0.5,-0.5,0,2,NaN,0.6,2,790,1,0,790,1,0,0.8,NaN,0.960574512537662,0.960574512537662,750,0,0,neutral,1,613.270960158057,1336.05495441237
11,104,2,161,0.5,-0.5,0.5,4,1,0.6,3,990,0,0,NaN,0,0,1.2,NaN,2.46431511433757,NaN,750,0,1,incongruent,0,3181.62510310938,7090.98205930466
11,104,2,162,0.5,-0.5,0.5,2,4,0.6,2,831,1,0,831,1,0,1.2,NaN,1.26884133590664,1.26884133590664,750,0,0,incongruent,1,1994.16685992401,5001.37324210114
11,104,2,163,0.5,0.5,-0.5,3,3,0.6,3,738,1,1,738,1,0,1.6,NaN,0.569601956069686,0.569601956069686,750,1,0,congruent,1,8426.766078407,7039.64873289811
11,104,2,165,0.5,0.5,0.5,2,3,0.8,2,782,1,0,782,0,0,1.2,NaN,0.900424888465666,0.900424888465666,750,0,0,incongruent,0,2310.88055503098,3492.63971172177
11,104,2,166,-0.5,-0.5,0,3,NaN,0.6,3,813,1,0,813,1,0,0.8,0,1.13350468174465,1.13350468174465,750,0,0,neutral,0.1,3639.57854849351,2341.1476920061
11,104,2,167,0.5,0.5,-0.5,2,2,0.6,2,588,1,1,588,1,0,1,NaN,-0.558203495280242,-0.558203495280242,750,1,0,congruent,1,8920.91243288366,2536.89992848578
11,104,2,168,0.5,-0.5,-0.5,3,3,0.8,3,615,1,1,615,1,0,1,NaN,-0.355198514037255,-0.355198514037255,750,1,0,congruent,1,2008.90384242546,3355.47567299154
11,104,2,169,0.5,0.5,-0.5,4,4,0.8,4,385,1,1,385,1,0,1,NaN,-2.08450020610715,-2.08450020610715,750,1,0,congruent,1,2648.4293154375,2083.17789705688
11,104,2,170,-0.5,0.5,0,3,NaN,0.8,3,677,1,1,677,1,0,1.4,0.4,0.110961072520715,0.110961072520715,750,0,0,neutral,0.1,4386.06213287308,1891.16874608916
11,104,2,171,-0.5,-0.5,0.5,1,3,0.8,1,768,1,0,768,0,0,1.6,0.2,0.795163046339672,0.795163046339672,750,0,0,incongruent,0,3951.88986250081,10158.6795582886
11,104,2,172,-0.5,-0.5,0,3,NaN,0.8,3,739,1,1,739,0,0,1.4,0.2,0.577120659078686,0.577120659078686,750,0,0,neutral,0,830.010985986694,7171.05452710938
11,104,2,173,0.5,-0.5,0.5,1,3,0.8,2,894,0,0,NaN,1,0,1,NaN,1.74251962547361,NaN,750,0,1,incongruent,1,7100.33390458072,7107.6860448133
11,104,2,175,-0.5,0.5,-0.5,4,4,0.8,4,539,1,1,539,1,0,1,0.6,-0.926619942721219,-0.926619942721219,750,1,0,congruent,0.1,3415.69053922724,1252.04702516732
11,104,2,176,0.5,-0.5,0,2,NaN,0.8,2,765,1,0,765,1,0,1,NaN,0.772606937312674,0.772606937312674,750,0,0,neutral,1,791.569487333709,6194.40346378609
11,104,2,177,-0.5,-0.5,-0.5,3,3,0.8,3,565,1,1,565,1,0,1.4,0.2,-0.731133664487231,-0.731133664487231,750,1,0,congruent,0.1,7663.66738450313,863.401364239562
11,104,2,178,0.5,0.5,0,1,NaN,0.8,2,653,0,1,NaN,0,0,1.6,NaN,-0.0694877996952731,NaN,750,0,1,neutral,0,5926.34712868555,966.363221328938
11,104,2,179,-0.5,-0.5,0.5,3,2,0.8,3,701,1,1,701,1,0,1.2,0.4,0.291409944736704,0.291409944736704,750,0,0,incongruent,0.1,1335.7703294396,5745.7317957105
11,104,2,180,-0.5,-0.5,-0.5,1,1,0.8,1,633,1,1,633,1,0,1,0.6,-0.219861859875264,-0.219861859875264,750,1,0,congruent,0.1,5482.95178073354,402.300212107033
11,104,2,181,-0.5,-0.5,0,2,NaN,0.8,2,565,1,1,565,1,0,1,0.6,-0.731133664487231,-0.731133664487231,750,0,0,neutral,0.1,1999.86542549765,3875.31248588335
11,104,2,182,-0.5,-0.5,-0.5,1,1,0.8,1,598,1,1,598,1,0,0.8,0.8,-0.483016465190247,-0.483016465190247,750,1,0,congruent,0.1,4049.51937155411,11648.6323463949
11,104,2,183,-0.5,-0.5,0,4,NaN,0.8,4,558,1,1,558,1,0,0.8,1,-0.783764585550228,-0.783764585550228,750,0,0,neutral,0.1,2789.27333521452,1051.0486431676
11,104,2,184,0.5,-0.5,-0.5,2,2,0.8,2,584,1,1,584,1,0,1,NaN,-0.58827830731624,-0.58827830731624,750,1,0,congruent,1,1775.94437605299,1212.05472749733
11,104,2,185,-0.5,0.5,0,3,NaN,0.8,3,716,1,1,716,1,0,1.2,0.8,0.404190489871697,0.404190489871697,750,0,0,neutral,0.1,2317.35674188694,10308.0549899147
11,104,2,186,0.5,0.5,-0.5,4,4,0.8,4,424,1,1,424,1,0,1.2,NaN,-1.79127078875616,-1.79127078875616,750,1,0,congruent,1,9222.67864024007,3459.90830720537
11,104,2,187,-0.5,-0.5,-0.5,2,2,0.8,2,538,1,1,538,1,0,1.4,1,-0.934138645730219,-0.934138645730219,750,1,0,congruent,0.1,4644.80064674237,4170.19653459724
11,104,2,188,-0.5,-0.5,0.5,3,1,0.8,1,709,0,1,NaN,1,0,1.4,1,0.3515595688087,NaN,750,1,0,incongruent,0.1,3280.79372471258,2404.35353847846
11,104,2,189,0.5,-0.5,-0.5,4,4,0.8,4,550,1,1,550,0,0,1.4,NaN,-0.843914209622224,-0.843914209622224,750,1,0,congruent,0,7005.10057058944,2860.68649035683
11,104,2,190,0.5,-0.5,0.5,3,2,0.8,3,604,1,1,604,0,0,1,NaN,-0.43790424713625,-0.43790424713625,750,0,0,incongruent,0,1379.02212371507,3069.70051772415
11,104,2,191,0.5,0.5,0,1,NaN,0.8,1,668,1,1,668,1,0,0.8,NaN,0.0432927454397197,0.0432927454397197,750,0,0,neutral,1,2113.91821201597,1312.78183132731
11,104,2,192,0.5,-0.5,0.5,4,1,0.8,3,723,0,1,NaN,1,0,0.8,NaN,0.456821410934694,NaN,750,0,1,incongruent,1,1705.11521131829,1159.33817824264
11,104,2,193,-0.5,-0.5,0.5,3,4,0.8,4,563,0,1,NaN,0,0,1,1,-0.74617107050523,NaN,750,1,0,incongruent,0,1540.76632385993,1519.00487437797
11,104,2,194,-0.5,0.5,0.5,4,2,0.8,3,676,0,1,NaN,0,0,0.8,0.8,0.103442369511716,NaN,750,0,1,incongruent,0,4449.66113409538,1360.61975198695
11,104,2,195,-0.5,-0.5,0.5,2,4,0.6,4,555,0,1,NaN,1,0,0.8,0.8,-0.806320694577227,NaN,750,1,0,incongruent,0.1,3815.03612870868,1180.47937609314
11,104,2,196,-0.5,-0.5,0.5,3,1,0.6,1,792,0,0,NaN,0,0,1,0.8,0.975611918555661,NaN,750,1,0,incongruent,0,5054.03060846249,1196.9069941298
11,104,2,197,-0.5,0.5,0.5,1,2,0.6,4,633,0,1,NaN,0,0,0.6,0.8,-0.219861859875264,NaN,750,0,1,incongruent,0,2863.7195473836,6370.18917582628
11,104,2,198,-0.5,-0.5,-0.5,3,3,0.6,3,633,1,1,633,0,0,0.2,0.6,-0.219861859875264,-0.219861859875264,750,1,0,congruent,0,4750.45257472571,2892.96927728025
11,104,2,199,0.5,0.5,-0.5,1,1,0.6,1,698,1,1,698,1,0,0.2,NaN,0.268853835709705,0.268853835709705,750,1,0,congruent,1,5064.26086579006,3574.03323903284
11,104,2,200,-0.5,-0.5,0,4,NaN,0.6,4,718,1,1,718,0,0,0.6,0.4,0.419227895889696,0.419227895889696,750,0,0,neutral,0,2099.79008610013,594.933891785547
11,104,2,201,0.5,0.5,0.5,3,2,0.6,1,712,0,1,NaN,0,0,0.4,NaN,0.374115677835699,NaN,750,0,1,incongruent,0,1210.58229537889,3315.22431289241
11,104,2,202,-0.5,-0.5,-0.5,4,4,0.4,4,528,1,1,528,0,0,0.4,0.2,-1.00932567582021,-1.00932567582021,750,1,0,congruent,0,3781.64674947995,1039.87803539682
11,104,2,203,0.5,0.5,0,2,NaN,0.4,1,786,0,0,NaN,0,0,0.4,NaN,0.930499700501664,NaN,750,0,1,neutral,0,3980.40884218179,4365.03504938359
11,104,2,204,0.5,-0.5,0.5,1,3,0.2,3,853,0,0,NaN,1,0,0.4,NaN,1.43425280210463,NaN,750,1,0,incongruent,1,4838.4430702789,3613.0415386916
11,104,2,205,-0.5,-0.5,-0.5,4,4,0.2,4,459,1,1,459,0,0,0.4,0.2,-1.52811618344118,-1.52811618344118,750,1,0,congruent,0,2808.11207989539,621.134722592937
11,104,2,206,-0.5,0.5,0,2,NaN,0.2,2,725,1,1,725,1,0,0.4,0.6,0.471858816952693,0.471858816952693,750,0,0,neutral,0.1,2476.00262960016,1515.52909377689
11,104,2,208,0.5,-0.5,0,2,NaN,0.6,2,740,1,1,740,0,0,1,NaN,0.584639362087686,0.584639362087686,750,0,0,neutral,0,1677.46501435698,1510.04676232421
11,104,2,209,-0.5,-0.5,-0.5,3,3,0.6,3,779,1,0,779,0,0,1,0,0.877868779438667,0.877868779438667,750,1,0,congruent,0,3258.12679319126,4394.96167962955
11,104,2,210,0.5,0.5,0,2,NaN,0.6,2,546,1,1,546,1,0,0.6,NaN,-0.873989021658222,-0.873989021658222,750,0,0,neutral,1,3513.27013381614,1166.65606632829
11,104,2,211,0.5,0.5,-0.5,3,3,0.6,3,723,1,1,723,1,0,1,NaN,0.456821410934694,0.456821410934694,750,1,0,congruent,1,822.258156273338,5409.56828850296
11,104,2,212,-0.5,-0.5,0,1,NaN,0.8,1,833,1,0,833,1,0,1.2,0,1.28387874192464,1.28387874192464,750,0,0,neutral,0.1,1427.32619496859,5925.10186905754
11,104,2,213,-0.5,-0.5,-0.5,4,4,0.8,4,592,1,1,592,1,0,1,0.2,-0.528128683244244,-0.528128683244244,750,1,0,congruent,0.1,3037.37371286593,1540.6010290004
11,104,2,214,0.5,-0.5,0.5,3,2,0.8,2,968,0,0,NaN,1,0,1.2,NaN,2.29890364813958,NaN,750,1,0,incongruent,1,6695.72223917898,2387.70651567472
11,104,2,215,-0.5,0.5,0.5,4,3,0.8,3,713,0,1,NaN,0,0,1.6,0.6,0.381634380844698,NaN,750,1,0,incongruent,0,2837.1084888139,3584.53600353422
11,104,2,216,-0.5,0.5,-0.5,1,1,0.8,1,699,1,1,699,1,0,1.2,0.4,0.276372538718705,0.276372538718705,750,1,0,congruent,0.1,6866.67649569883,3445.47148669815
11,104,2,217,0.5,0.5,0,4,NaN,0.8,4,577,1,1,577,1,0,1,NaN,-0.640909228379237,-0.640909228379237,750,0,0,neutral,1,5161.0862934864,725.672761557672
11,104,2,218,-0.5,0.5,0.5,1,4,0.8,4,867,0,0,NaN,0,0,1.2,0.4,1.53951464423063,NaN,750,1,0,incongruent,0,912.274658401766,1819.52153572882
11,104,2,219,-0.5,-0.5,0,2,NaN,0.6,2,662,1,1,662,1,0,1,0.4,-0.00181947261427742,-0.00181947261427742,750,0,0,neutral,0.1,2096.92833750122,2414.98819451826
11,104,2,220,-0.5,0.5,0.5,4,1,0.6,4,645,1,1,645,1,0,0.8,0.4,-0.129637423767269,-0.129637423767269,750,0,0,incongruent,0.1,3365.4459917755,2663.45744982258
11,104,2,221,0.5,0.5,-0.5,2,2,0.6,2,631,1,1,631,1,0,1,NaN,-0.234899265893263,-0.234899265893263,750,1,0,congruent,1,4599.21800573026,2720.13597754526
11,104,2,222,0.5,-0.5,0,3,NaN,0.8,3,702,1,1,702,1,0,1.2,NaN,0.298928647745704,0.298928647745704,750,0,0,neutral,1,631.666485341754,4234.90544901558
11,104,2,223,0.5,0.5,0.5,1,3,0.8,3,679,0,1,NaN,0,0,1.2,NaN,0.125998478538714,NaN,750,1,0,incongruent,0,1948.83362329851,3365.86918118263
11,104,2,224,0.5,-0.5,0.5,3,4,0.6,4,803,0,0,NaN,1,0,1.2,NaN,1.05831765165466,NaN,750,1,0,incongruent,1,2589.22852241542,2806.20124143369
11,104,2,225,0.5,0.5,-0.5,1,1,0.6,1,866,1,0,866,0,0,1.4,NaN,1.53199594122163,1.53199594122163,750,1,0,congruent,0,5139.14042887186,5548.56029171755
11,104,2,226,-0.5,0.5,0.5,4,3,0.4,4,940,1,0,940,0,0,1.2,0.6,2.08837996388759,2.08837996388759,750,0,0,incongruent,0,702.161205517159,1475.08797496631
11,104,2,227,-0.5,0.5,0.5,2,1,0.4,2,840,1,0,840,0,0,0.8,0.4,1.33650966298764,1.33650966298764,750,0,0,incongruent,0,12766.4435545799,3016.89068078042
11,104,2,228,0.5,-0.5,-0.5,3,3,0.2,3,562,1,1,562,0,0,0.4,NaN,-0.75368977351423,-0.75368977351423,750,1,0,congruent,0,3245.32898463767,3171.92743630361
11,104,2,229,-0.5,-0.5,0.5,2,1,0.2,3,683,0,1,NaN,0,0,0.4,0.6,0.156073290574713,NaN,750,0,1,incongruent,0,1069.93170776887,4040.93955039456
11,104,2,230,-0.5,-0.5,0.5,1,2,0.2,1,836,1,0,836,0,0,0,0.6,1.30643485095164,1.30643485095164,750,0,0,incongruent,0,2298.67897252397,8022.83789765008
11,104,2,231,0.5,-0.5,0.5,4,3,0.2,3,886,0,0,NaN,0,0,0,NaN,1.68237000140162,NaN,750,1,0,incongruent,0,7534.01027502634,9869.24336040022
11,104,2,232,0.5,-0.5,0,1,NaN,0.2,1,764,1,0,764,0,0,0,NaN,0.765088234303674,0.765088234303674,750,0,0,neutral,0,1198.03283860044,2324.28361232935
11,104,2,233,-0.5,-0.5,-0.5,3,3,0.2,3,705,1,1,705,0,0,0,0.6,0.321484756772702,0.321484756772702,750,1,0,congruent,0,3761.62341792058,4722.56337263101
11,104,2,234,0.5,0.5,0,4,NaN,0.2,4,494,1,1,494,1,0,0,NaN,-1.2649615781262,-1.2649615781262,750,0,0,neutral,1,2635.285916686,1990.17056024212
11,104,2,235,-0.5,0.5,-0.5,2,2,0.2,3,646,0,1,NaN,0,0,0.4,0.4,-0.12211872075827,NaN,750,0,1,congruent,0,12064.3549883411,578.771983303581
11,104,2,236,-0.5,0.5,-0.5,3,3,0.2,3,688,1,1,688,1,0,0.4,0.2,0.19366680561971,0.19366680561971,750,1,0,congruent,0.1,3996.70148955086,2103.72144640417
11,104,2,237,-0.5,0.5,0.5,4,2,0.4,2,927,0,0,NaN,0,0,0.6,0.4,1.9906368247706,NaN,750,1,0,incongruent,0,2630.38495291369,5402.6309319285
11,104,2,238,0.5,0.5,0,3,NaN,0.4,3,567,1,1,567,1,0,0.6,NaN,-0.716096258469232,-0.716096258469232,750,0,0,neutral,1,5398.93594176939,3002.40002675664
11,104,2,239,-0.5,0.5,-0.5,4,4,0.6,4,561,1,1,561,1,0,1,0.2,-0.761208476523229,-0.761208476523229,750,1,0,congruent,0.1,3254.03468348356,1634.65334001326
11,104,2,240,-0.5,0.5,-0.5,2,2,0.6,2,885,1,0,885,0,0,0.8,0.4,1.67485129839262,1.67485129839262,750,1,0,congruent,0,6618.70944124874,2343.86666348886
11,104,2,241,0.5,-0.5,-0.5,3,3,0.6,3,668,1,1,668,0,0,0.8,NaN,0.0432927454397197,0.0432927454397197,750,1,0,congruent,0,1188.88704613553,4328.58303469091
11,104,2,242,-0.5,0.5,0.5,1,2,0.6,2,765,0,0,NaN,0,0,0.6,0.4,0.772606937312674,NaN,750,1,0,incongruent,0,2560.51416230802,3058.25233435074
11,104,2,243,-0.5,-0.5,0.5,3,1,0.4,1,623,0,1,NaN,0,0,0.6,0.4,-0.295048889965259,NaN,750,1,0,incongruent,0,2919.26072321818,3035.70354618491
11,104,2,244,-0.5,-0.5,0.5,1,3,0.4,3,609,0,1,NaN,0,0,0.2,0.2,-0.400310732091252,NaN,750,1,0,incongruent,0,2806.53440728688,5918.30361380576
11,104,2,245,0.5,0.5,-0.5,4,4,0.4,4,845,1,0,845,0,0,0,NaN,1.37410317803264,1.37410317803264,750,1,0,congruent,0,3731.59689456498,2028.955651793
11,104,2,246,0.5,-0.5,0.5,2,1,0.4,1,673,0,1,NaN,1,0,0,NaN,0.0808862604847174,NaN,750,1,0,incongruent,1,1230.09507958872,3340.08422392014
11,104,2,247,0.5,-0.5,0.5,3,4,0.4,4,568,0,1,NaN,1,0,0.4,NaN,-0.708577555460233,NaN,750,1,0,incongruent,1,2946.6670600369,5375.8316401124
11,104,2,248,0.5,0.5,0,2,NaN,0.4,2,776,1,0,776,0,0,0.8,NaN,0.855312670411668,0.855312670411668,750,0,0,neutral,0,1049.64925755743,5342.54249727339
11,104,2,249,0.5,-0.5,0.5,1,4,0.2,4,863,0,0,NaN,0,0,0.8,NaN,1.50943983219463,NaN,750,1,0,incongruent,0,3949.1812812167,3429.08843518045
11,104,2,250,0.5,-0.5,-0.5,2,2,0.2,2,716,1,1,716,1,0,0.8,NaN,0.404190489871697,0.404190489871697,750,1,0,congruent,1,1001.19201572908,4825.96843721442
11,104,2,251,-0.5,-0.5,0.5,1,4,0.2,4,620,0,1,NaN,0,0,1.2,0,-0.317604998992257,NaN,750,1,0,incongruent,0,5778.10754666755,1441.44356778074
11,104,2,252,0.5,0.5,0,2,NaN,0.2,2,890,1,0,890,0,0,0.8,NaN,1.71244481343761,1.71244481343761,750,0,0,neutral,0,4504.98336362617,1378.33799749388
11,104,2,254,0.5,-0.5,0.5,2,4,0,4,633,0,1,NaN,0,0,0.4,NaN,-0.219861859875264,NaN,750,1,0,incongruent,0,7928.60577884613,4255.19519322816
11,104,2,255,0.5,0.5,0.5,4,1,0,4,866,1,0,866,0,0,0.4,NaN,1.53199594122163,1.53199594122163,750,0,0,incongruent,0,4364.19277243696,1778.19782296818
11,104,2,256,-0.5,0.5,0,3,NaN,0,2,795,0,0,NaN,0,0,0,0.4,0.998168027582659,NaN,750,0,1,neutral,0,1939.87367421947,2007.48795715675
11,104,2,257,0.5,-0.5,-0.5,1,1,0,2,566,0,1,NaN,0,0,0,NaN,-0.723614961478232,NaN,750,0,1,congruent,0,7286.08823398898,2052.7279882266
11,104,2,258,-0.5,0.5,0.5,2,3,0,3,825,0,0,NaN,0,0,0,0.2,1.22372911785265,NaN,750,1,0,incongruent,0,2784.37740215824,757.692037868986
11,104,2,259,-0.5,-0.5,0,1,NaN,0,2,836,0,0,NaN,0,0,0,0,1.30643485095164,NaN,750,0,1,neutral,0,869.633189883238,3118.71273983117
11,104,2,260,0.5,-0.5,-0.5,3,3,0,3,785,1,0,785,0,0,0,NaN,0.922980997492664,0.922980997492664,750,1,0,congruent,0,5747.28337907561,15135.5371248883
11,104,2,261,-0.5,-0.5,0,2,NaN,0,2,716,1,1,716,0,0,0,0,0.404190489871697,0.404190489871697,750,0,0,neutral,0,4178.48806908589,1799.61165435868
11,104,2,262,-0.5,0.5,-0.5,1,1,0,1,682,1,1,682,1,0,0,0.2,0.148554587565713,0.148554587565713,750,1,0,congruent,0.1,2973.29474290219,2585.31446495314
11,104,2,263,-0.5,0.5,0.5,2,4,0.2,3,749,0,1,NaN,0,0,0.2,0.2,0.652307689168681,NaN,750,0,1,incongruent,0,1875.16555666497,3010.26992809969
11,104,2,264,-0.5,0.5,0,4,NaN,0.2,4,505,1,1,505,1,0,0.2,0.2,-1.1822558450272,-1.1822558450272,750,0,0,neutral,0.1,1144.92489816867,2124.30369422254
11,104,2,265,-0.5,0.5,-0.5,2,2,0.4,1,801,0,0,NaN,0,0,0.4,0.4,1.04328024563666,NaN,750,0,1,congruent,0,1876.0996526241,5197.20882281021
11,104,2,266,-0.5,-0.5,0,3,NaN,0.4,3,728,1,1,728,0,0,0.4,0,0.494414925979691,0.494414925979691,750,0,0,neutral,0,1116.4598202549,3594.55587935068
11,104,2,267,0.5,-0.5,-0.5,2,2,0.4,1,718,0,1,NaN,1,0,0.4,NaN,0.419227895889696,NaN,750,0,1,congruent,1,2084.8903789353,5802.02965016379
11,104,2,268,-0.5,0.5,0.5,1,3,0.4,1,851,1,0,851,0,0,0.6,0.4,1.41921539608663,1.41921539608663,750,0,0,incongruent,0,1746.00716001796,2742.06588859545
11,104,2,269,0.5,0.5,-0.5,2,2,0.4,2,701,1,1,701,1,0,0.6,NaN,0.291409944736704,0.291409944736704,750,1,0,congruent,1,4287.54078511767,2160.83804535635
11,104,2,270,-0.5,-0.5,0,3,NaN,0.4,3,768,1,0,768,1,0,0.8,0,0.795163046339672,0.795163046339672,750,0,0,neutral,0.1,2081.17037050766,668.999262029067
11,104,2,271,0.5,0.5,-0.5,4,4,0.4,4,686,1,1,686,1,0,1,NaN,0.178629399601711,0.178629399601711,750,1,0,congruent,1,2006.61205891168,1807.49376519546
11,104,2,272,0.5,0.5,-0.5,2,2,0.6,2,914,1,0,914,0,0,1.4,NaN,1.8928936856536,1.8928936856536,750,1,0,congruent,0,1500.35420293001,6380.18131698501
11,104,2,273,-0.5,-0.5,0.5,3,1,0.4,1,699,0,1,NaN,1,0,1,0.2,0.276372538718705,NaN,750,1,0,incongruent,0.1,2897.02623927677,2332.33875828503
11,104,2,274,-0.5,-0.5,-0.5,4,4,0.4,4,516,1,1,516,0,0,1.2,0.4,-1.09955011192821,-1.09955011192821,750,1,0,congruent,0,1316.1780012022,2338.11579725689
11,104,2,275,0.5,-0.5,-0.5,1,1,0.4,2,642,0,1,NaN,0,0,0.8,NaN,-0.152193532794268,NaN,750,0,1,congruent,0,8699.7881988499,6969.75158301094
11,104,2,276,-0.5,0.5,0,4,NaN,0.4,4,527,1,1,527,1,0,0.6,0.4,-1.01684437882921,-1.01684437882921,750,0,0,neutral,0.1,3833.17354685505,2019.79923150908
11,104,2,277,-0.5,-0.5,-0.5,3,3,0.6,3,709,1,1,709,1,0,0.4,0.4,0.3515595688087,0.3515595688087,750,1,0,congruent,0.1,3926.39261966794,2758.53250271538
11,104,2,278,0.5,-0.5,0.5,1,4,0.6,1,750,1,1,750,1,0,0.6,NaN,0.659826392177681,0.659826392177681,750,0,0,incongruent,1,3492.84962658102,3729.4925795303
11,104,2,279,-0.5,0.5,-0.5,3,3,0.6,3,545,1,1,545,1,0,0.8,0.4,-0.881507724667222,-0.881507724667222,750,1,0,congruent,0.1,3684.65367533239,3068.1393061669
11,104,2,280,-0.5,-0.5,0,4,NaN,0.8,4,462,1,1,462,1,0,1,0.6,-1.50556007441418,-1.50556007441418,750,0,0,neutral,0.1,923.895738534362,3337.45146975026
11,104,2,281,0.5,0.5,-0.5,2,2,0.8,2,653,1,1,653,1,0,1.2,NaN,-0.0694877996952731,-0.0694877996952731,750,1,0,congruent,1,2261.8119736733,2280.58785640997
11,104,2,282,0.5,-0.5,0.5,4,3,0.8,3,920,0,0,NaN,1,0,1.4,NaN,1.9380059037076,NaN,750,1,0,incongruent,1,3626.20226264323,3116.7720189464
11,104,2,283,0.5,-0.5,-0.5,2,2,0.8,2,615,1,1,615,0,0,1.6,NaN,-0.355198514037255,-0.355198514037255,750,1,0,congruent,0,1670.3017212533,1924.2641706182
11,104,2,285,0.5,-0.5,-0.5,2,2,0.8,1,859,0,0,NaN,1,0,1.4,NaN,1.47936502015863,NaN,750,0,1,congruent,1,1648.10506273763,1768.48977914018
11,104,2,286,0.5,0.5,0,3,NaN,0.8,3,677,1,1,677,1,0,1.6,NaN,0.110961072520715,0.110961072520715,750,0,0,neutral,1,1129.80290141084,10168.290382752
11,104,2,287,-0.5,0.5,0.5,2,4,0.8,4,643,0,1,NaN,0,0,1.6,0.6,-0.144674829785268,NaN,750,1,0,incongruent,0,2532.92491728917,2093.89941071637
11,104,2,288,-0.5,0.5,0.5,4,1,0.8,4,733,1,1,733,1,0,1.2,0.4,0.532008441024689,0.532008441024689,750,0,0,incongruent,0.1,483.80096223567,1395.34708510823
11,104,2,289,0.5,-0.5,-0.5,2,2,0.8,2,733,1,1,733,1,0,1.4,NaN,0.532008441024689,0.532008441024689,750,1,0,congruent,1,2829.87924267656,2821.01025456476
11,104,2,290,0.5,0.5,0.5,1,4,0.8,4,562,0,1,NaN,0,0,1.4,NaN,-0.75368977351423,NaN,750,1,0,incongruent,0,1726.80822405447,4223.5225506802
11,104,2,291,-0.5,0.5,0,2,NaN,0.6,2,874,1,0,874,0,0,1,0.6,1.59214556529362,1.59214556529362,750,0,0,neutral,0,1426.09222548239,667.859046563151
11,104,2,292,-0.5,0.5,0.5,4,2,0.4,4,756,1,0,756,0,0,0.6,0.6,0.704938610231678,0.704938610231678,750,0,0,incongruent,0,517.170796531669,478.844462688554
11,104,2,294,0.5,0.5,0,4,NaN,0.2,4,571,1,1,571,1,0,0.4,NaN,-0.686021446433234,-0.686021446433234,750,0,0,neutral,1,2380.9572804492,3776.65665149727
11,104,2,295,0.5,-0.5,-0.5,1,1,0.2,1,603,1,1,603,0,0,0.4,NaN,-0.445422950145249,-0.445422950145249,750,1,0,congruent,0,1998.13505145963,3849.3201932989
11,104,2,296,-0.5,-0.5,-0.5,2,2,0.2,2,907,1,0,907,0,0,0.4,0.8,1.84026276459061,1.84026276459061,750,1,0,congruent,0,1287.96607082969,7731.75090520511
11,104,2,297,0.5,-0.5,-0.5,1,1,0.2,1,691,1,1,691,0,0,0.4,NaN,0.216222914646709,0.216222914646709,750,1,0,congruent,0,1433.40972779627,2322.18841252461
11,104,2,298,0.5,0.5,0,3,NaN,0.2,3,625,1,1,625,1,0,0.4,NaN,-0.28001148394726,-0.28001148394726,750,0,0,neutral,1,6477.02249476853,6184.15121230738
11,104,2,299,-0.5,0.5,-0.5,2,2,0.4,2,616,1,1,616,1,0,0.8,0.2,-0.347679811028256,-0.347679811028256,750,1,0,congruent,0.1,2485.96257825373,4987.91807791301
11,104,2,300,0.5,0.5,0.5,4,1,0.6,1,793,0,0,NaN,0,0,0.6,NaN,0.98313062156466,NaN,750,1,0,incongruent,0,12188.529091509,1327.35180610841
11,104,3,301,0.5,0.5,-0.5,3,3,0.6,3,814,1,0,814,0,0,0.6,NaN,1.14102338475365,1.14102338475365,750,1,0,congruent,0,1698.51565094108,9133.92008098576
11,104,3,302,0.5,-0.5,0,1,NaN,0.6,1,846,1,0,846,1,0,0.6,NaN,1.38162188104164,1.38162188104164,750,0,0,neutral,1,2599.27338854344,5339.51437629343
11,104,3,303,0.5,-0.5,-0.5,2,2,0.6,3,720,0,1,NaN,1,0,1,NaN,0.434265301907695,NaN,750,0,1,congruent,1,3070.67699217134,2162.04071561257
11,104,3,304,0.5,-0.5,-0.5,4,4,0.6,4,570,1,1,570,1,0,1,NaN,-0.693540149442234,-0.693540149442234,750,1,0,congruent,1,2246.81994280672,3228.16381715862
11,104,3,305,-0.5,-0.5,0,2,NaN,0.6,2,780,1,0,780,1,0,1.2,0.6,0.885387482447667,0.885387482447667,750,0,0,neutral,0.1,1934.71243089177,6284.92210745174
11,104,3,306,0.5,0.5,-0.5,4,4,0.6,4,661,1,1,661,1,0,1.4,NaN,-0.00933817562327695,-0.00933817562327695,750,1,0,congruent,1,1576.83936307637,1894.45670876693
11,104,3,307,0.5,-0.5,-0.5,2,2,0.6,2,563,1,1,563,0,0,1.8,NaN,-0.74617107050523,-0.74617107050523,750,1,0,congruent,0,2894.14138625006,2659.6687971862
11,104,3,308,0.5,0.5,-0.5,4,4,0.6,4,537,1,1,537,1,0,1.4,NaN,-0.941657348739218,-0.941657348739218,750,1,0,congruent,1,3058.13508617389,3483.44882417864
11,104,3,309,-0.5,0.5,0.5,3,1,0.6,1,823,0,0,NaN,0,0,1.4,0.4,1.20869171183465,NaN,750,1,0,incongruent,0,7071.28414335064,8821.64203695633
11,104,3,310,-0.5,0.5,0.5,2,4,0.4,4,783,0,0,NaN,0,0,1,0.2,0.907943591474665,NaN,750,1,0,incongruent,0,5737.06764714523,1588.62772396158
11,104,3,311,-0.5,-0.5,0,1,NaN,0.4,1,640,1,1,640,1,0,0.8,0.6,-0.167230938812267,-0.167230938812267,750,0,0,neutral,0.1,1225.45691431406,3191.99676005114
11,104,3,312,-0.5,-0.5,0.5,2,1,0.4,1,968,0,0,NaN,0,0,0.6,0.8,2.29890364813958,NaN,750,1,0,incongruent,0,3547.76741844436,1790.15969189964
11,104,3,314,0.5,-0.5,-0.5,1,1,0.4,1,606,1,1,606,0,0,0.2,NaN,-0.422866841118251,-0.422866841118251,750,1,0,congruent,0,4508.69385959294,2143.36661313002
11,104,3,315,0.5,0.5,0.5,4,2,0.4,3,782,0,0,NaN,0,0,0.2,NaN,0.900424888465666,NaN,750,0,1,incongruent,0,6510.94836221081,3339.04675018056
11,104,3,317,-0.5,-0.5,0.5,4,2,0.4,3,687,0,1,NaN,0,0,0,0.4,0.186148102610711,NaN,750,0,1,incongruent,0,1641.48252344576,3291.23330522762
11,104,3,319,0.5,0.5,-0.5,1,1,0.4,1,673,1,1,673,1,0,0.2,NaN,0.0808862604847174,0.0808862604847174,750,1,0,congruent,1,2638.11319926879,1428.23190248545
11,104,3,320,-0.5,-0.5,-0.5,3,3,0.4,3,824,1,0,824,1,0,0.6,0.2,1.21621041484365,1.21621041484365,750,1,0,congruent,0.1,12306.9378314924,4208.92234140269
11,104,3,321,-0.5,-0.5,-0.5,1,1,0.4,1,726,1,1,726,0,0,0.8,0.4,0.479377519961692,0.479377519961692,750,1,0,congruent,0,10070.9229999473,6750.16660577175
11,104,3,325,0.5,-0.5,-0.5,1,1,0.2,1,804,1,0,804,0,0,0.4,NaN,1.06583635466366,1.06583635466366,750,1,0,congruent,0,1754.4997797965,3387.37063884995
11,104,3,326,-0.5,-0.5,0,3,NaN,0.2,3,574,1,1,574,0,0,0.2,0.6,-0.663465337406236,-0.663465337406236,750,0,0,neutral,0,495.86057946632,705.761728179404
11,104,3,327,-0.5,0.5,-0.5,1,1,0.2,1,644,1,1,644,1,0,0.2,0.2,-0.137156126776269,-0.137156126776269,750,1,0,congruent,0.1,722.188544848437,3993.60130056534
11,104,3,328,0.5,0.5,0.5,3,4,0.4,4,611,0,1,NaN,0,0,0.2,NaN,-0.385273326073253,NaN,750,1,0,incongruent,0,1921.25549074923,3438.80366130585
11,104,3,329,-0.5,0.5,0,2,NaN,0.4,3,566,0,1,NaN,0,0,0.2,0.4,-0.723614961478232,NaN,750,0,1,neutral,0,5739.65670019918,3453.05698670989
11,104,3,330,-0.5,0.5,0.5,1,4,0.4,4,845,0,0,NaN,0,0,0.2,0.4,1.37410317803264,NaN,750,1,0,incongruent,0,9736.58452518869,8899.58094508947
11,104,3,331,-0.5,-0.5,0,4,NaN,0.2,4,481,1,1,481,0,0,0.2,0.6,-1.36270471724319,-1.36270471724319,750,0,0,neutral,0,3225.00819336283,1630.63120255012
11,104,3,332,0.5,-0.5,-0.5,3,3,0.2,3,609,1,1,609,0,0,0.2,NaN,-0.400310732091252,-0.400310732091252,750,1,0,congruent,0,1951.33318420461,1773.73021595809
11,104,3,333,-0.5,-0.5,0.5,2,1,0.2,3,633,0,1,NaN,0,0,0,0.4,-0.219861859875264,NaN,750,0,1,incongruent,0,11527.2990951877,2747.65836203823
11,104,3,334,0.5,-0.5,-0.5,4,4,0.2,4,590,1,1,590,0,0,0,NaN,-0.543166089262243,-0.543166089262243,750,1,0,congruent,0,1955.20248201784,1445.47707251208
11,104,3,335,0.5,-0.5,0.5,1,3,0.2,3,726,0,1,NaN,0,0,0,NaN,0.479377519961692,NaN,750,1,0,incongruent,0,1583.02597740278,2392.56207203302
11,104,3,337,0.5,-0.5,-0.5,1,1,0.2,1,970,1,0,970,0,0,0,NaN,2.31394105415758,2.31394105415758,750,1,0,congruent,0,8948.18571287811,8751.54437339499
11,104,3,339,-0.5,0.5,-0.5,3,3,0,4,673,0,1,NaN,0,0,0,0.2,0.0808862604847174,NaN,750,0,1,congruent,0,1919.7862306778,1374.78046261186
11,104,3,340,-0.5,0.5,-0.5,1,1,0,1,936,1,0,936,0,0,0,0.2,2.05830515185159,2.05830515185159,750,1,0,congruent,0,915.980056780645,3403.47031138519
11,104,3,341,0.5,0.5,0,3,NaN,0,3,581,1,1,581,1,0,0,NaN,-0.610834416343239,-0.610834416343239,750,0,0,neutral,1,3882.28921626502,4144.23116345783
11,104,3,342,-0.5,0.5,-0.5,1,1,0.2,1,458,1,1,458,1,0,0.4,0,-1.53563488645018,-1.53563488645018,750,1,0,congruent,0.1,2517.91347606116,1246.30901412603
11,104,3,343,0.5,-0.5,0,4,NaN,0.4,4,534,1,1,534,0,0,0.6,NaN,-0.964213457766217,-0.964213457766217,750,0,0,neutral,0,1689.57371945702,1616.68542508498
11,104,3,344,0.5,0.5,-0.5,1,1,0.4,1,561,1,1,561,1,0,0.6,NaN,-0.761208476523229,-0.761208476523229,750,1,0,congruent,1,3147.02798048193,1402.59173601739
11,104,3,345,0.5,0.5,0.5,2,3,0.6,2,602,1,1,602,1,0,1,NaN,-0.452941653154249,-0.452941653154249,750,0,0,incongruent,1,3256.04362700604,7359.02526337216
11,104,3,346,0.5,-0.5,-0.5,4,4,0.8,4,518,1,1,518,0,0,1.4,NaN,-1.08451270591021,-1.08451270591021,750,1,0,congruent,0,2027.97267422569,593.001576781641
11,104,3,347,-0.5,0.5,0,2,NaN,0.8,3,701,0,1,NaN,0,0,1,0.2,0.291409944736704,NaN,750,0,1,neutral,0,7634.12216761926,3422.15297379721
11,104,3,348,0.5,0.5,-0.5,3,3,0.8,3,681,1,1,681,1,0,0.8,NaN,0.141035884556714,0.141035884556714,750,1,0,congruent,1,2351.34557126256,2381.98265786601
11,104,3,349,0.5,0.5,0,4,NaN,0.8,4,551,1,1,551,1,0,1.2,NaN,-0.836395506613225,-0.836395506613225,750,0,0,neutral,1,1672.27842847171,630.742054254116
11,104,3,350,0.5,-0.5,0.5,3,1,0.8,2,783,0,0,NaN,0,0,1.2,NaN,0.907943591474665,NaN,750,0,1,incongruent,0,686.475358692539,1272.93141568482
11,104,3,352,0.5,0.5,0,1,NaN,0.8,1,590,1,1,590,1,0,1.2,NaN,-0.543166089262243,-0.543166089262243,750,0,0,neutral,1,2943.60779487281,6061.18981151591
11,104,3,353,-0.5,0.5,-0.5,2,2,0.8,2,548,1,1,548,1,0,1.6,0.2,-0.858951615640223,-0.858951615640223,750,1,0,congruent,0.1,1191.66887850348,2869.37319356914
11,104,3,354,-0.5,0.5,0,4,NaN,0.8,4,520,1,1,520,1,0,1.4,0.4,-1.06947529989221,-1.06947529989221,750,0,0,neutral,0.1,4524.52138663969,1504.85058424502
11,104,3,355,0.5,0.5,0.5,1,3,1,2,866,0,0,NaN,0,0,1.2,NaN,1.53199594122163,NaN,750,0,1,incongruent,0,830.108444463358,4630.3391355127
11,104,3,357,0.5,0.5,-0.5,1,1,0.6,1,515,1,1,515,1,0,0.8,NaN,-1.10706881493721,-1.10706881493721,750,1,0,congruent,1,2064.06311197999,2346.82098046499
11,104,3,358,0.5,-0.5,0,3,NaN,0.6,3,681,1,1,681,1,0,0.8,NaN,0.141035884556714,0.141035884556714,750,0,0,neutral,1,846.822042389515,2925.57411961801
11,104,3,359,-0.5,-0.5,0.5,2,3,0.6,2,916,1,0,916,0,0,1,0.2,1.9079310916716,1.9079310916716,750,0,0,incongruent,0,1868.60515656815,6503.55054952366
11,104,3,360,0.5,-0.5,0,3,NaN,0.6,3,622,1,1,622,1,0,0.8,NaN,-0.302567592974258,-0.302567592974258,750,0,0,neutral,1,1761.7324963524,2988.6638122205
11,104,3,361,-0.5,-0.5,-0.5,4,4,0.6,4,480,1,1,480,0,0,1.2,0.2,-1.37022342025219,-1.37022342025219,750,1,0,congruent,0,1092.08630498287,1579.81996808582
11,104,3,362,0.5,0.5,-0.5,3,3,0.6,3,536,1,1,536,1,0,1.2,NaN,-0.949176051748218,-0.949176051748218,750,1,0,congruent,1,5067.39562262102,998.787493800421
11,104,3,363,0.5,-0.5,-0.5,1,1,0.6,1,699,1,1,699,0,0,1.2,NaN,0.276372538718705,0.276372538718705,750,1,0,congruent,0,1387.75368205935,1752.09884371149
11,104,3,364,0.5,-0.5,0,2,NaN,0.6,2,637,1,1,637,1,0,0.8,NaN,-0.189787047839266,-0.189787047839266,750,0,0,neutral,1,3974.23526271673,3828.6913234372
11,104,3,365,0.5,0.5,-0.5,4,4,0.6,4,490,1,1,490,1,0,1.2,NaN,-1.2950363901622,-1.2950363901622,750,1,0,congruent,1,2121.90627398723,2578.19634477494
11,104,3,366,-0.5,0.5,0,3,NaN,0.6,3,570,1,1,570,1,0,1.2,0.6,-0.693540149442234,-0.693540149442234,750,0,0,neutral,0.1,3728.75941594925,2323.20280002127
11,104,3,367,-0.5,0.5,0.5,2,4,0.8,3,596,0,1,NaN,0,0,1.4,0.6,-0.498053871208246,NaN,750,0,1,incongruent,0,8753.57326118066,2001.90281918484
11,104,3,368,0.5,0.5,0,4,NaN,0.8,4,519,1,1,519,1,0,1,NaN,-1.07699400290121,-1.07699400290121,750,0,0,neutral,1,3106.92921853649,734.441686063404
11,104,3,369,0.5,0.5,-0.5,1,1,0.8,2,801,0,0,NaN,0,0,1.4,NaN,1.04328024563666,NaN,750,0,1,congruent,0,4566.36914975639,2573.20364145953
11,104,3,370,-0.5,-0.5,0.5,4,2,0.6,4,625,1,1,625,1,0,1,0,-0.28001148394726,-0.28001148394726,750,0,0,incongruent,0.1,3425.38997401654,672.245417497301
11,104,3,371,0.5,0.5,0,3,NaN,0.6,3,684,1,1,684,1,0,0.8,NaN,0.163591993583712,0.163591993583712,750,0,0,neutral,1,1909.03132641123,2817.59163126298
11,104,3,372,-0.5,0.5,-0.5,1,1,0.6,1,715,1,1,715,1,0,1,0.6,0.396671786862697,0.396671786862697,750,1,0,congruent,0.1,564.868332657322,9692.10618001564
11,104,3,373,-0.5,0.5,-0.5,2,2,0.6,3,636,0,1,NaN,0,0,1.2,0.6,-0.197305750848265,NaN,750,0,1,congruent,0,4068.69646767869,2874.84365849645
11,104,3,374,-0.5,-0.5,0,4,NaN,0.6,4,475,1,1,475,0,0,0.8,0.2,-1.40781693529719,-1.40781693529719,750,0,0,neutral,0,2426.14061665545,2512.19332284039
11,104,3,375,0.5,-0.5,0.5,3,1,0.6,1,883,0,0,NaN,1,0,0.8,NaN,1.65981389237462,NaN,750,1,0,incongruent,1,2570.95635711613,2243.8415298013
11,104,3,376,-0.5,-0.5,0.5,2,3,0.6,3,881,0,0,NaN,1,0,1,0.2,1.64477648635662,NaN,750,1,0,incongruent,0.1,4469.39888269951,4404.47982045813
11,104,3,377,0.5,-0.5,0.5,3,1,0.6,1,673,0,1,NaN,1,0,0.8,NaN,0.0808862604847174,NaN,750,1,0,incongruent,1,2148.95092199329,3877.70758225339
11,104,3,378,0.5,-0.5,-0.5,2,2,0.6,2,545,1,1,545,0,0,1,NaN,-0.881507724667222,-0.881507724667222,750,1,0,congruent,0,4681.92244520657,4838.91832674181
11,104,3,379,0.5,0.5,0.5,3,4,0.6,4,560,0,1,NaN,0,0,1,NaN,-0.768727179532229,NaN,750,1,0,incongruent,0,1475.82323982005,3290.84947041866
11,104,3,380,0.5,-0.5,0.5,4,1,0.4,4,872,1,0,872,0,0,1,NaN,1.57710815927562,1.57710815927562,750,0,0,incongruent,0,1683.40189144378,919.321425127299
11,104,3,381,0.5,0.5,0.5,2,4,0.4,4,527,0,1,NaN,0,0,0.6,NaN,-1.01684437882921,NaN,750,1,0,incongruent,0,3649.78304543086,3725.81543641024
11,104,3,382,-0.5,-0.5,0,3,NaN,0.4,3,505,1,1,505,0,0,0.4,0.4,-1.1822558450272,-1.1822558450272,750,0,0,neutral,0,2117.381698055,1469.7320055585
11,104,3,383,-0.5,0.5,-0.5,1,1,0.4,2,579,0,1,NaN,0,0,0,0.4,-0.625871822361238,NaN,750,0,1,congruent,0,2611.40575872177,2023.66200295523
11,104,3,384,0.5,0.5,-0.5,2,2,0.2,2,705,1,1,705,1,0,0,NaN,0.321484756772702,0.321484756772702,750,1,0,congruent,1,4351.60859455841,3525.03766810449
11,104,3,386,0.5,-0.5,0,4,NaN,0.2,4,526,1,1,526,0,0,0.4,NaN,-1.02436308183821,-1.02436308183821,750,0,0,neutral,0,1736.2090904914,369.555159733715
11,104,3,387,-0.5,-0.5,-0.5,3,3,0.2,3,553,1,1,553,1,0,0.4,0.4,-0.821358100595226,-0.821358100595226,750,1,0,congruent,0.1,3709.27966536388,1269.26474238283
11,104,3,389,-0.5,0.5,0,3,NaN,0.2,3,697,1,1,697,1,0,0.6,0.4,0.261335132700706,0.261335132700706,750,0,0,neutral,0.1,947.823468908615,4025.23587493568
11,104,3,390,0.5,-0.5,-0.5,1,1,0.4,1,623,1,1,623,0,0,0.4,NaN,-0.295048889965259,-0.295048889965259,750,1,0,congruent,0,3354.4351268649,3891.71559232217
11,104,3,391,0.5,0.5,0.5,2,4,0.4,4,842,0,0,NaN,0,0,0.4,NaN,1.35154706900564,NaN,750,1,0,incongruent,0,1557.47003965239,3861.3024189069
11,104,3,392,0.5,0.5,-0.5,3,3,0.4,3,648,1,1,648,1,0,0.4,NaN,-0.107081314740271,-0.107081314740271,750,1,0,congruent,1,2362.9565203477,5061.21571638319
11,104,3,393,0.5,0.5,0.5,1,2,0.6,2,723,0,1,NaN,0,0,0.6,NaN,0.456821410934694,NaN,750,1,0,incongruent,0,4084.36749312293,5262.61166042407
11,104,3,394,-0.5,0.5,-0.5,4,4,0.4,4,566,1,1,566,1,0,0.6,0.4,-0.723614961478232,-0.723614961478232,750,1,0,congruent,0.1,4548.86802188637,6109.3632418202
11,104,3,395,-0.5,-0.5,0,3,NaN,0.6,3,499,1,1,499,0,0,0.6,0.6,-1.2273680630812,-1.2273680630812,750,0,0,neutral,0,1841.92878995669,3986.16940510611
11,104,3,396,0.5,-0.5,-0.5,4,4,0.6,4,530,1,1,530,1,0,0.6,NaN,-0.994288269802215,-0.994288269802215,750,1,0,congruent,1,1630.37746523673,897.008822879539
11,104,3,397,0.5,-0.5,0,3,NaN,0.6,3,571,1,1,571,0,0,1,NaN,-0.686021446433234,-0.686021446433234,750,0,0,neutral,0,3184.70706464488,2964.64483621096
11,104,3,398,-0.5,0.5,-0.5,4,4,0.6,4,510,1,1,510,1,0,0.6,0.6,-1.14466232998221,-1.14466232998221,750,1,0,congruent,0.1,3203.40410215833,755.282464987609
11,104,3,399,0.5,-0.5,0,1,NaN,0.6,3,567,0,1,NaN,1,0,0.8,NaN,-0.716096258469232,NaN,750,0,1,neutral,1,6203.5864236973,3727.73257056544
11,104,3,400,0.5,-0.5,-0.5,3,3,0.6,3,689,1,1,689,0,0,1,NaN,0.20118550862871,0.20118550862871,750,1,0,congruent,0,4803.71544395061,9128.54709568849
11,104,3,401,0.5,-0.5,0,4,NaN,0.6,4,512,1,1,512,0,0,1,NaN,-1.12962492396421,-1.12962492396421,750,0,0,neutral,0,4599.46517798673,784.163385585754
11,104,3,402,-0.5,-0.5,-0.5,3,3,0.6,3,450,1,1,450,1,0,0.6,0.4,-1.59578451052218,-1.59578451052218,750,1,0,congruent,0.1,1491.12640213143,1617.71641311436
11,104,3,403,-0.5,0.5,0.5,1,2,0.6,1,709,1,1,709,1,0,0.8,0.6,0.3515595688087,0.3515595688087,750,0,0,incongruent,0.1,3209.70878657019,4012.1108926242
11,104,3,404,-0.5,-0.5,0.5,2,4,0.8,4,549,0,1,NaN,1,0,0.8,0.6,-0.851432912631224,NaN,750,1,0,incongruent,0.1,1635.22425039445,1721.76627613623
11,104,3,405,-0.5,0.5,0,4,NaN,0.8,4,528,1,1,528,1,0,0.6,0.8,-1.00932567582021,-1.00932567582021,750,0,0,neutral,0.1,5532.28413016868,1374.25355253339
11,104,3,406,-0.5,-0.5,-0.5,3,3,0.8,3,570,1,1,570,1,0,0.8,0.6,-0.693540149442234,-0.693540149442234,750,1,0,congruent,0.1,2061.21081109056,3528.65041770762
11,104,3,407,-0.5,-0.5,-0.5,1,1,0.8,1,860,1,0,860,1,0,1,0.8,1.48688372316763,1.48688372316763,750,1,0,congruent,0.1,875.69371732416,1220.40559645525
11,104,3,408,-0.5,-0.5,-0.5,3,3,0.8,3,470,1,1,470,1,0,1,0.8,-1.44541045034219,-1.44541045034219,750,1,0,congruent,0.1,10572.8854300729,7700.92344506925
11,104,3,409,0.5,0.5,-0.5,4,4,0.8,4,450,1,1,450,1,0,1,NaN,-1.59578451052218,-1.59578451052218,750,1,0,congruent,1,357.703866729857,2395.12658137296
11,104,3,410,-0.5,-0.5,-0.5,3,3,1,3,511,1,1,511,1,0,1.2,1,-1.13714362697321,-1.13714362697321,750,1,0,congruent,0.1,743.926452571268,9217.42994064402
11,104,3,411,0.5,0.5,0,2,NaN,1,2,665,1,1,665,1,0,1.2,NaN,0.0207366364127212,0.0207366364127212,750,0,0,neutral,1,12914.8536716501,3315.17259367998
11,104,3,412,-0.5,0.5,-0.5,4,4,1,4,639,1,1,639,1,0,1.4,1,-0.174749641821266,-0.174749641821266,750,1,0,congruent,0.1,1414.68013367907,3357.75274854248
11,104,3,413,-0.5,0.5,-0.5,3,3,1,3,425,1,1,425,1,0,1.4,1,-1.78375208574716,-1.78375208574716,750,1,0,congruent,0.1,5461.08057883579,3069.03092110262
11,104,3,414,0.5,0.5,0.5,4,1,1,1,684,0,1,NaN,0,0,1.4,NaN,0.163591993583712,NaN,750,1,0,incongruent,0,4635.28995006835,1075.99576107664
11,104,3,415,0.5,-0.5,-0.5,2,2,0.8,3,451,0,1,NaN,1,0,1,NaN,-1.58826580751318,NaN,750,0,1,congruent,1,4443.8640230631,1217.20671174641
11,104,3,416,0.5,-0.5,-0.5,4,4,0.8,4,545,1,1,545,1,0,1.2,NaN,-0.881507724667222,-0.881507724667222,750,1,0,congruent,1,3068.37115613217,1212.90384262164
11,104,3,417,0.5,0.5,0,2,NaN,0.8,4,450,0,1,NaN,0,0,1.2,NaN,-1.59578451052218,NaN,750,0,1,neutral,0,5088.39230146506,3261.53302624922
11,104,3,418,0.5,0.5,0.5,1,2,0.6,4,602,0,1,NaN,0,0,1,NaN,-0.452941653154249,NaN,750,0,1,incongruent,0,1981.72961543767,1893.73996220955
11,104,3,419,0.5,-0.5,0,2,NaN,0.4,1,686,0,1,NaN,0,0,0.8,NaN,0.178629399601711,NaN,750,0,1,neutral,0,1923.08550679432,2063.41095370238
11,104,3,420,-0.5,-0.5,-0.5,1,1,0.4,1,878,1,0,878,1,0,0.8,1,1.62222037732962,1.62222037732962,750,1,0,congruent,0.1,3602.05567115622,2228.84487992147
11,104,3,421,-0.5,-0.5,0,2,NaN,0.4,1,636,0,1,NaN,1,0,0.6,1,-0.197305750848265,NaN,750,0,1,neutral,0.1,1120.08785944429,2673.37442408564
11,104,3,422,-0.5,0.5,0.5,3,2,0.4,1,634,0,1,NaN,0,0,0.4,1,-0.212343156866264,NaN,750,0,1,incongruent,0,1724.42040434485,2564.47939769072
11,104,3,423,0.5,0.5,0.5,4,3,0.2,4,667,1,1,667,1,0,0.4,NaN,0.0357740424307202,0.0357740424307202,750,0,0,incongruent,1,5261.8776227094,1993.80702758152
11,104,3,424,0.5,0.5,-0.5,2,2,0.2,1,605,0,1,NaN,0,0,0.8,NaN,-0.43038554412725,NaN,750,0,1,congruent,0,1934.79221742475,703.249730545384
11,104,3,425,0.5,0.5,0.5,4,3,0.2,4,448,1,1,448,1,0,0.8,NaN,-1.61082191654018,-1.61082191654018,750,0,0,incongruent,1,9298.74636579325,2453.54168510305
11,104,3,427,-0.5,0.5,0.5,4,1,0.4,1,702,0,1,NaN,0,0,1.2,0.8,0.298928647745704,NaN,750,1,0,incongruent,0,2099.33881238633,4384.23908219897
11,104,3,428,-0.5,0.5,-0.5,3,3,0.4,3,701,1,1,701,1,0,1.2,0.6,0.291409944736704,0.291409944736704,750,1,0,congruent,0.1,2078.17883852806,1500.4966986796
11,104,3,429,-0.5,0.5,0.5,4,1,0.6,4,637,1,1,637,1,0,1,0.6,-0.189787047839266,-0.189787047839266,750,0,0,incongruent,0.1,4477.07126746997,1448.32488823511
11,104,3,430,0.5,0.5,-0.5,3,3,0.6,3,766,1,0,766,0,0,1.2,NaN,0.780125640321673,0.780125640321673,750,1,0,congruent,0,1098.24369602454,1331.24716564942
11,104,3,431,-0.5,0.5,-0.5,4,4,0.6,4,507,1,1,507,1,0,0.8,0.6,-1.1672184390092,-1.1672184390092,750,1,0,congruent,0.1,4418.60494137732,4906.87891749221
11,104,3,433,-0.5,-0.5,0,2,NaN,0.6,1,658,0,1,NaN,1,0,0.6,1,-0.0318942846502755,NaN,750,0,1,neutral,0.1,5810.21270569785,1919.82330173215
11,104,3,435,-0.5,-0.5,-0.5,2,2,0.6,2,614,1,1,614,1,0,0.4,0.8,-0.362717217046255,-0.362717217046255,750,1,0,congruent,0.1,4422.41581127161,1409.40085834142
11,104,3,436,0.5,-0.5,0,1,NaN,0.6,1,740,1,1,740,0,0,0.6,NaN,0.584639362087686,0.584639362087686,750,0,0,neutral,0,2893.3220949465,3273.2051237491
11,104,3,437,0.5,-0.5,0.5,2,3,0.6,2,842,1,0,842,0,0,0.4,NaN,1.35154706900564,1.35154706900564,750,0,0,incongruent,0,7515.32043041365,5687.36702028996
11,104,3,438,0.5,-0.5,0,4,NaN,0.6,4,483,1,1,483,1,0,0.4,NaN,-1.34766731122519,-1.34766731122519,750,0,0,neutral,1,761.117896788044,1777.24474840226
11,104,3,439,-0.5,0.5,0.5,1,3,0.6,2,740,0,1,NaN,0,0,0.6,0.6,0.584639362087686,NaN,750,0,1,incongruent,0,788.895807945958,2833.47251186952
11,104,3,440,0.5,0.5,0.5,2,4,0.6,4,656,0,1,NaN,0,0,0.6,NaN,-0.0469316906682746,NaN,750,1,0,incongruent,0,2148.13035796273,920.664418378871
11,104,3,441,-0.5,-0.5,-0.5,3,3,0.4,3,619,1,1,619,0,0,0.4,0.8,-0.325123702001257,-0.325123702001257,750,1,0,congruent,0,4015.67538892862,7132.8895959971
11,104,3,442,0.5,0.5,-0.5,2,2,0.4,4,584,0,1,NaN,0,0,0.4,NaN,-0.58827830731624,NaN,750,0,1,congruent,0,2247.53193350744,5668.45431483496
11,104,3,443,0.5,0.5,0.5,4,3,0.2,4,526,1,1,526,1,0,0.4,NaN,-1.02436308183821,-1.02436308183821,750,0,0,incongruent,1,4273.18903293738,712.579602083318
11,104,3,444,0.5,-0.5,0,2,NaN,0.4,3,729,0,1,NaN,0,0,0.4,NaN,0.501933628988691,NaN,750,0,1,neutral,0,3590.51660617671,2157.73214021245
11,104,3,445,0.5,-0.5,0.5,3,2,0.4,2,749,0,1,NaN,0,0,0.4,NaN,0.652307689168681,NaN,750,1,0,incongruent,0,3357.46521488446,1947.17206919705
11,104,3,446,-0.5,0.5,0.5,2,4,0.4,4,468,0,1,NaN,0,0,0.4,0.6,-1.46044785636019,NaN,750,1,0,incongruent,0,1140.25352448725,2431.82227306176
11,104,3,447,0.5,0.5,0.5,4,1,0.2,4,450,1,1,450,1,0,0.4,NaN,-1.59578451052218,-1.59578451052218,750,0,0,incongruent,1,1443.35119686992,1933.14697179507
11,104,3,448,0.5,0.5,-0.5,2,2,0.4,2,801,1,0,801,0,0,0.8,NaN,1.04328024563666,1.04328024563666,750,1,0,congruent,0,1238.33548653752,5932.42109718828
11,104,3,449,0.5,-0.5,0,3,NaN,0.4,3,714,1,1,714,0,0,0.4,NaN,0.389153083853698,0.389153083853698,750,0,0,neutral,0,3162.42518757339,1429.24320566148
11,104,4,452,-0.5,0.5,0.5,2,4,0.4,3,700,0,1,NaN,0,0,0.6,0.6,0.283891241727705,NaN,750,0,1,incongruent,0,4029.98652854348,2490.484883114
11,104,4,453,-0.5,-0.5,0,3,NaN,0.2,3,710,1,1,710,0,0,0.2,0.6,0.3590782718177,0.3590782718177,750,0,0,neutral,0,1423.09733565689,6301.68992419421
11,104,4,454,0.5,0.5,0.5,2,4,0.2,4,429,0,1,NaN,0,0,0.2,NaN,-1.75367727371117,NaN,750,1,0,incongruent,0,3325.60831431715,4679.21683549923
11,104,4,455,-0.5,0.5,-0.5,1,1,0.2,2,553,0,1,NaN,0,0,0.2,0.4,-0.821358100595226,NaN,750,0,1,congruent,0,3809.32603184901,3567.11522964836
11,104,4,456,-0.5,-0.5,-0.5,2,2,0,3,517,0,1,NaN,0,0,0.2,0.4,-1.09203140891921,NaN,750,0,1,congruent,0,2514.01272632764,2960.50605183219
11,104,4,457,0.5,-0.5,0.5,1,4,0,4,557,0,1,NaN,0,0,0,NaN,-0.791283288559228,NaN,750,1,0,incongruent,0,3462.21463712756,1999.06703764986
11,104,4,458,-0.5,0.5,0,3,NaN,0,3,463,1,1,463,1,0,0,0.2,-1.49804137140518,-1.49804137140518,750,0,0,neutral,0.1,2975.60164480774,4028.84047622966
11,104,4,459,0.5,-0.5,-0.5,1,1,0.2,1,518,1,1,518,0,0,0.2,NaN,-1.08451270591021,-1.08451270591021,750,1,0,congruent,0,3548.16541391687,4253.90490617353
11,104,4,460,-0.5,0.5,-0.5,2,2,0.2,3,476,0,1,NaN,0,0,0.2,0.2,-1.40029823228819,NaN,750,0,1,congruent,0,3330.93857175021,320.631495453203
11,104,4,461,-0.5,-0.5,-0.5,4,4,0.2,4,385,1,1,385,0,0,0.2,0.4,-2.08450020610715,-2.08450020610715,750,1,0,congruent,0,2586.03823201707,1670.58776468645
11,104,4,462,-0.5,-0.5,-0.5,2,2,0.2,3,487,0,1,NaN,0,0,0.2,0.2,-1.31759249918919,NaN,750,0,1,congruent,0,7221.09622259242,2286.03842140344
11,104,4,463,-0.5,-0.5,0,4,NaN,0.2,4,411,1,1,411,0,0,0.2,0.2,-1.88901392787316,-1.88901392787316,750,0,0,neutral,0,6131.65523909405,3888.53746954581
11,104,4,464,-0.5,-0.5,-0.5,3,3,0.2,3,537,1,1,537,0,0,0,0,-0.941657348739218,-0.941657348739218,750,1,0,congruent,0,4613.12071478636,4584.83043058636
11,104,4,465,0.5,0.5,-0.5,4,4,0.2,4,496,1,1,496,1,0,0,NaN,-1.2499241721082,-1.2499241721082,750,1,0,congruent,1,7496.50334617315,1449.31062439334
11,104,4,466,-0.5,-0.5,0.5,1,2,0.4,1,642,1,1,642,0,0,0.4,0,-0.152193532794268,-0.152193532794268,750,0,0,incongruent,0,2180.9914033962,639.018523750717
11,104,4,467,0.5,-0.5,0.5,3,1,0.4,3,581,1,1,581,1,0,0.4,NaN,-0.610834416343239,-0.610834416343239,750,0,0,incongruent,1,3065.58309639545,5263.3342011029
11,104,4,468,0.5,-0.5,-0.5,4,4,0.4,4,442,1,1,442,0,0,0.8,NaN,-1.65593413459417,-1.65593413459417,750,1,0,congruent,0,4415.63131478145,1452.85364469283
11,104,4,469,0.5,-0.5,0,1,NaN,0.4,2,538,0,1,NaN,0,0,0.8,NaN,-0.934138645730219,NaN,750,0,1,neutral,0,3797.21740110229,4407.33429063281
11,104,4,470,-0.5,0.5,0.5,2,4,0.4,2,452,1,1,452,1,0,0.8,0.2,-1.58074710450418,-1.58074710450418,750,0,0,incongruent,0.1,1232.92018577743,3867.11830413675
11,104,4,471,0.5,0.5,0,1,NaN,0.6,2,646,0,1,NaN,0,0,0.6,NaN,-0.12211872075827,NaN,750,0,1,neutral,0,1168.2469597239,1444.46930712248
11,104,4,472,-0.5,0.5,-0.5,2,2,0.6,3,513,0,1,NaN,0,0,0.6,0.4,-1.12210622095521,NaN,750,0,1,congruent,0,2768.41139276645,1052.81975430364
11,104,4,473,0.5,-0.5,-0.5,3,3,0.4,3,597,1,1,597,1,0,0.2,NaN,-0.490535168199247,-0.490535168199247,750,1,0,congruent,1,4234.51950368893,2377.76699488697
11,104,4,474,0.5,0.5,0,1,NaN,0.4,4,550,0,1,NaN,0,0,0.6,NaN,-0.843914209622224,NaN,750,0,1,neutral,0,2007.59016645945,2779.83380534165
11,104,4,475,-0.5,0.5,-0.5,2,2,0.4,2,606,1,1,606,1,0,0.6,0.4,-0.422866841118251,-0.422866841118251,750,1,0,congruent,0.1,2280.62510690526,7296.84276077547
11,104,4,477,-0.5,-0.5,-0.5,2,2,0.2,2,636,1,1,636,0,0,0.6,0,-0.197305750848265,-0.197305750848265,750,1,0,congruent,0,7700.16192194534,5228.48508244681
11,104,4,478,0.5,0.5,0,1,NaN,0.2,1,749,1,1,749,1,0,0.6,NaN,0.652307689168681,0.652307689168681,750,0,0,neutral,1,3635.86460127167,1228.13842293565
11,104,4,479,-0.5,-0.5,-0.5,2,2,0.4,2,630,1,1,630,1,0,0.6,0,-0.242417968902262,-0.242417968902262,750,1,0,congruent,0.1,582.727106312975,4143.31438709015
11,104,4,480,-0.5,0.5,0,3,NaN,0.4,3,582,1,1,582,1,0,0.8,0.6,-0.603315713334239,-0.603315713334239,750,0,0,neutral,0.1,2960.45002862388,3819.24780274567
11,104,4,481,0.5,0.5,-0.5,1,1,0.6,1,719,1,1,719,1,0,0.8,NaN,0.426746598898695,0.426746598898695,750,1,0,congruent,1,1307.13913966295,2398.09802615331
11,104,4,482,-0.5,0.5,0,3,NaN,0.8,3,578,1,1,578,1,0,1.2,0.6,-0.633390525370238,-0.633390525370238,750,0,0,neutral,0.1,1880.71856139947,2746.90644478147
11,104,4,483,0.5,-0.5,-0.5,4,4,0.8,4,464,1,1,464,1,0,1.4,NaN,-1.49052266839618,-1.49052266839618,750,1,0,congruent,1,631.50593192579,1565.01256586267
11,104,4,484,0.5,0.5,-0.5,2,2,0.8,2,476,1,1,476,1,0,1.4,NaN,-1.40029823228819,-1.40029823228819,750,1,0,congruent,1,5265.51605075503,1342.27283731318
11,104,4,485,0.5,0.5,0.5,3,4,1,4,487,0,1,NaN,0,0,1.6,NaN,-1.31759249918919,NaN,750,1,0,incongruent,0,2598.32213705506,1700.44304950526
11,104,4,486,-0.5,-0.5,-0.5,1,1,0.8,1,521,1,1,521,1,0,1.4,0.2,-1.06195659688321,-1.06195659688321,750,1,0,congruent,0.1,1000.93519611028,2322.68149001787
11,104,4,487,-0.5,0.5,0,4,NaN,0.8,4,488,1,1,488,1,0,1.2,0.8,-1.31007379618019,-1.31007379618019,750,0,0,neutral,0.1,3207.95858795154,2925.18501267262
11,104,4,488,-0.5,-0.5,0.5,2,3,0.8,2,533,1,1,533,0,0,1.2,0.4,-0.971732160775216,-0.971732160775216,750,0,0,incongruent,0,1542.41335048041,4476.83007930519
11,104,4,489,0.5,-0.5,-0.5,4,4,0.8,4,491,1,1,491,0,0,0.8,NaN,-1.2875176871532,-1.2875176871532,750,1,0,congruent,0,2195.10920365035,2515.74174948762
11,104,4,490,-0.5,-0.5,0.5,1,3,0.8,2,682,0,1,NaN,0,0,0.4,0.4,0.148554587565713,NaN,750,0,1,incongruent,0,8332.25041295916,1404.63999982635
11,104,4,491,-0.5,-0.5,0.5,4,2,0.8,4,730,1,1,730,1,0,0.4,0.4,0.50945233199769,0.50945233199769,750,0,0,incongruent,0.1,6748.90515112602,5032.55094479362
11,104,4,492,0.5,0.5,0,2,NaN,0.8,2,727,1,1,727,1,0,0.4,NaN,0.486896222970692,0.486896222970692,750,0,0,neutral,1,13349.4528182928,2954.71436527645
11,104,4,493,-0.5,0.5,-0.5,1,1,0.8,1,479,1,1,479,1,0,0.6,0.8,-1.37774212326119,-1.37774212326119,750,1,0,congruent,0.1,1265.36566938204,2314.26184718004
11,104,4,494,-0.5,0.5,0.5,2,3,0.8,2,724,1,1,724,1,0,0.8,1,0.464340113943693,0.464340113943693,750,0,0,incongruent,0.1,7347.34241508218,898.224695047095
11,104,4,495,0.5,-0.5,0.5,4,1,0.8,4,645,1,1,645,1,0,1,NaN,-0.129637423767269,-0.129637423767269,750,0,0,incongruent,1,1878.69933497211,4291.18211789734
11,104,4,496,-0.5,-0.5,0.5,3,2,0.8,3,679,1,1,679,0,0,1.4,0.6,0.125998478538714,0.125998478538714,750,0,0,incongruent,0,8607.0997393497,4367.43688039752
11,104,4,497,-0.5,-0.5,0,4,NaN,0.8,4,511,1,1,511,1,0,1.2,0.4,-1.13714362697321,-1.13714362697321,750,0,0,neutral,0.1,2848.11498927468,1121.79257051327
11,104,4,498,-0.5,-0.5,0.5,3,4,0.8,4,623,0,1,NaN,0,0,1,0.4,-0.295048889965259,NaN,750,1,0,incongruent,0,4792.29685347403,1034.82919809738
11,104,4,499,-0.5,-0.5,0,1,NaN,0.8,2,622,0,1,NaN,1,0,0.8,0.4,-0.302567592974258,NaN,750,0,1,neutral,0.1,8330.89482793025,2650.17988784026
11,104,4,500,0.5,-0.5,-0.5,4,4,0.8,4,421,1,1,421,1,0,0.8,NaN,-1.81382689778316,-1.81382689778316,750,1,0,congruent,1,1755.07510684395,6620.40407273788
11,104,4,501,0.5,0.5,0,3,NaN,0.8,2,716,0,1,NaN,0,0,0.8,NaN,0.404190489871697,NaN,750,0,1,neutral,0,9061.36592329349,2894.24820100503
11,104,4,502,-0.5,-0.5,-0.5,2,2,0.8,3,608,0,1,NaN,1,0,0.8,0.6,-0.407829435100252,NaN,750,0,1,congruent,0.1,3307.38846598032,3257.31490362542
11,104,4,503,0.5,-0.5,-0.5,3,3,0.8,3,602,1,1,602,1,0,0.8,NaN,-0.452941653154249,-0.452941653154249,750,1,0,congruent,1,3164.39976160425,3358.10411263931
11,104,4,504,-0.5,0.5,0.5,1,2,0.8,1,596,1,1,596,1,0,1.2,1,-0.498053871208246,-0.498053871208246,750,0,0,incongruent,0.1,3318.71327952196,3220.6736856079
11,104,4,505,-0.5,0.5,0,4,NaN,0.8,4,517,1,1,517,1,0,1.2,1,-1.09203140891921,-1.09203140891921,750,0,0,neutral,0.1,2251.88455018854,2611.14608628767
11,104,4,506,0.5,0.5,-0.5,1,1,0.8,1,553,1,1,553,1,0,1,NaN,-0.821358100595226,-0.821358100595226,750,1,0,congruent,1,3856.01916793218,3900.89973234813
11,104,4,507,-0.5,-0.5,0,4,NaN,0.8,4,500,1,1,500,0,0,1.4,0.6,-1.2198493600722,-1.2198493600722,750,0,0,neutral,0,2130.30312021524,1779.12537789995
11,104,4,508,-0.5,-0.5,0.5,1,3,0.8,3,622,0,1,NaN,1,0,1.2,0.6,-0.302567592974258,NaN,750,1,0,incongruent,0.1,1226.44684415497,246.311736304579
11,104,4,509,0.5,0.5,-0.5,4,4,0.8,4,442,1,1,442,1,0,1,NaN,-1.65593413459417,-1.65593413459417,750,1,0,congruent,1,3269.7248663625,2412.06077113322
11,104,4,510,0.5,0.5,0,3,NaN,0.8,3,495,1,1,495,1,0,1.2,NaN,-1.2574428751172,-1.2574428751172,750,0,0,neutral,1,1152.18909462416,3604.91376304996
11,104,4,511,0.5,0.5,-0.5,2,2,1,3,589,0,1,NaN,0,0,1.4,NaN,-0.550684792271243,NaN,750,0,1,congruent,0,2377.30360523492,2682.39492495328
11,104,4,512,-0.5,0.5,0,4,NaN,0.8,4,402,1,1,402,1,0,1,1,-1.95668225495415,-1.95668225495415,750,0,0,neutral,0.1,1112.54220064902,2957.10403780896
11,104,4,513,0.5,0.5,0.5,2,4,0.8,3,784,0,0,NaN,0,0,1.2,NaN,0.915462294483665,NaN,750,0,1,incongruent,0,7674.69539044678,11654.5392611933
11,104,4,514,0.5,-0.5,0,3,NaN,0.6,3,674,1,1,674,1,0,1,NaN,0.0884049634937169,0.0884049634937169,750,0,0,neutral,1,2984.40790324866,4109.16705345037
11,104,4,515,0.5,0.5,-0.5,2,2,0.6,2,766,1,0,766,0,0,1,NaN,0.780125640321673,0.780125640321673,750,1,0,congruent,0,3991.02485266295,2307.59932868386
11,104,4,516,-0.5,-0.5,0.5,1,3,0.4,2,655,0,1,NaN,0,0,0.6,0.6,-0.0544503936772741,NaN,750,0,1,incongruent,0,1844.96885313855,1978.60582771977
11,104,4,517,0.5,-0.5,0.5,3,1,0.4,2,703,0,1,NaN,1,0,0.6,NaN,0.306447350754703,NaN,750,0,1,incongruent,1,5756.20915110204,4520.17060412639
11,104,4,518,-0.5,0.5,0.5,1,3,0.4,3,669,0,1,NaN,0,0,0.8,1,0.0508114484487193,NaN,750,1,0,incongruent,0,3490.4067667706,852.034708018466
11,104,4,519,0.5,-0.5,-0.5,2,2,0.2,2,597,1,1,597,0,0,0.8,NaN,-0.490535168199247,-0.490535168199247,750,1,0,congruent,0,3701.5634058782,3003.17448831481
11,104,4,520,0.5,0.5,-0.5,4,4,0.2,4,520,1,1,520,1,0,0.4,NaN,-1.06947529989221,-1.06947529989221,750,1,0,congruent,1,3370.4152724977,1000.50449140439
11,104,4,521,-0.5,-0.5,0,2,NaN,0.4,2,709,1,1,709,1,0,0.8,0.6,0.3515595688087,0.3515595688087,750,0,0,neutral,0.1,3469.32764849454,1273.21328672263
11,104,4,522,-0.5,0.5,-0.5,1,1,0.4,2,609,0,1,NaN,0,0,1,0.8,-0.400310732091252,NaN,750,0,1,congruent,0,1330.10463373718,953.705431306833
11,104,4,523,0.5,-0.5,0,4,NaN,0.2,4,441,1,1,441,0,0,0.6,NaN,-1.66345283760317,-1.66345283760317,750,0,0,neutral,0,2269.7566443625,6057.49952213462
11,104,4,524,-0.5,-0.5,-0.5,3,3,0.2,3,615,1,1,615,0,0,0.6,0.6,-0.355198514037255,-0.355198514037255,750,1,0,congruent,0,640.372926076507,4020.60059020035
11,104,4,525,-0.5,0.5,0,1,NaN,0.2,4,518,0,1,NaN,0,0,0.6,0.6,-1.08451270591021,NaN,750,0,1,neutral,0,3304.18444355983,3018.07402280082
11,104,4,527,-0.5,0.5,0.5,3,2,0.2,2,531,0,1,NaN,0,0,0.2,0.4,-0.986769566793215,NaN,750,1,0,incongruent,0,5607.23985423958,2382.05676715799
11,104,4,528,-0.5,0.5,0.5,2,3,0.2,3,617,0,1,NaN,0,0,0.2,0.2,-0.340161108019256,NaN,750,1,0,incongruent,0,1091.09404887588,1609.7004868193
11,104,4,529,0.5,-0.5,0.5,1,4,0.2,4,691,0,1,NaN,0,0,0.2,NaN,0.216222914646709,NaN,750,1,0,incongruent,0,1534.89247252392,1851.99541858138
11,104,4,530,-0.5,-0.5,0,3,NaN,0.2,3,666,1,1,666,1,0,0.2,0.6,0.0282553394217207,0.0282553394217207,750,0,0,neutral,0.1,8367.57206884687,3376.44912778553
11,104,4,531,-0.5,0.5,0.5,4,3,0.2,4,502,1,1,502,1,0,0.4,0,-1.2048119540542,-1.2048119540542,750,0,0,incongruent,0.1,1463.4837679895,1163.31753690926
11,104,4,532,-0.5,0.5,0,3,NaN,0.2,3,491,1,1,491,1,0,0.4,0.2,-1.2875176871532,-1.2875176871532,750,0,0,neutral,0.1,3058.97077224906,3356.85062294496
11,104,4,533,-0.5,0.5,-0.5,2,2,0.4,3,479,0,1,NaN,0,0,0.6,0.4,-1.37774212326119,NaN,750,0,1,congruent,0,4050.20762713644,3097.97845528526
11,104,4,534,0.5,0.5,0.5,4,3,0.4,2,372,0,1,NaN,0,0,0.6,NaN,-2.18224334522414,NaN,750,0,1,incongruent,0,3086.04855103268,2116.86168292861
11,104,4,535,-0.5,-0.5,-0.5,1,1,0.4,4,541,0,1,NaN,0,0,0.6,0.6,-0.91158253670322,NaN,750,0,1,congruent,0,3126.14261876756,813.676229658702
11,104,4,536,0.5,-0.5,0.5,3,2,0.4,3,578,1,1,578,0,0,0.4,NaN,-0.633390525370238,-0.633390525370238,750,0,0,incongruent,0,4079.99291074348,726.40358552241
11,104,4,537,-0.5,0.5,0.5,1,3,0.4,1,618,1,1,618,1,0,0.2,0.4,-0.332642405010256,-0.332642405010256,750,0,0,incongruent,0.1,12528.640269156,1989.43727221716
11,104,4,538,0.5,-0.5,0.5,2,4,0.6,4,493,0,1,NaN,1,0,0.2,NaN,-1.2724802811352,NaN,750,1,0,incongruent,1,2265.23700174024,2052.25411403804
11,104,4,539,0.5,-0.5,0,4,NaN,0.6,4,544,1,1,544,0,0,0.6,NaN,-0.889026427676221,-0.889026427676221,750,0,0,neutral,0,3030.96172454991,3031.49513004095
11,104,4,540,-0.5,0.5,-0.5,2,2,0.6,3,690,0,1,NaN,0,0,0.6,0.6,0.208704211637709,NaN,750,0,1,congruent,0,5289.2920103443,5477.91318923404
11,104,4,541,-0.5,-0.5,-0.5,1,1,0.4,1,558,1,1,558,0,0,0.6,0.6,-0.783764585550228,-0.783764585550228,750,1,0,congruent,0,2994.22317910754,3207.54728467955
11,104,4,542,0.5,0.5,0,2,NaN,0.4,3,686,0,1,NaN,0,0,0.6,NaN,0.178629399601711,NaN,750,0,1,neutral,0,8239.11858361094,2334.38149001733
11,104,4,543,-0.5,0.5,-0.5,4,4,0.2,4,542,1,1,542,1,0,0.4,0.6,-0.90406383369422,-0.90406383369422,750,1,0,congruent,0.1,849.275994675877,7283.29768609842
11,104,4,544,-0.5,0.5,0.5,2,3,0.4,2,528,1,1,528,1,0,0.2,0.6,-1.00932567582021,-1.00932567582021,750,0,0,incongruent,0.1,2716.16827618403,1444.82700034584
11,104,4,545,0.5,-0.5,0,4,NaN,0.6,4,557,1,1,557,1,0,0.4,NaN,-0.791283288559228,-0.791283288559228,750,0,0,neutral,1,3234.66511317172,828.95042739479
11,104,4,546,0.5,-0.5,-0.5,2,2,0.6,4,750,0,1,NaN,1,0,0.8,NaN,0.659826392177681,NaN,750,0,1,congruent,1,3025.53013471368,5841.78088479077
11,104,4,547,-0.5,-0.5,-0.5,4,4,0.6,4,568,1,1,568,1,0,1.2,0.4,-0.708577555460233,-0.708577555460233,750,1,0,congruent,0.1,1116.82647003733,792.503010365404
11,104,4,548,-0.5,0.5,0.5,2,1,0.6,2,494,1,1,494,1,0,1.4,0.6,-1.2649615781262,-1.2649615781262,750,0,0,incongruent,0.1,4213.03713429079,2705.80359494993
11,104,4,549,0.5,-0.5,0,4,NaN,0.6,4,526,1,1,526,1,0,1.4,NaN,-1.02436308183821,-1.02436308183821,750,0,0,neutral,1,2092.26690465889,3434.00309851236
11,104,4,550,0.5,-0.5,0.5,1,4,0.6,4,856,0,0,NaN,1,0,1.6,NaN,1.45680891113163,NaN,750,1,0,incongruent,1,3614.74842003484,2708.86684086859
11,104,4,551,0.5,0.5,0,4,NaN,0.6,4,551,1,1,551,1,0,1.6,NaN,-0.836395506613225,-0.836395506613225,750,0,0,neutral,1,3722.14427004329,804.743417500116
11,104,4,552,0.5,0.5,-0.5,3,3,0.8,3,670,1,1,670,1,0,1.6,NaN,0.0583301514577188,0.0583301514577188,750,1,0,congruent,1,946.389753552616,6379.54450299189
11,104,4,553,-0.5,-0.5,0.5,4,2,1,2,695,0,1,NaN,1,0,1.8,0.6,0.246297726682707,NaN,750,1,0,incongruent,0.1,4381.32770490232,2027.57664833725
11,104,4,554,-0.5,0.5,-0.5,1,1,1,2,700,0,1,NaN,0,0,1.8,0.8,0.283891241727705,NaN,750,0,1,congruent,0,2933.2294903199,8843.077015338
11,104,4,555,0.5,0.5,0,4,NaN,0.8,4,469,1,1,469,1,0,1.4,NaN,-1.45292915335119,-1.45292915335119,750,0,0,neutral,1,6132.17976458137,2545.51808426556
11,104,4,556,0.5,-0.5,-0.5,3,3,0.8,2,584,0,1,NaN,1,0,1.4,NaN,-0.58827830731624,NaN,750,0,1,congruent,1,4998.20288021052,2266.80159317412
11,104,4,557,-0.5,-0.5,0.5,4,1,0.8,1,796,0,0,NaN,1,0,1.4,0.6,1.00568673059166,NaN,750,1,0,incongruent,0.1,8558.84627910915,2722.09755831518
11,104,4,558,0.5,0.5,0,2,NaN,0.8,2,730,1,1,730,1,0,1.2,NaN,0.50945233199769,0.50945233199769,750,0,0,neutral,1,2291.6454084823,4765.29618430273
11,104,4,559,-0.5,-0.5,-0.5,4,4,0.8,4,521,1,1,521,1,0,1.4,0.6,-1.06195659688321,-1.06195659688321,750,1,0,congruent,0.1,1919.50194366623,1730.54480796422
11,104,4,560,0.5,0.5,0,1,NaN,0.8,2,595,0,1,NaN,0,0,1.6,NaN,-0.505572574217246,NaN,750,0,1,neutral,0,4270.44744477955,2591.40922828715
11,104,4,561,0.5,0.5,-0.5,2,2,0.6,2,918,1,0,918,0,0,1.2,NaN,1.9229684976896,1.9229684976896,750,1,0,congruent,0,6490.55097177938,2918.94880089235
11,104,4,562,-0.5,-0.5,-0.5,4,4,0.4,4,446,1,1,446,0,0,0.8,0.8,-1.62585932255817,-1.62585932255817,750,1,0,congruent,0,4302.87769517821,906.699622259627
11,104,4,563,-0.5,-0.5,0.5,1,2,0.4,2,773,0,0,NaN,1,0,0.6,0.8,0.83275656138467,NaN,750,1,0,incongruent,0.1,1193.3065478327,2244.53002046351
11,104,4,565,0.5,0.5,0.5,1,4,0.4,4,576,0,1,NaN,0,0,0.2,NaN,-0.648427931388237,NaN,750,1,0,incongruent,0,1991.57822905601,5113.50682988124
11,104,4,566,0.5,0.5,-0.5,3,3,0.2,3,566,1,1,566,1,0,0.2,NaN,-0.723614961478232,-0.723614961478232,750,1,0,congruent,1,2699.47560315613,677.431095417916
11,104,4,567,0.5,0.5,-0.5,2,2,0.2,2,706,1,1,706,1,0,0.6,NaN,0.329003459781702,0.329003459781702,750,1,0,congruent,1,37076.4345041052,7293.3848430075
11,104,4,568,-0.5,-0.5,0.5,4,1,0.4,4,437,1,1,437,0,0,1,0.8,-1.69352764963917,-1.69352764963917,750,0,0,incongruent,0,4397.097633541,1884.83294922717
11,104,4,569,-0.5,-0.5,-0.5,3,3,0.4,3,573,1,1,573,1,0,0.8,0.6,-0.670984040415235,-0.670984040415235,750,1,0,congruent,0.1,5379.16053438248,1711.32819324962
11,104,4,570,0.5,-0.5,0,4,NaN,0.4,4,569,1,1,569,1,0,1,NaN,-0.701058852451233,-0.701058852451233,750,0,0,neutral,1,4281.91856550781,1301.84214734954
11,104,4,571,0.5,0.5,-0.5,1,1,0.4,2,686,0,1,NaN,0,0,1.4,NaN,0.178629399601711,NaN,750,0,1,congruent,0,3941.39806789889,3819.90276263622
11,104,4,572,-0.5,-0.5,0,4,NaN,0.4,4,517,1,1,517,1,0,1,0.6,-1.09203140891921,-1.09203140891921,750,0,0,neutral,0.1,4953.27946480435,2633.15140359312
11,104,4,573,-0.5,-0.5,-0.5,1,1,0.4,2,664,0,1,NaN,0,0,0.8,0.6,0.0132179334037216,NaN,750,0,1,congruent,0,1247.32973641814,1864.13595290169
11,104,4,574,0.5,-0.5,0.5,3,4,0.4,4,491,0,1,NaN,1,0,0.8,NaN,-1.2875176871532,NaN,750,1,0,incongruent,1,2742.63234081401,4227.99364023599
11,104,4,575,0.5,-0.5,0,4,NaN,0.4,4,537,1,1,537,0,0,1,NaN,-0.941657348739218,-0.941657348739218,750,0,0,neutral,0,4552.74093334454,1490.39441249139
11,104,4,576,0.5,-0.5,-0.5,3,3,0.4,3,723,1,1,723,0,0,0.6,NaN,0.456821410934694,0.456821410934694,750,1,0,congruent,0,5680.7543484302,1962.165108109
11,104,4,577,-0.5,0.5,0,4,NaN,0.4,4,416,1,1,416,1,0,0.6,0.6,-1.85142041282816,-1.85142041282816,750,0,0,neutral,0.1,8577.40549721641,5720.20244399022
11,104,4,578,-0.5,-0.5,0.5,1,4,0.6,4,495,0,1,NaN,0,0,0.6,0.6,-1.2574428751172,NaN,750,1,0,incongruent,0,1874.7760940112,2532.55970386984
11,104,4,579,0.5,0.5,0.5,2,1,0.6,4,800,0,0,NaN,0,0,0.6,NaN,1.03576154262766,NaN,750,0,1,incongruent,0,2786.3685500007,1733.11199563867
11,104,4,581,0.5,0.5,-0.5,4,4,0.4,4,397,1,1,397,1,0,0.2,NaN,-1.99427576999915,-1.99427576999915,750,1,0,congruent,1,886.959177766153,3381.83625941635
11,104,4,582,-0.5,0.5,0.5,1,3,0.4,3,630,0,1,NaN,0,0,0.6,0.4,-0.242417968902262,NaN,750,1,0,incongruent,0,6223.07514416605,4389.68141707811
11,104,4,583,0.5,0.5,0.5,2,4,0.4,4,520,0,1,NaN,0,0,0.4,NaN,-1.06947529989221,NaN,750,1,0,incongruent,0,1322.20593038476,3872.12388551784
11,104,4,584,-0.5,0.5,0,4,NaN,0.2,4,607,1,1,607,1,0,0.4,0.2,-0.415348138109251,-0.415348138109251,750,0,0,neutral,0.1,5441.86377796533,2469.55811926494
11,104,4,585,-0.5,0.5,0.5,2,4,0.4,4,561,0,1,NaN,0,0,0.6,0.4,-0.761208476523229,NaN,750,1,0,incongruent,0,1441.95227409428,1775.61669222143
11,104,4,586,-0.5,0.5,-0.5,3,3,0.4,3,683,1,1,683,1,0,0.6,0.4,0.156073290574713,0.156073290574713,750,1,0,congruent,0.1,1804.86612952484,4534.35907292776
11,104,4,587,0.5,0.5,-0.5,4,4,0.4,4,435,1,1,435,1,0,0.4,NaN,-1.70856505565717,-1.70856505565717,750,1,0,congruent,1,1615.1875587206,3151.85863238248
11,104,4,588,0.5,0.5,-0.5,1,1,0.6,1,570,1,1,570,1,0,0.8,NaN,-0.693540149442234,-0.693540149442234,750,1,0,congruent,1,1741.31758546155,599.076350093458
11,104,4,589,-0.5,0.5,-0.5,2,2,0.8,2,694,1,1,694,1,0,1.2,0.4,0.238779023673707,0.238779023673707,750,1,0,congruent,0.1,1404.3569433,3203.35161943138
11,104,4,590,-0.5,-0.5,-0.5,3,3,0.8,3,500,1,1,500,1,0,1.2,0.4,-1.2198493600722,-1.2198493600722,750,1,0,congruent,0.1,2936.29233312301,5913.41658642958
11,104,4,591,0.5,-0.5,0.5,4,1,0.8,4,343,1,1,343,1,0,1.4,NaN,-2.40028573248513,-2.40028573248513,750,0,0,incongruent,1,5173.26606743967,2056.86929437334
11,104,4,592,0.5,0.5,0.5,3,4,0.8,2,862,0,0,NaN,0,0,1.6,NaN,1.50192112918563,NaN,750,0,1,incongruent,0,2447.22548112914,8085.06978054325
11,104,4,593,-0.5,0.5,0.5,1,2,0.8,2,784,0,0,NaN,0,0,1.2,0.6,0.915462294483665,NaN,750,1,0,incongruent,0,5065.78105783842,1326.47116532843
11,104,4,594,0.5,-0.5,0.5,4,1,0.6,4,451,1,1,451,1,0,0.8,NaN,-1.58826580751318,-1.58826580751318,750,0,0,incongruent,1,1569.83283717065,3303.04871979335
11,104,4,595,-0.5,0.5,-0.5,2,2,0.6,3,580,0,1,NaN,0,0,1,0.6,-0.618353119352238,NaN,750,0,1,congruent,0,3352.91340106513,8661.83513330754
11,104,4,596,-0.5,-0.5,-0.5,4,4,0.4,4,627,1,1,627,0,0,0.8,0.6,-0.264974077929261,-0.264974077929261,750,1,0,congruent,0,3111.67758564611,954.197112607636
11,104,4,597,0.5,0.5,0,1,NaN,0.4,2,730,0,1,NaN,0,0,0.4,NaN,0.50945233199769,NaN,750,0,1,neutral,0,3906.352173578,1208.64531104195
11,104,4,598,-0.5,0.5,-0.5,2,2,0.2,3,771,0,0,NaN,0,0,0.4,0.4,0.817719155366671,NaN,750,0,1,congruent,0,1805.52892048968,5410.75071352785
11,104,4,599,-0.5,-0.5,-0.5,4,4,0,4,463,1,1,463,0,0,0.4,0.4,-1.49804137140518,-1.49804137140518,750,1,0,congruent,0,1334.90024120769,3020.65637373112
11,104,4,600,-0.5,0.5,0,1,NaN,0,1,689,1,1,689,1,0,0,0.4,0.20118550862871,0.20118550862871,750,0,0,neutral,0.1,3013.79433762336,1694.65935400101
