subid,vers,block,trial,rewlvl,efflvl,congruency,targetresp,distractorresp,rollingefflvl,resp,rt,acc,fast,accrt,isrewarded,ismiss,runavgrrgen,runavgrrcond,zrt,acczrt,rtthreshold,isdisterror,isranderror,congruence,feedback,fcz_resp_theta,fcz_resp_theta_baseline
12,104,1,1,0.5,-0.5,0,2,NaN,0.3,2,868,1,0,868,1,0,0,NaN,1.3819369394907,1.3819369394907,750,0,0,neutral,1,1173.49104829016,441.500246954452
12,104,1,2,0.5,-0.5,0.5,3,4,0.3,3,832,1,0,832,0,0,0.4,NaN,1.13892467106402,1.13892467106402,750,0,0,incongruent,0,795.150183326463,5292.21930821408
12,104,1,3,-0.5,-0.5,0.5,1,3,0.3,1,865,1,0,865,1,0,0.4,0,1.36168591712181,1.36168591712181,750,0,0,incongruent,0.1,1119.37012956408,6806.59752508692
12,104,1,4,0.5,-0.5,0.5,2,4,0.3,2,745,1,1,745,0,0,0.6,NaN,0.551645022366211,0.551645022366211,750,0,0,incongruent,0,831.625877494159,5254.58293443658
12,104,1,5,0.5,0.5,0,3,NaN,0.3,3,654,1,1,654,1,0,0.6,NaN,-0.0626359894901146,-0.0626359894901146,750,0,0,neutral,1,3573.33073724863,5413.90906780109
12,104,1,6,-0.5,0.5,-0.5,1,1,0.5,1,620,1,1,620,1,0,1,0,-0.292147576337533,-0.292147576337533,750,1,0,congruent,0.1,3216.79299572361,5526.29000621055
12,104,1,7,0.5,-0.5,0,2,NaN,0.6,2,530,1,1,530,1,0,0.8,NaN,-0.899678247404229,-0.899678247404229,750,0,0,neutral,1,1541.6193463192,3343.3547908951
12,104,1,8,0.5,0.5,-0.5,4,4,0.6,4,522,1,1,522,1,0,1.2,NaN,-0.953680973721269,-0.953680973721269,750,1,0,congruent,1,3146.19213923597,2996.4889518029
12,104,1,9,-0.5,-0.5,-0.5,3,3,0.7,3,773,1,0,773,1,0,1.4,0.2,0.74065456447585,0.74065456447585,750,1,0,congruent,0.1,793.872134504218,3874.52188176878
12,104,1,11,-0.5,0.5,0.5,1,4,0.7,1,781,1,0,781,0,0,1.2,0.2,0.79465729079289,0.79465729079289,750,0,0,incongruent,0,255.308503644865,1737.23915504317
12,104,1,12,0.5,-0.5,-0.5,3,3,0.7,3,471,1,1,471,1,0,1,NaN,-1.2979483539924,-1.2979483539924,750,1,0,congruent,1,2046.93152272225,3374.56674077518
12,104,1,13,-0.5,0.5,0,4,NaN,0.7,4,780,1,0,780,0,0,1,0.2,0.78790695000326,0.78790695000326,750,0,0,neutral,0,1079.9069891983,600.60721910298
12,104,1,14,0.5,-0.5,-0.5,2,2,0.6,2,569,1,1,569,0,0,0.6,NaN,-0.636414956608661,-0.636414956608661,750,1,0,congruent,0,892.052660243261,1913.58475480025
12,104,1,15,-0.5,0.5,0,4,NaN,0.6,4,629,1,1,629,1,0,0.4,0.2,-0.231394509230863,-0.231394509230863,750,0,0,neutral,0.1,2170.5162227222,1275.05992041203
12,104,1,16,0.5,0.5,0.5,3,1,0.6,2,999,0,0,NaN,0,0,0.6,NaN,2.26623158293222,NaN,750,0,1,incongruent,0,3149.45785243024,1322.70475002512
12,104,1,18,0.5,-0.5,-0.5,1,1,0.2,1,512,1,1,512,0,0,0.2,NaN,-1.02118438161757,-1.02118438161757,750,1,0,congruent,0,964.297043453765,572.938975315573
12,104,1,19,0.5,0.5,-0.5,2,2,0.2,2,603,1,1,603,1,0,0.2,NaN,-0.406903369761242,-0.406903369761242,750,1,0,congruent,1,1536.49240057017,2675.44796921869
12,104,1,21,-0.5,0.5,0,2,NaN,0.4,2,692,1,1,692,1,0,0.4,0.4,0.193876960515824,0.193876960515824,750,0,0,neutral,0.1,7301.84360436229,1945.35197186771
12,104,1,22,-0.5,0.5,-0.5,1,1,0.4,1,635,1,1,635,1,0,0.6,0.6,-0.190892464493084,-0.190892464493084,750,1,0,congruent,0.1,4049.82198183138,1391.07052208199
12,104,1,23,0.5,-0.5,-0.5,3,3,0.6,3,950,1,0,950,1,0,0.8,NaN,1.93546488424035,1.93546488424035,750,1,0,congruent,1,2796.22320636436,1444.41998612917
12,104,1,24,-0.5,-0.5,0,1,NaN,0.6,1,630,1,1,630,1,0,1.2,0.4,-0.224644168441234,-0.224644168441234,750,0,0,neutral,0.1,2134.97122492895,1843.04754589076
12,104,1,25,-0.5,0.5,-0.5,2,2,0.6,2,699,1,1,699,1,0,1,0.6,0.241129346043233,0.241129346043233,750,1,0,congruent,0.1,3505.90820291617,3321.64714271221
12,104,1,26,0.5,-0.5,0,1,NaN,0.8,1,584,1,1,584,1,0,1.2,NaN,-0.535159844764212,-0.535159844764212,750,0,0,neutral,1,1229.72502672871,1841.74380471397
12,104,1,27,0.5,-0.5,0.5,4,1,0.8,4,744,1,1,744,1,0,1.4,NaN,0.544894681576581,0.544894681576581,750,0,0,incongruent,1,5526.96251740345,1991.23664832316
12,104,1,28,0.5,0.5,0,3,NaN,0.8,3,690,1,1,690,1,0,1.6,NaN,0.180376278936564,0.180376278936564,750,0,0,neutral,1,3173.65053639371,2541.41353911452
12,104,1,29,-0.5,0.5,-0.5,1,1,0.8,1,532,1,1,532,1,0,1.6,0.8,-0.886177565824969,-0.886177565824969,750,1,0,congruent,0.1,2684.38950661732,1160.28425450354
12,104,1,30,0.5,-0.5,-0.5,2,2,1,2,538,1,1,538,1,0,1.6,NaN,-0.845675521087189,-0.845675521087189,750,1,0,congruent,1,2265.0287416899,4164.53537735902
12,104,1,31,0.5,0.5,0,3,NaN,1,3,630,1,1,630,1,0,1.8,NaN,-0.224644168441234,-0.224644168441234,750,0,0,neutral,1,2595.46444517275,2440.40045336181
12,104,1,32,-0.5,0.5,0.5,4,2,1,4,790,1,0,790,0,0,1.8,1,0.855410357899559,0.855410357899559,750,0,0,incongruent,0,1078.7513130799,912.624489655704
12,104,1,33,-0.5,0.5,0.5,1,4,0.8,1,770,1,0,770,0,0,1.4,0.8,0.72040354210696,0.72040354210696,750,0,0,incongruent,0,3257.47096083713,3816.09865231556
12,104,1,34,-0.5,-0.5,0.5,4,3,0.6,4,861,1,0,861,1,0,1,0.6,1.33468455396329,1.33468455396329,750,0,0,incongruent,0.1,1786.52767832454,2732.61542451465
12,104,1,35,-0.5,0.5,0.5,2,4,0.6,2,627,1,1,627,1,0,1,0.6,-0.244895190810123,-0.244895190810123,750,0,0,incongruent,0.1,3254.94481960175,3072.16737324912
12,104,1,38,0.5,-0.5,0.5,4,1,0.6,4,880,1,0,880,1,0,0.4,NaN,1.46294102896626,1.46294102896626,750,0,0,incongruent,1,1513.0021722989,637.206281942648
12,104,1,39,0.5,-0.5,0,1,NaN,0.6,1,579,1,1,579,1,0,0.8,NaN,-0.568911548712361,-0.568911548712361,750,0,0,neutral,1,2979.09505595056,3385.81367226691
12,104,1,41,-0.5,0.5,0.5,3,4,0.6,2,799,0,0,NaN,0,0,0.8,0.6,0.916163425006229,NaN,750,0,1,incongruent,0,5918.50948295365,5005.82394094747
12,104,1,42,-0.5,-0.5,-0.5,2,2,0.4,2,779,1,0,779,0,0,0.8,0.6,0.78115660921363,0.78115660921363,750,1,0,congruent,0,2248.21463704862,5660.08377079561
12,104,1,43,-0.5,0.5,-0.5,1,1,0.4,1,651,1,1,651,1,0,0.8,0.4,-0.0828870118590045,-0.0828870118590045,750,1,0,congruent,0.1,1983.76973365452,1518.30115244213
12,104,1,44,0.5,0.5,-0.5,2,2,0.4,2,599,1,1,599,1,0,0.6,NaN,-0.433904732919762,-0.433904732919762,750,1,0,congruent,1,2214.93752887304,4170.55590346163
12,104,1,45,-0.5,0.5,0,1,NaN,0.6,1,530,1,1,530,1,0,0.6,0.4,-0.899678247404229,-0.899678247404229,750,0,0,neutral,0.1,1788.10628255977,1736.18163293091
12,104,1,46,-0.5,-0.5,-0.5,3,3,0.8,3,802,1,0,802,0,0,0.8,0.4,0.936414447375119,0.936414447375119,750,1,0,congruent,0,4545.61139733982,272.013807890167
12,104,1,49,0.5,-0.5,-0.5,4,4,0.6,4,698,1,1,698,0,0,0.8,NaN,0.234379005253603,0.234379005253603,750,1,0,congruent,0,1826.30800940951,4159.77734566742
12,104,1,50,0.5,-0.5,-0.5,2,2,0.6,2,917,1,0,917,0,0,0.4,NaN,1.71270363818256,1.71270363818256,750,1,0,congruent,0,1340.38087955874,3603.72079961345
12,104,1,51,-0.5,-0.5,0,4,NaN,0.6,4,782,1,0,782,1,0,0.2,0.2,0.80140763158252,0.80140763158252,750,0,0,neutral,0.1,1427.8446652039,5306.67988954906
12,104,1,52,-0.5,-0.5,0.5,1,2,0.6,1,910,1,0,910,1,0,0.4,0.4,1.66545125265515,1.66545125265515,750,0,0,incongruent,0.1,2969.18731046654,5164.57019420121
12,104,1,54,-0.5,0.5,-0.5,2,2,0.6,2,733,1,1,733,1,0,0.4,0.4,0.470640932890652,0.470640932890652,750,1,0,congruent,0.1,6310.30213959172,5743.10374342601
12,104,1,55,-0.5,0.5,0.5,1,4,0.6,1,907,1,0,907,0,0,0.6,0.6,1.64520023028626,1.64520023028626,750,0,0,incongruent,0,4575.39919711291,2162.52582867797
12,104,1,56,0.5,-0.5,-0.5,2,2,0.4,2,660,1,1,660,1,0,0.6,NaN,-0.0221339447523349,-0.0221339447523349,750,1,0,congruent,1,2370.68293336278,1151.07578123309
12,104,1,57,-0.5,0.5,0.5,4,1,0.4,4,782,1,0,782,0,0,0.8,0.4,0.80140763158252,0.80140763158252,750,0,0,incongruent,0,4108.98605936506,2077.16660214141
12,104,1,58,0.5,0.5,0,3,NaN,0.2,3,605,1,1,605,1,0,0.6,NaN,-0.393402688181982,-0.393402688181982,750,0,0,neutral,1,3175.3715570996,1332.58102271906
12,104,1,60,-0.5,-0.5,0.5,1,4,0.4,1,873,1,0,873,0,0,0.8,0.6,1.41568864343885,1.41568864343885,750,0,0,incongruent,0,2821.30486264336,2221.48036930285
12,104,1,61,0.5,0.5,-0.5,3,3,0.4,3,644,1,1,644,1,0,0.8,NaN,-0.130139397386414,-0.130139397386414,750,1,0,congruent,1,3078.08447048796,469.81057508264
12,104,1,62,0.5,0.5,-0.5,2,2,0.6,2,618,1,1,618,1,0,0.8,NaN,-0.305648257916793,-0.305648257916793,750,1,0,congruent,1,2636.37539636739,1297.96481317828
12,104,1,63,-0.5,0.5,0,1,NaN,0.6,1,515,1,1,515,1,0,1.2,0.2,-1.00093335924868,-1.00093335924868,750,0,0,neutral,0.1,2039.41660488095,3511.33246647796
12,104,1,64,-0.5,0.5,-0.5,3,3,0.8,3,804,1,0,804,0,0,1,0.4,0.949915128954379,0.949915128954379,750,1,0,congruent,0,1082.09085500773,3176.57987950411
12,104,1,66,0.5,0.5,0.5,1,3,0.8,1,789,1,0,789,0,0,1.2,NaN,0.848660017109929,0.848660017109929,750,0,0,incongruent,0,5315.12972988057,5774.34034838843
12,104,1,69,0.5,-0.5,-0.5,4,4,0.2,4,761,1,0,761,0,0,0.2,NaN,0.659650475000291,0.659650475000291,750,1,0,congruent,0,1423.73146856433,3439.69155037939
12,104,1,70,0.5,-0.5,-0.5,2,2,0.2,2,680,1,1,680,0,0,0.2,NaN,0.112872871040264,0.112872871040264,750,1,0,congruent,0,5581.0810810355,891.906062782823
12,104,1,71,0.5,0.5,-0.5,3,3,0.2,3,575,1,1,575,1,0,0,NaN,-0.595912911870881,-0.595912911870881,750,1,0,congruent,1,1342.84404740184,2226.48651176423
12,104,1,72,0.5,0.5,-0.5,2,2,0.2,2,592,1,1,592,1,0,0.4,NaN,-0.481157118447172,-0.481157118447172,750,1,0,congruent,1,1749.8723693171,564.218540286693
12,104,1,73,0.5,0.5,0.5,3,1,0.4,3,937,1,0,937,0,0,0.8,NaN,1.84771045397516,1.84771045397516,750,0,0,incongruent,0,2299.46122226246,2145.35190995337
12,104,1,74,-0.5,0.5,-0.5,4,4,0.4,4,626,1,1,626,1,0,0.8,0.2,-0.251645531599753,-0.251645531599753,750,1,0,congruent,0.1,2208.44553280681,2137.54694845167
12,104,1,75,0.5,0.5,0.5,2,1,0.6,3,814,0,0,NaN,0,0,1,NaN,1.01741853685068,NaN,750,0,1,incongruent,0,8908.78871788731,3266.08094792738
12,104,1,76,0.5,0.5,-0.5,3,3,0.6,3,684,1,1,684,1,0,1,NaN,0.139874234198784,0.139874234198784,750,1,0,congruent,1,1121.83881684263,2068.27922216183
12,104,1,77,-0.5,-0.5,0,4,NaN,0.6,4,682,1,1,682,0,0,1,0.8,0.126373552619524,0.126373552619524,750,0,0,neutral,0,1113.10336007021,7478.69254191032
12,104,1,78,0.5,-0.5,0.5,1,3,0.6,1,904,1,0,904,1,0,0.6,NaN,1.62494920791737,1.62494920791737,750,0,0,incongruent,1,3199.75433441048,3679.30767977025
12,104,1,80,0.5,-0.5,0.5,4,2,0.6,4,791,1,0,791,1,0,1,NaN,0.862160698689189,0.862160698689189,750,0,0,incongruent,1,1070.94789295121,6650.82693310053
12,104,1,81,-0.5,0.5,-0.5,3,3,0.6,3,705,1,1,705,1,0,1.4,0.4,0.281631390781013,0.281631390781013,750,1,0,congruent,0.1,3047.52925111998,8769.93921987363
12,104,1,82,0.5,0.5,0.5,4,2,0.6,4,714,1,1,714,1,0,1.2,NaN,0.342384457887683,0.342384457887683,750,0,0,incongruent,1,773.639529853705,4612.7193266504
12,104,1,83,0.5,-0.5,0,1,NaN,0.8,1,716,1,1,716,1,0,1.6,NaN,0.355885139466943,0.355885139466943,750,0,0,neutral,1,2528.35370854472,5973.81426822335
12,104,1,84,0.5,-0.5,0.5,4,3,0.8,4,750,1,1,750,0,0,1.6,NaN,0.585396726314361,0.585396726314361,750,0,0,incongruent,0,1181.83998379388,2419.25639785896
12,104,1,85,0.5,-0.5,-0.5,1,1,0.8,1,482,1,1,482,1,0,1.4,NaN,-1.22369460530647,-1.22369460530647,750,1,0,congruent,1,543.673471366731,677.599158865518
12,104,1,86,0.5,0.5,0.5,4,2,0.8,4,743,1,1,743,1,0,1.4,NaN,0.538144340786952,0.538144340786952,750,0,0,incongruent,1,1727.34950851117,710.712499332948
12,104,1,87,0.5,0.5,-0.5,1,1,0.8,1,746,1,1,746,1,0,1.6,NaN,0.558395363155841,0.558395363155841,750,1,0,congruent,1,1499.41616635353,603.638914932672
12,104,1,89,-0.5,-0.5,0.5,2,1,1,1,591,0,1,NaN,1,0,1.6,0.6,-0.487907459236802,NaN,750,1,0,incongruent,0.1,3811.03148896722,1315.33463093039
12,104,1,90,0.5,0.5,-0.5,3,3,1,3,866,1,0,866,0,0,1.8,NaN,1.36843625791144,1.36843625791144,750,1,0,congruent,0,3753.82124217183,3501.43100713163
12,104,1,91,0.5,-0.5,0.5,2,4,0.8,4,752,0,0,NaN,1,0,1.4,NaN,0.598897407893621,NaN,750,1,0,incongruent,1,6122.34828874262,918.381623715444
12,104,1,93,-0.5,-0.5,0,3,NaN,0.6,3,925,1,0,925,1,0,1,0.6,1.7667063644996,1.7667063644996,750,0,0,neutral,0.1,2332.89481928865,2562.3063090168
12,104,1,94,-0.5,0.5,-0.5,2,2,0.6,2,972,1,0,972,0,0,0.8,0.4,2.08397238161221,2.08397238161221,750,1,0,congruent,0,4378.18763864023,4813.38566917272
12,104,1,95,0.5,-0.5,-0.5,3,3,0.4,3,889,1,0,889,0,0,0.6,NaN,1.52369409607293,1.52369409607293,750,1,0,congruent,0,5020.18991438329,4031.5818037266
12,104,1,96,-0.5,-0.5,0.5,1,2,0.4,1,957,1,0,957,0,0,0.6,0.8,1.98271726976776,1.98271726976776,750,0,0,incongruent,0,4137.36907621788,4148.40932374319
12,104,1,97,-0.5,-0.5,0.5,4,3,0.4,4,945,1,0,945,1,0,0.2,0.6,1.9017131802922,1.9017131802922,750,0,0,incongruent,0.1,445.790099332594,2047.15429891005
12,104,1,99,0.5,-0.5,0,2,NaN,0.2,1,967,0,0,NaN,0,0,0.2,NaN,2.05022067766406,NaN,750,0,1,neutral,0,748.301328801829,2538.03393484986
12,104,1,100,-0.5,-0.5,0.5,3,2,0.2,3,821,1,0,821,1,0,0.2,0.8,1.06467092237809,1.06467092237809,750,0,0,incongruent,0.1,1438.47962830737,2774.39133877756
12,104,1,101,0.5,0.5,-0.5,4,4,0.2,4,787,1,0,787,0,0,0.4,NaN,0.83515933553067,0.83515933553067,750,1,0,congruent,0,1135.77878123149,5275.87866207874
12,104,1,102,0.5,0.5,-0.5,2,2,0,1,874,0,0,NaN,0,0,0.4,NaN,1.42243898422848,NaN,750,0,1,congruent,0,11061.1959909208,6688.18247794649
12,104,1,104,0.5,0.5,-0.5,3,3,0,3,640,1,1,640,1,0,0.2,NaN,-0.157140760544934,-0.157140760544934,750,1,0,congruent,1,1858.74212708551,5215.56438324811
12,104,1,105,-0.5,0.5,-0.5,4,4,0.2,4,618,1,1,618,1,0,0.6,0.4,-0.305648257916793,-0.305648257916793,750,1,0,congruent,0.1,3244.78649442697,1317.89248962417
12,104,1,108,-0.5,-0.5,-0.5,3,3,0.4,3,626,1,1,626,0,0,0.6,0.4,-0.251645531599753,-0.251645531599753,750,1,0,congruent,0,2526.38165266675,11653.6002929363
12,104,1,109,-0.5,0.5,0,4,NaN,0.4,4,695,1,1,695,1,0,0.6,0.4,0.214127982884714,0.214127982884714,750,0,0,neutral,0.1,1340.91904920479,2308.50753057829
12,104,1,110,-0.5,0.5,-0.5,3,3,0.6,3,560,1,1,560,1,0,0.4,0.4,-0.69716802371533,-0.69716802371533,750,1,0,congruent,0.1,4778.92763858965,2116.7611553196
12,104,1,113,-0.5,-0.5,-0.5,2,2,0.6,1,976,0,0,NaN,0,0,0.4,0.4,2.11097374477073,NaN,750,0,1,congruent,0,692.344856124482,1647.40298253109
12,104,1,116,-0.5,-0.5,-0.5,2,2,0.2,1,936,0,0,NaN,0,0,0,0.2,1.84096011318553,NaN,750,0,1,congruent,0,3102.09274520642,1330.42974302956
12,104,1,117,0.5,-0.5,-0.5,4,4,0.2,4,559,1,1,559,0,0,0,NaN,-0.70391836450496,-0.70391836450496,750,1,0,congruent,0,2427.81654077413,1764.00370041523
12,104,1,118,0.5,0.5,0,2,NaN,0.2,1,766,0,0,NaN,0,0,0,NaN,0.69340217894844,NaN,750,0,1,neutral,0,3290.32567532606,1429.9595829998
12,104,1,120,0.5,-0.5,0,4,NaN,0,4,946,1,0,946,0,0,0,NaN,1.90846352108183,1.90846352108183,750,0,0,neutral,0,838.518197869952,5204.21916208706
12,104,1,122,0.5,0.5,0.5,4,3,0,4,908,1,0,908,0,0,0,NaN,1.65195057107589,1.65195057107589,750,0,0,incongruent,0,1815.09535068446,3005.61006247763
12,104,1,124,-0.5,0.5,-0.5,3,3,0,1,738,0,1,NaN,0,0,0,0.6,0.504392636838802,NaN,750,0,1,congruent,0,6434.91344540996,5858.15526489519
12,104,1,125,0.5,0.5,-0.5,4,4,0,4,587,1,1,587,1,0,0,NaN,-0.514908822395322,-0.514908822395322,750,1,0,congruent,1,3805.10641931725,3288.6471807912
12,104,1,127,-0.5,-0.5,-0.5,4,4,0.2,4,763,1,0,763,1,0,0.4,0,0.673151156579551,0.673151156579551,750,1,0,congruent,0.1,1546.81607557927,4251.52196709758
12,104,1,128,-0.5,0.5,0.5,2,1,0.2,3,858,0,0,NaN,0,0,0.6,0.4,1.3144335315944,NaN,750,0,1,incongruent,0,1614.75129294706,7156.47410972346
12,104,1,130,0.5,0.5,-0.5,4,4,0.2,4,653,1,1,653,1,0,0.6,NaN,-0.0693863302797446,-0.0693863302797446,750,1,0,congruent,1,1891.92524082377,1170.95288731821
12,104,1,131,0.5,-0.5,0.5,3,1,0.4,3,977,1,0,977,1,0,0.6,NaN,2.11772408556036,2.11772408556036,750,0,0,incongruent,1,2126.07571059381,1465.61162063263
12,104,1,133,-0.5,0.5,0,2,NaN,0.4,1,773,0,0,NaN,0,0,0.8,0.2,0.74065456447585,NaN,750,0,1,neutral,0,5294.94300341493,3072.39850299303
12,104,1,134,-0.5,0.5,-0.5,3,3,0.2,3,402,1,1,402,1,0,0.8,0,-1.76372186847686,-1.76372186847686,750,1,0,congruent,0.1,1574.67719076495,757.739334483426
12,104,1,136,-0.5,0.5,0.5,2,1,0.4,1,988,0,0,NaN,0,0,0.6,0.2,2.19197783424629,NaN,750,1,0,incongruent,0,8600.47134699115,2139.78098231389
12,104,1,138,-0.5,0.5,-0.5,4,4,0.2,4,600,1,1,600,1,0,0.2,0.2,-0.427154392130132,-0.427154392130132,750,1,0,congruent,0.1,3545.83070365981,2689.88040746279
12,104,1,140,-0.5,-0.5,-0.5,2,2,0.4,1,677,0,1,NaN,0,0,0.4,0.4,0.0926218486713744,NaN,750,0,1,congruent,0,3477.85060830543,1139.57422853975
12,104,1,141,-0.5,-0.5,0.5,4,1,0.4,4,731,1,1,731,1,0,0.4,0.4,0.457140251311392,0.457140251311392,750,0,0,incongruent,0.1,1166.97776750201,1711.29171895705
12,104,1,142,0.5,-0.5,0.5,2,4,0.4,1,733,0,1,NaN,1,0,0.6,NaN,0.470640932890652,NaN,750,0,1,incongruent,1,9458.39766820865,3712.06315255522
12,104,1,144,-0.5,-0.5,0.5,4,3,0.2,4,832,1,0,832,1,0,0.8,0.6,1.13892467106402,1.13892467106402,750,0,0,incongruent,0.1,4429.85176518402,2502.89172680721
12,104,1,145,-0.5,0.5,0.5,3,1,0.2,3,700,1,1,700,1,0,0.8,0.4,0.247879686832863,0.247879686832863,750,0,0,incongruent,0.1,6993.47088736614,3373.51187459457
12,104,1,146,-0.5,-0.5,-0.5,4,4,0.4,4,708,1,1,708,1,0,1,0.6,0.301882413149903,0.301882413149903,750,1,0,congruent,0.1,3508.69643165667,981.971640291791
12,104,1,149,0.5,-0.5,0.5,3,1,0.4,3,914,1,0,914,0,0,1.2,NaN,1.69245261581367,1.69245261581367,750,0,0,incongruent,0,1748.6903566301,3504.01518667496
12,104,1,150,-0.5,-0.5,-0.5,2,2,0.4,1,708,0,1,NaN,0,0,1,0.8,0.301882413149903,NaN,750,0,1,congruent,0,7622.93617196373,2607.54027586435
12,104,2,151,-0.5,-0.5,0.5,3,4,0.4,3,936,1,0,936,0,0,0.8,0.8,1.84096011318553,1.84096011318553,750,0,0,incongruent,0,3458.86918461456,2991.45950953186
12,104,2,152,0.5,-0.5,0,4,NaN,0.4,4,530,1,1,530,0,0,0.6,NaN,-0.899678247404229,-0.899678247404229,750,0,0,neutral,0,1525.59569149506,2135.71642823523
12,104,2,153,0.5,0.5,-0.5,3,3,0.4,3,705,1,1,705,1,0,0.4,NaN,0.281631390781013,0.281631390781013,750,1,0,congruent,1,1441.08866207514,3675.3661638172
12,104,2,155,0.5,0.5,0,2,NaN,0.6,1,580,0,1,NaN,0,0,0.4,NaN,-0.562161207922731,NaN,750,0,1,neutral,0,1150.69818081022,4830.16046173674
12,104,2,156,-0.5,0.5,0.5,4,3,0.6,4,695,1,1,695,1,0,0.4,0.6,0.214127982884714,0.214127982884714,750,0,0,incongruent,0.1,404.885268455433,3824.23106218822
12,104,2,157,-0.5,0.5,0.5,3,1,0.6,3,593,1,1,593,1,0,0.6,0.6,-0.474406777657542,-0.474406777657542,750,0,0,incongruent,0.1,6558.06151574721,3336.94939325491
12,104,2,159,0.5,-0.5,-0.5,4,4,0.8,4,705,1,1,705,1,0,0.8,NaN,0.281631390781013,0.281631390781013,750,1,0,congruent,1,3759.47543317535,6468.85995927238
12,104,2,161,0.5,-0.5,-0.5,4,4,0.6,4,690,1,1,690,0,0,1.2,NaN,0.180376278936564,0.180376278936564,750,1,0,congruent,0,3789.52848959287,2483.45882861044
12,104,2,162,0.5,0.5,-0.5,3,3,0.6,3,664,1,1,664,1,0,1,NaN,0.00486741840618497,0.00486741840618497,750,1,0,congruent,1,2131.16131081833,1897.66595718247
12,104,2,163,-0.5,-0.5,-0.5,2,2,0.6,1,640,0,1,NaN,1,0,1.2,0.6,-0.157140760544934,NaN,750,0,1,congruent,0.1,2685.50706098281,7714.22868783041
12,104,2,164,0.5,0.5,-0.5,3,3,0.6,3,731,1,1,731,1,0,1,NaN,0.457140251311392,0.457140251311392,750,1,0,congruent,1,527.533954375785,2248.2970339015
12,104,2,165,0.5,-0.5,-0.5,4,4,0.8,4,576,1,1,576,1,0,1,NaN,-0.589162571081251,-0.589162571081251,750,1,0,congruent,1,1566.92914254356,7535.80311732952
12,104,2,166,-0.5,-0.5,0.5,3,2,0.8,3,786,1,0,786,0,0,1.4,0.6,0.82840899474104,0.82840899474104,750,0,0,incongruent,0,825.726936371689,3850.58323989946
12,104,2,168,0.5,-0.5,0.5,4,3,0.8,4,812,1,0,812,0,0,1.4,NaN,1.00391785527142,1.00391785527142,750,0,0,incongruent,0,2582.45743436666,1762.27065595846
12,104,2,169,-0.5,-0.5,0,3,NaN,0.8,3,751,1,0,751,1,0,1.2,0.4,0.592147067103991,0.592147067103991,750,0,0,neutral,0.1,2460.39747974563,7110.50785878554
12,104,2,171,-0.5,-0.5,0,3,NaN,0.8,3,743,1,1,743,0,0,0.8,0.6,0.538144340786952,0.538144340786952,750,0,0,neutral,0,2630.39422513265,2145.11449453184
12,104,2,173,0.5,-0.5,0.5,4,2,0.8,4,646,1,1,646,0,0,0.8,NaN,-0.116638715807154,-0.116638715807154,750,0,0,incongruent,0,2533.97372901988,4669.13702893577
12,104,2,174,0.5,-0.5,-0.5,3,3,0.8,3,484,1,1,484,1,0,0.8,NaN,-1.21019392372721,-1.21019392372721,750,1,0,congruent,1,1529.91753470875,1079.44256545884
12,104,2,176,-0.5,0.5,0.5,2,3,0.6,1,825,0,0,NaN,0,0,0.8,0.6,1.09167228553661,NaN,750,0,1,incongruent,0,4696.93396878917,3295.62071875046
12,104,2,178,0.5,-0.5,0,2,NaN,0.4,1,782,0,0,NaN,0,0,0.6,NaN,0.80140763158252,NaN,750,0,1,neutral,0,1113.52294114402,3157.04545692489
12,104,2,180,0.5,-0.5,0.5,3,2,0.4,4,815,0,0,NaN,0,0,0.2,NaN,1.02416887764031,NaN,750,0,1,incongruent,0,2415.98975770045,1230.85877450974
12,104,2,182,0.5,-0.5,-0.5,4,4,0.4,4,579,1,1,579,0,0,0.2,NaN,-0.568911548712361,-0.568911548712361,750,1,0,congruent,0,1783.7731911877,2153.75862138349
12,104,2,183,0.5,-0.5,0,3,NaN,0.4,3,725,1,1,725,0,0,0,NaN,0.416638206573612,0.416638206573612,750,0,0,neutral,0,1789.41468784105,3315.72869976001
12,104,2,184,-0.5,0.5,-0.5,4,4,0.4,4,753,1,0,753,0,0,0,0.4,0.605647748683251,0.605647748683251,750,1,0,congruent,0,1932.76056100669,7077.04459017152
12,104,2,186,0.5,-0.5,-0.5,4,4,0.2,4,894,1,0,894,0,0,0,NaN,1.55744580002107,1.55744580002107,750,1,0,congruent,0,1034.86402001489,2869.5202810655
12,104,2,187,-0.5,-0.5,0.5,2,1,0.2,1,687,0,1,NaN,0,0,0,0.4,0.160125256567674,NaN,750,1,0,incongruent,0,7500.81287052022,5153.93879424689
12,104,2,188,0.5,0.5,0,4,NaN,0.2,4,612,1,1,612,1,0,0,NaN,-0.346150302654573,-0.346150302654573,750,0,0,neutral,1,1103.5721759113,3141.08054400899
12,104,2,190,-0.5,0.5,0,3,NaN,0.2,3,867,1,0,867,0,0,0.4,0.2,1.37518659870107,1.37518659870107,750,0,0,neutral,0,3609.3107219929,6700.29543664347
12,104,2,191,-0.5,0.5,-0.5,4,4,0.2,4,608,1,1,608,1,0,0.4,0,-0.373151665813093,-0.373151665813093,750,1,0,congruent,0.1,7041.21660029442,1690.76945413442
12,104,2,193,0.5,0.5,-0.5,3,3,0.4,3,540,1,1,540,1,0,0.6,NaN,-0.83217483950793,-0.83217483950793,750,1,0,congruent,1,3188.42660669512,1804.1991172551
12,104,2,194,0.5,0.5,0.5,2,4,0.6,1,337,0,1,NaN,0,0,0.6,NaN,-2.20249401980281,NaN,750,0,1,incongruent,0,5099.71554503437,4351.09924361488
12,104,2,195,-0.5,-0.5,0.5,4,3,0.4,4,716,1,1,716,0,0,0.6,0.2,0.355885139466943,0.355885139466943,750,0,0,incongruent,0,619.02377734407,2877.67531158695
12,104,2,196,-0.5,0.5,0,2,NaN,0.4,3,825,0,0,NaN,0,0,0.6,0.2,1.09167228553661,NaN,750,0,1,neutral,0,7294.49829555381,1597.22784246475
12,104,2,197,0.5,-0.5,-0.5,3,3,0.4,3,668,1,1,668,0,0,0.4,NaN,0.0318687815647048,0.0318687815647048,750,1,0,congruent,0,1377.80018151287,882.205093225115
12,104,2,198,-0.5,-0.5,-0.5,4,4,0.4,4,487,1,1,487,1,0,0.4,0.2,-1.18994290135832,-1.18994290135832,750,1,0,congruent,0.1,7258.79208334357,2206.69354918932
12,104,2,199,-0.5,-0.5,0.5,3,1,0.4,3,703,1,1,703,0,0,0.2,0.2,0.268130709201753,0.268130709201753,750,0,0,incongruent,0,8154.77431995897,1384.02901555169
12,104,2,201,0.5,0.5,-0.5,4,4,0.4,4,627,1,1,627,1,0,0.2,NaN,-0.244895190810123,-0.244895190810123,750,1,0,congruent,1,2384.6725125216,1658.52147806008
12,104,2,202,-0.5,0.5,0,3,NaN,0.4,3,637,1,1,637,1,0,0.6,0.2,-0.177391782913824,-0.177391782913824,750,0,0,neutral,0.1,2290.71372784134,1627.74295367946
12,104,2,203,-0.5,0.5,-0.5,4,4,0.6,4,597,1,1,597,1,0,0.8,0.4,-0.447405414499022,-0.447405414499022,750,1,0,congruent,0.1,499.638693948271,2240.83556992372
12,104,2,204,-0.5,-0.5,0,2,NaN,0.6,3,564,0,1,NaN,0,0,0.8,0.2,-0.670166660556811,NaN,750,0,1,neutral,0,2840.64778032932,2884.59588934374
12,104,2,205,-0.5,-0.5,-0.5,4,4,0.6,4,479,1,1,479,0,0,0.8,0.2,-1.24394562767536,-1.24394562767536,750,1,0,congruent,0,2629.9124220671,1162.93981196751
12,104,2,206,0.5,-0.5,-0.5,3,3,0.6,3,913,1,0,913,1,0,0.8,NaN,1.68570227502404,1.68570227502404,750,1,0,congruent,1,6272.47054864979,1366.27282685026
12,104,2,210,-0.5,0.5,0.5,4,1,0.6,1,746,0,1,NaN,0,0,0.4,0.4,0.558395363155841,NaN,750,1,0,incongruent,0,1893.05673325854,4954.88923609176
12,104,2,211,0.5,-0.5,-0.5,2,2,0.4,2,864,1,0,864,0,0,0.4,NaN,1.35493557633218,1.35493557633218,750,1,0,congruent,0,3854.03082505122,546.015879432782
12,104,2,212,0.5,0.5,0,3,NaN,0.4,3,819,1,0,819,0,0,0,NaN,1.05117024079883,1.05117024079883,750,0,0,neutral,0,1296.59525554785,2378.25074674576
12,104,2,213,-0.5,-0.5,-0.5,1,1,0.2,1,563,1,1,563,0,0,0,0.2,-0.676917001346441,-0.676917001346441,750,1,0,congruent,0,960.607696623065,1951.35442685005
12,104,2,214,-0.5,-0.5,0,2,NaN,0.2,2,608,1,1,608,0,0,0,0.2,-0.373151665813093,-0.373151665813093,750,0,0,neutral,0,3720.34459477,1409.1337859439
12,104,2,215,0.5,-0.5,-0.5,3,3,0.2,3,634,1,1,634,1,0,0,NaN,-0.197642805282714,-0.197642805282714,750,1,0,congruent,1,5017.10812248756,5024.83261006868
12,104,2,216,-0.5,0.5,-0.5,2,2,0.2,2,613,1,1,613,1,0,0.4,0.4,-0.339399961864943,-0.339399961864943,750,1,0,congruent,0.1,1720.40660386426,4145.71216582697
12,104,2,217,-0.5,0.5,-0.5,4,4,0.2,4,585,1,1,585,1,0,0.6,0.4,-0.528409503974582,-0.528409503974582,750,1,0,congruent,0.1,1149.39247732494,1775.2661238579
12,104,2,218,-0.5,-0.5,0.5,3,1,0.4,1,458,0,1,NaN,1,0,0.8,0,-1.38570278425759,NaN,750,1,0,incongruent,0.1,6743.93695630522,377.060429526803
12,104,2,219,0.5,-0.5,-0.5,4,4,0.4,4,664,1,1,664,0,0,1,NaN,0.00486741840618497,0.00486741840618497,750,1,0,congruent,0,2261.44688765209,4426.08435886721
12,104,2,220,0.5,0.5,0,2,NaN,0.4,2,688,1,1,688,1,0,1,NaN,0.166875597357304,0.166875597357304,750,0,0,neutral,1,779.100789646372,984.486564875933
12,104,2,221,-0.5,-0.5,0.5,1,2,0.6,1,837,1,0,837,0,0,1,0.2,1.17267637501217,1.17267637501217,750,0,0,incongruent,0,2562.98902831272,1343.90344278683
12,104,2,222,0.5,0.5,-0.5,4,4,0.6,4,750,1,1,750,0,0,0.8,NaN,0.585396726314361,0.585396726314361,750,1,0,congruent,0,1060.78379402194,2619.86977601111
12,104,2,224,0.5,0.5,0.5,1,4,0.6,1,846,1,0,846,0,0,0.4,NaN,1.23342944211884,1.23342944211884,750,0,0,incongruent,0,714.000030320352,3557.3200512967
12,104,2,225,0.5,0.5,0,2,NaN,0.4,2,634,1,1,634,1,0,0.4,NaN,-0.197642805282714,-0.197642805282714,750,0,0,neutral,1,2966.57808307875,1867.19534336291
12,104,2,226,-0.5,-0.5,-0.5,4,4,0.4,4,987,1,0,987,0,0,0.4,0.2,2.18522749345666,2.18522749345666,750,1,0,congruent,0,1787.24876436001,4684.72691368008
12,104,2,227,-0.5,-0.5,0,1,NaN,0.4,1,551,1,1,551,0,0,0.4,0.2,-0.757921090822,-0.757921090822,750,0,0,neutral,0,834.00436660697,2911.7753319336
12,104,2,228,0.5,0.5,0.5,3,4,0.4,3,798,1,0,798,0,0,0.4,NaN,0.909413084216599,0.909413084216599,750,0,0,incongruent,0,3696.51299341612,3734.99445129241
12,104,2,229,0.5,-0.5,-0.5,2,2,0.2,2,386,1,1,386,0,0,0.4,NaN,-1.87172732111094,-1.87172732111094,750,1,0,congruent,0,1959.9857712485,2156.99360150134
12,104,2,230,-0.5,0.5,-0.5,3,3,0.2,3,509,1,1,509,1,0,0.4,0.4,-1.04143540398646,-1.04143540398646,750,1,0,congruent,0.1,1631.59928008793,2583.23104678476
12,104,2,232,0.5,0.5,-0.5,3,3,0.4,3,701,1,1,701,1,0,0.2,NaN,0.254630027622493,0.254630027622493,750,1,0,congruent,1,1544.85460765256,5254.9497725906
12,104,2,233,-0.5,0.5,0,4,NaN,0.6,4,652,1,1,652,1,0,0.6,0.6,-0.0761366710693745,-0.0761366710693745,750,0,0,neutral,0.1,1542.33463312569,2828.47848339894
12,104,2,234,0.5,0.5,-0.5,3,3,0.6,3,737,1,1,737,1,0,0.8,NaN,0.497642296049172,0.497642296049172,750,1,0,congruent,1,21799.0024578865,24154.9430985798
12,104,2,236,0.5,0.5,-0.5,3,3,0.6,3,586,1,1,586,1,0,1,NaN,-0.521659163184952,-0.521659163184952,750,1,0,congruent,1,6066.49244657178,4715.58525416497
12,104,2,237,-0.5,-0.5,-0.5,1,1,0.8,1,530,1,1,530,1,0,1.4,0.2,-0.899678247404229,-0.899678247404229,750,1,0,congruent,0.1,3349.32247494268,1698.56303288386
12,104,2,239,-0.5,-0.5,0.5,2,1,0.8,3,649,0,1,NaN,1,0,1.2,0.4,-0.0963876934382644,NaN,750,0,1,incongruent,0.1,6753.44490257434,1716.85914219899
12,104,2,240,-0.5,-0.5,0,3,NaN,0.8,3,924,1,0,924,1,0,1,0.6,1.75995602370997,1.75995602370997,750,0,0,neutral,0.1,6332.54495653674,2969.66952214649
12,104,2,241,-0.5,-0.5,-0.5,4,4,0.8,4,639,1,1,639,1,0,1.2,0.8,-0.163891101334564,-0.163891101334564,750,1,0,congruent,0.1,4012.76751333812,2765.01570340399
12,104,2,242,0.5,0.5,0.5,3,1,0.8,3,727,1,1,727,1,0,1,NaN,0.430138888152872,0.430138888152872,750,0,0,incongruent,1,1483.01677899748,5425.30343910136
12,104,2,243,0.5,-0.5,0,4,NaN,0.8,4,591,1,1,591,0,0,1.2,NaN,-0.487907459236802,-0.487907459236802,750,0,0,neutral,0,6798.82779769671,2518.37143525944
12,104,2,244,-0.5,0.5,-0.5,3,3,0.8,3,568,1,1,568,1,0,1,0.8,-0.643165297398291,-0.643165297398291,750,1,0,congruent,0.1,6834.63575323068,2457.27213679388
12,104,2,245,-0.5,-0.5,-0.5,1,1,0.8,1,516,1,1,516,1,0,1,1,-0.994183018459049,-0.994183018459049,750,1,0,congruent,0.1,1610.69937529097,3423.12706120847
12,104,2,246,-0.5,0.5,0.5,2,4,0.8,2,485,1,1,485,1,0,1,1,-1.20344358293758,-1.20344358293758,750,0,0,incongruent,0.1,1885.57918043956,9142.77767373683
12,104,2,247,-0.5,-0.5,-0.5,1,1,0.8,1,476,1,1,476,1,0,1,1,-1.26419665004425,-1.26419665004425,750,1,0,congruent,0.1,7575.48207909054,5434.91248975738
12,104,2,248,-0.5,0.5,0,4,NaN,0.8,4,697,1,1,697,1,0,0.8,1,0.227628664463974,0.227628664463974,750,0,0,neutral,0.1,3940.73684277253,1479.83734983293
12,104,2,249,0.5,0.5,0.5,3,2,1,3,373,1,1,373,1,0,1,NaN,-1.95948175137613,-1.95948175137613,750,0,0,incongruent,1,9090.97536143295,17426.0123739886
12,104,2,250,0.5,0.5,-0.5,4,4,1,4,574,1,1,574,1,0,1.2,NaN,-0.602663252660511,-0.602663252660511,750,1,0,congruent,1,4245.92735238459,2238.9413900094
12,104,2,251,0.5,-0.5,0.5,2,3,1,2,658,1,1,658,1,0,1.4,NaN,-0.0356346263315948,-0.0356346263315948,750,0,0,incongruent,1,684.882884151751,2621.4661415937
12,104,2,252,0.5,0.5,-0.5,1,1,1,1,460,1,1,460,1,0,1.6,NaN,-1.37220210267833,-1.37220210267833,750,1,0,congruent,1,1445.39145037353,843.612826790102
12,104,2,253,0.5,-0.5,0,4,NaN,1,4,629,1,1,629,1,0,1.8,NaN,-0.231394509230863,-0.231394509230863,750,0,0,neutral,1,2012.24586039409,1175.01634174464
12,104,2,254,-0.5,-0.5,-0.5,3,3,1,3,504,1,1,504,1,0,2,1,-1.07518710793461,-1.07518710793461,750,1,0,congruent,0.1,1962.42934112207,1613.03526053871
12,104,2,255,-0.5,-0.5,-0.5,1,1,1,1,285,1,1,285,1,0,1.8,1,-2.55351174086357,-2.55351174086357,750,1,0,congruent,0.1,4176.80368764494,3357.55068012012
12,104,2,257,0.5,-0.5,0.5,2,1,1,3,793,0,0,NaN,1,0,1.6,NaN,0.875661380268449,NaN,750,0,1,incongruent,1,2821.59394863829,1219.97519811976
12,104,2,258,0.5,-0.5,0,1,NaN,1,1,701,1,1,701,1,0,1.6,NaN,0.254630027622493,0.254630027622493,750,0,0,neutral,1,2406.33268510694,2455.25160648578
12,104,2,259,0.5,-0.5,-0.5,2,2,1,2,734,1,1,734,1,0,1.6,NaN,0.477391273680282,0.477391273680282,750,1,0,congruent,1,8030.29836912935,4176.96758537905
12,104,2,260,0.5,0.5,-0.5,4,4,1,4,591,1,1,591,1,0,1.8,NaN,-0.487907459236802,-0.487907459236802,750,1,0,congruent,1,2911.91056234233,1734.82883011781
12,104,2,261,-0.5,0.5,-0.5,2,2,1,2,831,1,0,831,0,0,2,1,1.13217433027439,1.13217433027439,750,1,0,congruent,0,2942.97794617734,3516.66818015681
12,104,2,262,-0.5,-0.5,0,4,NaN,0.8,4,921,1,0,921,1,0,1.6,1,1.73970500134108,1.73970500134108,750,0,0,neutral,0.1,1486.16025958347,1574.42919490183
12,104,2,263,-0.5,0.5,-0.5,3,3,0.8,3,918,1,0,918,0,0,1.4,0.8,1.71945397897219,1.71945397897219,750,1,0,congruent,0,1946.85031322906,3273.09370549303
12,104,2,264,-0.5,-0.5,0.5,4,1,0.6,4,749,1,1,749,1,0,1,1,0.578646385524731,0.578646385524731,750,0,0,incongruent,0.1,1460.65418559274,6213.45593752887
12,104,2,265,0.5,0.5,-0.5,3,3,0.6,3,569,1,1,569,1,0,0.8,NaN,-0.636414956608661,-0.636414956608661,750,1,0,congruent,1,3103.22711517605,1453.9667618257
12,104,2,266,0.5,0.5,0.5,4,2,0.6,4,762,1,0,762,0,0,0.8,NaN,0.666400815789921,0.666400815789921,750,0,0,incongruent,0,2854.95125557323,2303.91392091204
12,104,2,267,-0.5,0.5,-0.5,3,3,0.4,3,801,1,0,801,0,0,0.8,0.6,0.929664106585489,0.929664106585489,750,1,0,congruent,0,2813.83276035747,6764.81533686107
12,104,2,268,-0.5,-0.5,0,2,NaN,0.2,2,706,1,1,706,1,0,0.6,1,0.288381731570643,0.288381731570643,750,0,0,neutral,0.1,861.093293372071,3776.41329087678
12,104,2,269,0.5,-0.5,-0.5,3,3,0.2,3,578,1,1,578,0,0,0.8,NaN,-0.575661889501991,-0.575661889501991,750,1,0,congruent,0,10288.3130247117,6921.59599357476
12,104,2,270,0.5,-0.5,0.5,1,2,0.2,1,802,1,0,802,0,0,0.6,NaN,0.936414447375119,0.936414447375119,750,0,0,incongruent,0,1484.93086671024,1763.03326541201
12,104,2,271,0.5,0.5,0,3,NaN,0.2,3,623,1,1,623,1,0,0.2,NaN,-0.271896553968643,-0.271896553968643,750,0,0,neutral,1,6744.71117506147,19302.1580426047
12,104,2,272,0.5,0.5,-0.5,1,1,0.4,1,700,1,1,700,1,0,0.6,NaN,0.247879686832863,0.247879686832863,750,1,0,congruent,1,1933.00541454876,595.264532780792
12,104,2,273,0.5,-0.5,0,4,NaN,0.6,4,499,1,1,499,1,0,1,NaN,-1.10893881188276,-1.10893881188276,750,0,0,neutral,1,2197.73889629637,2419.38504453149
12,104,2,274,-0.5,0.5,-0.5,1,1,0.6,1,538,1,1,538,1,0,1.2,0.4,-0.845675521087189,-0.845675521087189,750,1,0,congruent,0.1,2368.78847510368,2625.26187247274
12,104,2,275,-0.5,-0.5,-0.5,3,3,0.6,3,647,1,1,647,0,0,1.4,1,-0.109888375017524,-0.109888375017524,750,1,0,congruent,0,1496.91575054191,2753.32121008677
12,104,2,276,-0.5,0.5,0,2,NaN,0.6,2,823,1,0,823,0,0,1.4,0.4,1.07817160395735,1.07817160395735,750,0,0,neutral,0,1052.04811395062,5811.34433263707
12,104,2,277,-0.5,-0.5,-0.5,3,3,0.6,3,537,1,1,537,1,0,1,0.8,-0.852425861876819,-0.852425861876819,750,1,0,congruent,0.1,7628.17140195973,3585.42412280025
12,104,2,278,-0.5,0.5,-0.5,2,2,0.6,2,588,1,1,588,1,0,0.8,0.2,-0.508158481605692,-0.508158481605692,750,1,0,congruent,0.1,925.587056228642,303.955888535593
12,104,2,279,-0.5,-0.5,0,1,NaN,0.8,1,609,1,1,609,0,0,0.6,0.8,-0.366401325023463,-0.366401325023463,750,0,0,neutral,0,3767.24396541423,2555.48671348183
12,104,2,280,0.5,0.5,-0.5,4,4,0.8,4,564,1,1,564,1,0,0.4,NaN,-0.670166660556811,-0.670166660556811,750,1,0,congruent,1,1784.87622866369,839.382187673985
12,104,2,281,0.5,0.5,0,2,NaN,0.8,2,636,1,1,636,1,0,0.8,NaN,-0.184142123703454,-0.184142123703454,750,0,0,neutral,1,3897.25304402833,3385.56455776428
12,104,2,282,-0.5,0.5,0.5,4,1,0.8,4,820,1,0,820,0,0,1.2,0.4,1.05792058158846,1.05792058158846,750,0,0,incongruent,0,1492.95298310213,7716.21688507998
12,104,2,284,-0.5,0.5,-0.5,4,4,0.6,4,635,1,1,635,1,0,0.8,0.4,-0.190892464493084,-0.190892464493084,750,1,0,congruent,0.1,2653.05996764482,6505.52144290188
12,104,2,285,0.5,0.5,0.5,3,1,0.8,3,823,1,0,823,0,0,1,NaN,1.07817160395735,1.07817160395735,750,0,0,incongruent,0,1643.23722631363,2000.52196051486
12,104,2,286,0.5,-0.5,0.5,4,2,0.6,4,882,1,0,882,0,0,0.6,NaN,1.47644171054552,1.47644171054552,750,0,0,incongruent,0,14314.8675700311,2700.91035864011
12,104,2,287,-0.5,0.5,0.5,2,4,0.6,2,700,1,1,700,1,0,0.2,0.6,0.247879686832863,0.247879686832863,750,0,0,incongruent,0.1,1605.98871982411,1087.99816230077
12,104,2,288,0.5,-0.5,0.5,1,3,0.6,4,571,0,1,NaN,1,0,0.4,NaN,-0.622914275029401,NaN,750,0,1,incongruent,1,9896.15741295469,1486.27913774386
12,104,2,289,0.5,0.5,0,4,NaN,0.6,4,634,1,1,634,1,0,0.8,NaN,-0.197642805282714,-0.197642805282714,750,0,0,neutral,1,670.770891863495,2004.35071220905
12,104,2,290,0.5,0.5,-0.5,2,2,0.6,2,514,1,1,514,1,0,1,NaN,-1.00768370003831,-1.00768370003831,750,1,0,congruent,1,1829.09912953342,1804.28989902732
12,104,2,291,0.5,0.5,0.5,1,4,0.8,1,709,1,1,709,1,0,1.4,NaN,0.308632753939533,0.308632753939533,750,0,0,incongruent,1,1245.01245407969,5442.98371845365
12,104,2,292,-0.5,-0.5,0,4,NaN,0.8,4,674,1,1,674,1,0,1.8,0.6,0.0723708263024845,0.0723708263024845,750,0,0,neutral,0.1,2741.455601264,3347.02454828082
12,104,2,294,-0.5,0.5,0.5,3,2,0.8,4,788,0,0,NaN,0,0,1.4,0.6,0.8419096763203,NaN,750,0,1,incongruent,0,3091.19874003383,6498.23497227543
12,104,2,295,-0.5,0.5,0,4,NaN,0.8,4,642,1,1,642,1,0,1,0.6,-0.143640078965674,-0.143640078965674,750,0,0,neutral,0.1,2725.13724984244,2663.65256632732
12,104,2,296,-0.5,-0.5,-0.5,1,1,0.8,1,516,1,1,516,1,0,0.8,0.6,-0.994183018459049,-0.994183018459049,750,1,0,congruent,0.1,1917.26078317394,1550.89884336946
12,104,2,297,-0.5,0.5,0.5,2,4,0.8,2,883,1,0,883,0,0,0.6,0.6,1.48319205133515,1.48319205133515,750,0,0,incongruent,0,1684.33579067084,4956.21166339438
12,104,2,298,-0.5,0.5,-0.5,1,1,0.6,1,546,1,1,546,1,0,0.4,0.6,-0.79167279477015,-0.79167279477015,750,1,0,congruent,0.1,1913.78398491589,1609.72774757244
12,104,2,299,0.5,-0.5,0.5,3,4,0.6,3,694,1,1,694,1,0,0.6,NaN,0.207377642095084,0.207377642095084,750,0,0,incongruent,1,2083.1827119575,901.068695436475
12,104,2,300,-0.5,0.5,-0.5,2,2,0.6,2,662,1,1,662,1,0,1,0.6,-0.00863326317307495,-0.00863326317307495,750,1,0,congruent,0.1,1460.68827447583,1568.59413816626
12,104,3,301,-0.5,-0.5,0.5,1,3,0.6,1,862,1,0,862,0,0,1,0.6,1.34143489475292,1.34143489475292,750,0,0,incongruent,0,908.742614329072,2544.53956248403
12,104,3,302,-0.5,-0.5,-0.5,2,2,0.6,2,677,1,1,677,1,0,0.8,0.6,0.0926218486713744,0.0926218486713744,750,1,0,congruent,0.1,3091.87702281521,2463.75086238641
12,104,3,303,-0.5,0.5,-0.5,4,4,0.6,4,659,1,1,659,1,0,1,0.6,-0.0288842855419648,-0.0288842855419648,750,1,0,congruent,0.1,2392.29331756616,2637.73321315156
12,104,3,304,0.5,-0.5,0.5,2,1,0.8,2,723,1,1,723,1,0,1,NaN,0.403137524994352,0.403137524994352,750,0,0,incongruent,1,6011.3041397877,6099.3878474507
12,104,3,305,0.5,0.5,0,3,NaN,0.8,3,387,1,1,387,1,0,1,NaN,-1.86497698032131,-1.86497698032131,750,0,0,neutral,1,2243.23061089994,3502.30455011953
12,104,3,306,-0.5,-0.5,-0.5,4,4,0.8,4,381,1,1,381,1,0,1.2,0.6,-1.90547902505909,-1.90547902505909,750,1,0,congruent,0.1,1495.69773125227,2632.17937792668
12,104,3,307,-0.5,0.5,-0.5,2,2,0.8,2,432,1,1,432,1,0,1.4,0.8,-1.56121164478796,-1.56121164478796,750,1,0,congruent,0.1,2741.23058211478,1557.05640135871
12,104,3,308,0.5,0.5,-0.5,4,4,1,4,534,1,1,534,1,0,1.4,NaN,-0.872676884245709,-0.872676884245709,750,1,0,congruent,1,950.983353364982,6090.86254096061
12,104,3,310,0.5,-0.5,0,4,NaN,1,4,549,1,1,549,1,0,1.4,NaN,-0.77142177240126,-0.77142177240126,750,0,0,neutral,1,5791.73711559771,11913.147840884
12,104,3,311,0.5,0.5,-0.5,2,2,1,2,582,1,1,582,1,0,1.4,NaN,-0.548660526343471,-0.548660526343471,750,1,0,congruent,1,5720.87788019778,4648.22541361809
12,104,3,312,-0.5,-0.5,0,1,NaN,1,1,485,1,1,485,1,0,1.6,0.8,-1.20344358293758,-1.20344358293758,750,0,0,neutral,0.1,4847.59168804979,21133.5412895459
12,104,3,314,-0.5,-0.5,0.5,4,1,1,4,650,1,1,650,1,0,1.4,0.8,-0.0896373526486344,-0.0896373526486344,750,0,0,incongruent,0.1,12522.6836440216,4032.0595176373
12,104,3,315,-0.5,-0.5,-0.5,2,2,1,2,719,1,1,719,1,0,1.4,0.8,0.376136161835833,0.376136161835833,750,1,0,congruent,0.1,2178.22744945045,1778.40354775616
12,104,3,316,0.5,0.5,-0.5,4,4,1,2,800,0,0,NaN,0,0,1.2,NaN,0.922913765795859,NaN,750,0,1,congruent,0,3839.17733695718,3766.45011594613
12,104,3,317,-0.5,-0.5,0.5,1,3,0.8,1,679,1,1,679,1,0,0.8,1,0.106122530250634,0.106122530250634,750,0,0,incongruent,0.1,4567.36019173265,604.204114013808
12,104,3,318,-0.5,0.5,0,4,NaN,0.8,4,585,1,1,585,1,0,0.8,1,-0.528409503974582,-0.528409503974582,750,0,0,neutral,0.1,3628.41852078623,2577.06779491731
12,104,3,319,-0.5,0.5,-0.5,3,3,0.8,3,631,1,1,631,1,0,0.8,1,-0.217893827651604,-0.217893827651604,750,1,0,congruent,0.1,6419.68688023867,4099.27988532935
12,104,3,320,0.5,-0.5,0.5,1,2,0.8,1,656,1,1,656,1,0,0.8,NaN,-0.0491353079108547,-0.0491353079108547,750,0,0,incongruent,1,4176.1141698926,8417.53421580195
12,104,3,321,-0.5,-0.5,-0.5,4,4,0.8,4,534,1,1,534,1,0,1,1,-0.872676884245709,-0.872676884245709,750,1,0,congruent,0.1,3862.76636712338,1998.44573658799
12,104,3,322,-0.5,0.5,0.5,3,2,0.8,3,926,1,0,926,0,0,1.2,1,1.77345670528923,1.77345670528923,750,0,0,incongruent,0,1166.9732670207,4182.79271631336
12,104,3,323,-0.5,0.5,0,1,NaN,0.6,1,581,1,1,581,1,0,1,0.8,-0.555410867133101,-0.555410867133101,750,0,0,neutral,0.1,2805.22637797852,696.37410335394
12,104,3,324,-0.5,0.5,0.5,4,1,0.6,4,698,1,1,698,1,0,1,0.8,0.234379005253603,0.234379005253603,750,0,0,incongruent,0.1,1143.10074589735,9237.6220383863
12,104,3,325,0.5,-0.5,-0.5,3,3,0.8,3,687,1,1,687,1,0,1,NaN,0.160125256567674,0.160125256567674,750,1,0,congruent,1,1299.27751122403,1050.18531738996
12,104,3,326,0.5,0.5,0.5,2,1,0.8,2,644,1,1,644,1,0,1,NaN,-0.130139397386414,-0.130139397386414,750,0,0,incongruent,1,14036.1710757213,8485.8360553366
12,104,3,327,-0.5,-0.5,-0.5,3,3,0.8,3,777,1,0,777,1,0,1.2,1,0.76765592763437,0.76765592763437,750,1,0,congruent,0.1,1583.7666331505,5535.92788519914
12,104,3,328,-0.5,0.5,-0.5,2,2,0.8,2,691,1,1,691,1,0,1.4,0.8,0.187126619726194,0.187126619726194,750,1,0,congruent,0.1,1680.58533592297,1390.17763941386
12,104,3,329,-0.5,-0.5,0,1,NaN,0.8,1,878,1,0,878,0,0,1.4,1,1.449440347387,1.449440347387,750,0,0,neutral,0,2297.05925162998,4068.01149001813
12,104,3,330,-0.5,-0.5,-0.5,3,3,0.8,3,825,1,0,825,0,0,1.2,0.8,1.09167228553661,1.09167228553661,750,1,0,congruent,0,2879.77666339786,2074.68403315448
12,104,3,331,0.5,-0.5,0,4,NaN,0.8,4,537,1,1,537,0,0,0.8,NaN,-0.852425861876819,-0.852425861876819,750,0,0,neutral,0,3748.9358480807,2190.94012532307
12,104,3,332,-0.5,0.5,-0.5,1,1,0.8,1,474,1,1,474,1,0,0.4,0.8,-1.27769733162351,-1.27769733162351,750,1,0,congruent,0.1,2294.76978554325,798.934807727842
12,104,3,334,-0.5,0.5,-0.5,4,4,1,4,618,1,1,618,1,0,0.6,0.8,-0.305648257916793,-0.305648257916793,750,1,0,congruent,0.1,9338.95713091943,7275.80741368819
12,104,3,335,-0.5,0.5,-0.5,3,3,1,3,586,1,1,586,1,0,0.8,1,-0.521659163184952,-0.521659163184952,750,1,0,congruent,0.1,2147.0638654989,4358.44734262629
12,104,3,336,0.5,-0.5,-0.5,4,4,1,4,497,1,1,497,1,0,1,NaN,-1.12243949346202,-1.12243949346202,750,1,0,congruent,1,782.839551709015,898.342199563334
12,104,3,337,0.5,-0.5,-0.5,3,3,1,3,510,1,1,510,1,0,1.4,NaN,-1.03468506319683,-1.03468506319683,750,1,0,congruent,1,3606.02713013073,2169.09933616589
12,104,3,338,-0.5,0.5,0,2,NaN,1,2,642,1,1,642,1,0,1.6,1,-0.143640078965674,-0.143640078965674,750,0,0,neutral,0.1,1183.57195421307,1004.24104879615
12,104,3,339,-0.5,-0.5,-0.5,1,1,1,1,590,1,1,590,1,0,1.4,0.6,-0.494657800026432,-0.494657800026432,750,1,0,congruent,0.1,192.439063098778,2625.31620993449
12,104,3,340,-0.5,0.5,0.5,2,4,1,2,843,1,0,843,0,0,1.4,1,1.21317841974995,1.21317841974995,750,0,0,incongruent,0,1637.01396741597,7747.41179758776
12,104,3,341,-0.5,0.5,0,4,NaN,0.8,4,665,1,1,665,1,0,1.2,0.8,0.0116177591958149,0.0116177591958149,750,0,0,neutral,0.1,1370.53639875285,3025.20355470554
12,104,3,342,-0.5,-0.5,-0.5,3,3,0.8,3,572,1,1,572,1,0,1,0.6,-0.616163934239771,-0.616163934239771,750,1,0,congruent,0.1,14625.7515156925,3143.26840220988
12,104,3,343,-0.5,0.5,0,4,NaN,0.8,4,510,1,1,510,1,0,0.8,0.8,-1.03468506319683,-1.03468506319683,750,0,0,neutral,0.1,15837.3012838184,15732.7623765432
12,104,3,344,0.5,0.5,-0.5,2,2,0.8,2,616,1,1,616,1,0,0.8,NaN,-0.319148939496053,-0.319148939496053,750,1,0,congruent,1,13546.862379687,13206.1847407461
12,104,3,345,0.5,0.5,-0.5,4,4,0.8,4,542,1,1,542,1,0,1,NaN,-0.81867415792867,-0.81867415792867,750,1,0,congruent,1,2029.42559384426,2373.74689466632
12,104,3,346,-0.5,-0.5,0,2,NaN,0.8,2,988,1,0,988,0,0,1.4,0.6,2.19197783424629,2.19197783424629,750,0,0,neutral,0,3157.75393348245,3022.57736578631
12,104,3,348,0.5,-0.5,0.5,2,1,0.8,2,873,1,0,873,1,0,1,NaN,1.41568864343885,1.41568864343885,750,0,0,incongruent,1,6671.26646678942,3965.48341297725
12,104,3,349,-0.5,0.5,0.5,1,2,0.8,1,709,1,1,709,1,0,1.2,0.8,0.308632753939533,0.308632753939533,750,0,0,incongruent,0.1,6671.86440083111,10420.9903092679
12,104,3,350,0.5,0.5,-0.5,3,3,0.8,2,664,0,1,NaN,0,0,1,NaN,0.00486741840618497,NaN,750,0,1,congruent,0,2711.39434335046,4388.1158763729
12,104,3,351,0.5,-0.5,0,4,NaN,0.6,4,666,1,1,666,1,0,0.6,NaN,0.0183680999854449,0.0183680999854449,750,0,0,neutral,1,4078.170740905,4966.81768727737
12,104,3,352,0.5,0.5,-0.5,2,2,0.6,2,495,1,1,495,1,0,1,NaN,-1.13594017504128,-1.13594017504128,750,1,0,congruent,1,16704.8523030419,17368.1648142202
12,104,3,353,0.5,-0.5,0,1,NaN,0.6,1,426,1,1,426,0,0,1.4,NaN,-1.60171368952574,-1.60171368952574,750,0,0,neutral,0,2426.3797703196,1353.64473435941
12,104,3,354,0.5,-0.5,-0.5,2,2,0.6,2,1000,1,0,1000,1,0,1,NaN,2.27298192372185,2.27298192372185,750,1,0,congruent,1,2126.15280734922,2564.6604039089
12,104,3,355,0.5,-0.5,0.5,1,3,0.6,1,885,1,0,885,1,0,1.2,NaN,1.49669273291441,1.49669273291441,750,0,0,incongruent,1,4497.16981129014,4767.11068704594
12,104,3,357,-0.5,0.5,0,1,NaN,0.6,1,585,1,1,585,1,0,1.2,0.8,-0.528409503974582,-0.528409503974582,750,0,0,neutral,0.1,1166.49347116052,2279.13619735218
12,104,3,358,-0.5,-0.5,-0.5,2,2,0.6,2,775,1,0,775,0,0,1,0.4,0.75415524605511,0.75415524605511,750,1,0,congruent,0,911.556167396488,5305.73936447454
12,104,3,359,-0.5,-0.5,0.5,3,4,0.6,4,914,0,0,NaN,1,0,1,0.4,1.69245261581367,NaN,750,1,0,incongruent,0.1,3475.94477749723,2997.73578374317
12,104,3,360,0.5,0.5,-0.5,1,1,0.6,1,598,1,1,598,1,0,0.8,NaN,-0.440655073709392,-0.440655073709392,750,1,0,congruent,1,4976.98952438121,3012.28181705969
12,104,3,361,0.5,0.5,-0.5,3,3,0.8,2,810,0,0,NaN,0,0,0.8,NaN,0.990417173692159,NaN,750,0,1,congruent,0,9238.68752222017,2294.13598922921
12,104,3,362,0.5,0.5,-0.5,2,2,0.6,2,651,1,1,651,1,0,0.8,NaN,-0.0828870118590045,-0.0828870118590045,750,1,0,congruent,1,3204.81862876673,2044.9559524687
12,104,3,363,0.5,-0.5,-0.5,3,3,0.8,3,755,1,0,755,1,0,1,NaN,0.619148430262511,0.619148430262511,750,1,0,congruent,1,4786.38768629972,4905.1507419715
12,104,3,364,0.5,-0.5,0,4,NaN,0.8,4,416,1,1,416,0,0,1.4,NaN,-1.66921709742204,-1.66921709742204,750,0,0,neutral,0,2447.250924646,2311.28554157143
12,104,3,365,-0.5,-0.5,-0.5,1,1,0.8,1,597,1,1,597,1,0,1.2,0.4,-0.447405414499022,-0.447405414499022,750,1,0,congruent,0.1,1175.07843096744,3033.87624431403
12,104,3,366,-0.5,-0.5,0.5,2,3,0.8,2,914,1,0,914,1,0,1,0.4,1.69245261581367,1.69245261581367,750,0,0,incongruent,0.1,1218.36357437299,1454.20015227288
12,104,3,367,-0.5,-0.5,0,3,NaN,0.8,3,358,1,1,358,1,0,1.2,0.6,-2.06073686322058,-2.06073686322058,750,0,0,neutral,0.1,5008.2118851204,1916.85162613517
12,104,3,368,-0.5,-0.5,0.5,4,1,0.8,4,758,1,0,758,0,0,1,0.8,0.639399452631401,0.639399452631401,750,0,0,incongruent,0,4685.84946432596,3303.69484462953
12,104,3,369,0.5,0.5,0,3,NaN,0.8,3,684,1,1,684,1,0,0.6,NaN,0.139874234198784,0.139874234198784,750,0,0,neutral,1,1401.88163870881,4210.90637746498
12,104,3,370,0.5,0.5,-0.5,4,4,0.8,4,788,1,0,788,0,0,1,NaN,0.8419096763203,0.8419096763203,750,1,0,congruent,0,716.980179354666,1611.42494601728
12,104,3,371,-0.5,-0.5,0.5,1,2,0.6,1,430,1,1,430,1,0,0.8,0.8,-1.57471232636722,-1.57471232636722,750,0,0,incongruent,0.1,2873.07935613261,2288.13937635665
12,104,3,372,0.5,-0.5,0,3,NaN,0.6,3,541,1,1,541,0,0,0.8,NaN,-0.8254244987183,-0.8254244987183,750,0,0,neutral,0,3228.82481550341,6401.90077686571
12,104,3,374,-0.5,0.5,0,3,NaN,0.4,3,689,1,1,689,1,0,0.6,0.8,0.173625938146934,0.173625938146934,750,0,0,neutral,0.1,2354.73247842919,1590.77221429553
12,104,3,375,-0.5,0.5,-0.5,2,2,0.6,2,876,1,0,876,0,0,0.4,0.8,1.43593966580774,1.43593966580774,750,1,0,congruent,0,4871.96840513864,2242.20249695088
12,104,3,376,-0.5,0.5,0,4,NaN,0.4,4,562,1,1,562,1,0,0.4,0.6,-0.68366734213607,-0.68366734213607,750,0,0,neutral,0.1,1893.99974600751,3559.97908633539
12,104,3,377,0.5,-0.5,-0.5,2,2,0.4,2,484,1,1,484,0,0,0.4,NaN,-1.21019392372721,-1.21019392372721,750,1,0,congruent,0,8814.08469608017,14074.3995767507
12,104,3,378,-0.5,-0.5,0.5,4,3,0.4,4,782,1,0,782,1,0,0.4,0.8,0.80140763158252,0.80140763158252,750,0,0,incongruent,0.1,2460.97400413667,4690.13402669808
12,104,3,379,-0.5,0.5,-0.5,2,2,0.4,2,529,1,1,529,1,0,0.6,0.6,-0.906428588193859,-0.906428588193859,750,1,0,congruent,0.1,1007.67825347689,784.251958570105
12,104,3,380,0.5,-0.5,0,1,NaN,0.6,1,421,1,1,421,0,0,0.6,NaN,-1.63546539347389,-1.63546539347389,750,0,0,neutral,0,3188.67034258681,3606.26531093838
12,104,3,381,-0.5,-0.5,-0.5,2,2,0.6,2,560,1,1,560,1,0,0.6,0.8,-0.69716802371533,-0.69716802371533,750,1,0,congruent,0.1,1179.99849044464,3707.76187939299
12,104,3,382,-0.5,-0.5,0,3,NaN,0.6,3,722,1,1,722,1,0,0.6,0.8,0.396387184204722,0.396387184204722,750,0,0,neutral,0.1,9055.04297905806,3032.63112655308
12,104,3,383,0.5,-0.5,-0.5,1,1,0.6,1,486,1,1,486,1,0,0.8,NaN,-1.19669324214795,-1.19669324214795,750,1,0,congruent,1,2599.94455289607,3659.30593361345
12,104,3,384,-0.5,-0.5,0.5,2,3,0.6,2,631,1,1,631,0,0,1,0.8,-0.217893827651604,-0.217893827651604,750,0,0,incongruent,0,4505.05795969176,4694.04430475157
12,104,3,385,-0.5,-0.5,0.5,3,1,0.6,3,684,1,1,684,0,0,0.8,0.8,0.139874234198784,0.139874234198784,750,0,0,incongruent,0,5321.36497920716,2438.25995642502
12,104,3,386,-0.5,-0.5,0.5,4,3,0.6,2,736,0,1,NaN,1,0,0.8,0.6,0.490891955259542,NaN,750,0,1,incongruent,0.1,2581.1997023348,1468.83283505133
12,104,3,387,-0.5,0.5,-0.5,2,2,0.6,2,769,1,0,769,0,0,0.8,0.6,0.71365320131733,0.71365320131733,750,1,0,congruent,0,1630.16759433739,1667.34942747093
12,104,3,388,-0.5,0.5,0.5,1,3,0.6,1,797,1,0,797,0,0,0.6,0.6,0.902662743426969,0.902662743426969,750,0,0,incongruent,0,2287.64326221832,15784.4488705382
12,104,3,389,-0.5,0.5,0,4,NaN,0.4,4,680,1,1,680,1,0,0.2,0.4,0.112872871040264,0.112872871040264,750,0,0,neutral,0.1,1164.55129184462,951.366995709273
12,104,3,391,-0.5,0.5,0.5,4,3,0.4,4,547,1,1,547,1,0,0.4,0.6,-0.78492245398052,-0.78492245398052,750,0,0,incongruent,0.1,12464.2547625898,6161.86669065834
12,104,3,392,-0.5,0.5,-0.5,1,1,0.4,1,505,1,1,505,1,0,0.4,0.6,-1.06843676714498,-1.06843676714498,750,1,0,congruent,0.1,2651.5446908276,3351.47822906352
12,104,3,393,-0.5,0.5,0.5,2,3,0.6,4,845,0,0,NaN,0,0,0.6,0.6,1.22667910132921,NaN,750,0,1,incongruent,0,7951.12077348553,8414.68068397073
12,104,3,394,0.5,-0.5,-0.5,1,1,0.6,1,301,1,1,301,0,0,0.6,NaN,-2.44550628822949,-2.44550628822949,750,1,0,congruent,0,3038.58337420748,793.516807136227
12,104,3,395,0.5,-0.5,-0.5,2,2,0.6,2,559,1,1,559,1,0,0.4,NaN,-0.70391836450496,-0.70391836450496,750,1,0,congruent,1,10020.8150069112,7450.5715926002
12,104,3,396,-0.5,0.5,0,1,NaN,0.6,1,537,1,1,537,1,0,0.8,0.6,-0.852425861876819,-0.852425861876819,750,0,0,neutral,0.1,2473.41584586121,1443.88252645626
12,104,3,397,-0.5,-0.5,-0.5,2,2,0.6,2,633,1,1,633,0,0,0.8,0.6,-0.204393146072344,-0.204393146072344,750,1,0,congruent,0,3142.2304433109,1400.9423426963
12,104,3,398,-0.5,-0.5,-0.5,1,1,0.6,1,616,1,1,616,0,0,0.6,0.4,-0.319148939496053,-0.319148939496053,750,1,0,congruent,0,2485.21636909046,2661.40668087664
12,104,3,399,0.5,0.5,-0.5,2,2,0.6,2,580,1,1,580,1,0,0.6,NaN,-0.562161207922731,-0.562161207922731,750,1,0,congruent,1,5317.24677118377,5055.82985304147
12,104,3,400,-0.5,-0.5,-0.5,3,3,0.8,3,521,1,1,521,1,0,1,0.2,-0.960431314510899,-0.960431314510899,750,1,0,congruent,0.1,1105.15485384718,2841.08117657201
12,104,3,401,0.5,0.5,0,4,NaN,0.8,4,592,1,1,592,1,0,0.8,NaN,-0.481157118447172,-0.481157118447172,750,0,0,neutral,1,6542.12832719425,1409.36741881955
12,104,3,403,-0.5,-0.5,0.5,2,4,0.8,2,755,1,0,755,1,0,1.4,0.4,0.619148430262511,0.619148430262511,750,0,0,incongruent,0.1,4439.83451234188,3840.1150087592
12,104,3,405,-0.5,0.5,0.5,2,4,0.8,2,867,1,0,867,0,0,1.4,0.8,1.37518659870107,1.37518659870107,750,0,0,incongruent,0,26461.5129408718,15996.9367140318
12,104,3,406,-0.5,0.5,0,3,NaN,0.8,3,970,1,0,970,0,0,1.2,0.6,2.07047170003295,2.07047170003295,750,0,0,neutral,0,1287.42283942321,4402.63994407131
12,104,3,407,0.5,0.5,0.5,2,1,0.6,1,483,0,1,NaN,0,0,0.8,NaN,-1.21694426451684,NaN,750,1,0,incongruent,0,1716.97670654033,1573.91627976283
12,104,3,408,0.5,0.5,0.5,3,4,0.4,3,716,1,1,716,1,0,0.4,NaN,0.355885139466943,0.355885139466943,750,0,0,incongruent,1,1322.50357033425,7882.29619300209
12,104,3,409,-0.5,-0.5,0,1,NaN,0.4,1,630,1,1,630,1,0,0.6,0.6,-0.224644168441234,-0.224644168441234,750,0,0,neutral,0.1,3089.44191822685,4414.96688361132
12,104,3,410,0.5,0.5,-0.5,2,2,0.4,2,736,1,1,736,1,0,0.6,NaN,0.490891955259542,0.490891955259542,750,1,0,congruent,1,2417.1853755133,1676.81465255565
12,104,3,411,-0.5,0.5,-0.5,1,1,0.4,1,541,1,1,541,1,0,1,0.4,-0.8254244987183,-0.8254244987183,750,1,0,congruent,0.1,20280.1849026008,14400.8358934219
12,104,3,412,-0.5,0.5,0,4,NaN,0.6,3,630,0,1,NaN,0,0,1.2,0.4,-0.224644168441234,NaN,750,0,1,neutral,0,4447.08828205198,18267.6338424674
12,104,3,413,0.5,0.5,0.5,1,4,0.6,1,646,1,1,646,1,0,1.2,NaN,-0.116638715807154,-0.116638715807154,750,0,0,incongruent,1,4328.46228594503,3198.0693929175
12,104,3,414,0.5,0.5,0,4,NaN,0.8,4,614,1,1,614,1,0,1.2,NaN,-0.332649621075313,-0.332649621075313,750,0,0,neutral,1,7892.83994996404,4069.76475451728
12,104,3,415,0.5,0.5,0.5,2,1,0.8,1,513,0,1,NaN,0,0,1.4,NaN,-1.01443404082794,NaN,750,1,0,incongruent,0,6736.10480833006,5205.73686396669
12,104,3,416,-0.5,-0.5,0,4,NaN,0.6,4,782,1,0,782,0,0,1,0.8,0.80140763158252,0.80140763158252,750,0,0,neutral,0,2313.29283904887,3649.28603366931
12,104,3,417,0.5,0.5,0.5,2,1,0.6,2,778,1,0,778,0,0,0.8,NaN,0.774406268424,0.774406268424,750,0,0,incongruent,0,2742.8203862648,1811.81237258564
12,104,3,419,0.5,-0.5,0.5,4,3,0.4,4,890,1,0,890,1,0,0.4,NaN,1.53044443686255,1.53044443686255,750,0,0,incongruent,1,2616.18161185666,1685.0844369173
12,104,3,420,0.5,-0.5,0,1,NaN,0.4,1,508,1,1,508,0,0,0.4,NaN,-1.04818574477609,-1.04818574477609,750,0,0,neutral,0,2988.49062137955,4119.96204305323
12,104,3,421,0.5,0.5,-0.5,4,4,0.4,4,630,1,1,630,1,0,0.4,NaN,-0.224644168441234,-0.224644168441234,750,1,0,congruent,1,3865.95764203553,1798.98342165538
12,104,3,422,-0.5,-0.5,0.5,3,2,0.4,3,883,1,0,883,0,0,0.8,0.8,1.48319205133515,1.48319205133515,750,0,0,incongruent,0,8522.40448065093,16214.3750375786
12,104,3,423,-0.5,0.5,0.5,4,3,0.4,4,717,1,1,717,1,0,0.8,0.2,0.362635480256573,0.362635480256573,750,0,0,incongruent,0.1,1415.57767337067,4191.89299282739
12,104,3,424,-0.5,-0.5,0,1,NaN,0.4,1,575,1,1,575,0,0,1,0.6,-0.595912911870881,-0.595912911870881,750,0,0,neutral,0,9087.27452330586,6709.6025850321
12,104,3,425,0.5,-0.5,-0.5,2,2,0.4,2,601,1,1,601,0,0,0.6,NaN,-0.420404051340502,-0.420404051340502,750,1,0,congruent,0,14524.5906799825,6432.423682929
12,104,3,426,-0.5,-0.5,0,1,NaN,0.4,1,613,1,1,613,1,0,0.6,0.4,-0.339399961864943,-0.339399961864943,750,0,0,neutral,0.1,1079.04897480851,869.71277335784
12,104,3,427,0.5,0.5,0.5,2,3,0.4,3,677,0,1,NaN,0,0,0.4,NaN,0.0926218486713744,NaN,750,1,0,incongruent,0,12100.6176818371,3691.75699989197
12,104,3,429,-0.5,-0.5,0,2,NaN,0.4,2,654,1,1,654,1,0,0.2,0.4,-0.0626359894901146,-0.0626359894901146,750,0,0,neutral,0.1,17405.9525857383,2419.38136736264
12,104,3,430,-0.5,0.5,-0.5,4,4,0.4,4,841,1,0,841,0,0,0.4,0.4,1.19967773817069,1.19967773817069,750,1,0,congruent,0,3868.75031944045,419.414537350997
12,104,3,431,0.5,0.5,0.5,3,2,0.4,4,676,0,1,NaN,0,0,0.4,NaN,0.0858715078817444,NaN,750,0,1,incongruent,0,6762.06719986075,2586.77764176936
12,104,3,432,-0.5,-0.5,0.5,1,4,0.2,1,484,1,1,484,0,0,0.2,0.4,-1.21019392372721,-1.21019392372721,750,0,0,incongruent,0,10495.0557455745,1353.00664866911
12,104,3,433,0.5,0.5,0.5,3,1,0.2,3,986,1,0,986,0,0,0.2,NaN,2.17847715266703,2.17847715266703,750,0,0,incongruent,0,12986.4054022154,5949.68905860499
12,104,3,434,-0.5,-0.5,0.5,1,3,0,1,707,1,1,707,0,0,0.2,0.4,0.295132072360273,0.295132072360273,750,0,0,incongruent,0,8655.88050574761,4679.23082619261
12,104,3,435,-0.5,0.5,-0.5,4,4,0,4,621,1,1,621,1,0,0,0.2,-0.285397235547903,-0.285397235547903,750,1,0,congruent,0.1,4429.29169702529,3205.48171684046
12,104,3,436,0.5,-0.5,0.5,3,2,0.2,3,880,1,0,880,0,0,0.2,NaN,1.46294102896626,1.46294102896626,750,0,0,incongruent,0,1474.51155488825,1623.0656853358
12,104,3,437,0.5,0.5,0,1,NaN,0.2,1,637,1,1,637,1,0,0.2,NaN,-0.177391782913824,-0.177391782913824,750,0,0,neutral,1,1950.62614922727,1084.34264889151
12,104,3,438,0.5,0.5,0.5,2,1,0.4,3,961,0,0,NaN,0,0,0.6,NaN,2.00971863292628,NaN,750,0,1,incongruent,0,3201.9633445463,7473.89692508261
12,104,3,439,0.5,0.5,-0.5,3,3,0.4,3,766,1,0,766,0,0,0.6,NaN,0.69340217894844,0.69340217894844,750,1,0,congruent,0,623.2053847877,2754.44326977682
12,104,3,440,-0.5,0.5,0.5,4,2,0.4,4,765,1,0,765,0,0,0.6,0.4,0.68665183815881,0.68665183815881,750,0,0,incongruent,0,561.777644815592,1754.1359177564
12,104,3,441,-0.5,0.5,0.5,1,4,0.4,1,602,1,1,602,1,0,0.4,0.4,-0.413653710550872,-0.413653710550872,750,0,0,incongruent,0.1,2765.54838923317,25322.4452030674
12,104,3,442,0.5,0.5,0,4,NaN,0.4,4,635,1,1,635,1,0,0.6,NaN,-0.190892464493084,-0.190892464493084,750,0,0,neutral,1,17317.6897051038,830.056121618573
12,104,3,443,-0.5,-0.5,-0.5,1,1,0.4,1,694,1,1,694,0,0,0.6,0.4,0.207377642095084,0.207377642095084,750,1,0,congruent,0,1786.65704688513,2063.78367338683
12,104,3,444,-0.5,-0.5,0,4,NaN,0.4,4,701,1,1,701,0,0,0.6,0.4,0.254630027622493,0.254630027622493,750,0,0,neutral,0,13135.1601533215,10780.1121858251
12,104,3,445,-0.5,0.5,0.5,1,2,0.4,1,377,1,1,377,1,0,0.6,0.4,-1.93248038821761,-1.93248038821761,750,0,0,incongruent,0.1,10342.7140595581,1779.79431452973
12,104,3,446,-0.5,-0.5,0,3,NaN,0.6,4,402,0,1,NaN,0,0,0.8,0.2,-1.76372186847686,NaN,750,0,1,neutral,0,11944.6921126575,6974.0990423673
12,104,3,447,-0.5,-0.5,-0.5,4,4,0.6,4,813,1,0,813,0,0,0.6,0,1.01066819606105,1.01066819606105,750,1,0,congruent,0,1579.90225785739,8882.76156598232
12,104,3,448,0.5,-0.5,0.5,1,3,0.6,1,629,1,1,629,1,0,0.2,NaN,-0.231394509230863,-0.231394509230863,750,0,0,incongruent,1,10333.6719162173,2931.8571659741
12,104,3,449,0.5,0.5,-0.5,4,4,0.6,4,534,1,1,534,1,0,0.6,NaN,-0.872676884245709,-0.872676884245709,750,1,0,congruent,1,8861.20826288245,17060.1351253517
12,104,3,450,-0.5,0.5,0,3,NaN,0.8,3,599,1,1,599,1,0,1,0.6,-0.433904732919762,-0.433904732919762,750,0,0,neutral,0.1,2854.0272696454,2898.67820405868
12,104,4,451,0.5,-0.5,-0.5,2,2,1,3,902,0,0,NaN,1,0,1,NaN,1.61144852633811,NaN,750,0,1,congruent,1,6185.28125086173,4550.26891443594
12,104,4,452,-0.5,-0.5,-0.5,1,1,1,1,547,1,1,547,1,0,1.4,0,-0.78492245398052,-0.78492245398052,750,1,0,congruent,0.1,6355.16236930626,3554.89732299013
12,104,4,453,0.5,0.5,-0.5,3,3,1,3,649,1,1,649,1,0,1.6,NaN,-0.0963876934382644,-0.0963876934382644,750,1,0,congruent,1,9812.54296703674,12716.5068480652
12,104,4,454,0.5,-0.5,-0.5,4,4,1,4,502,1,1,502,1,0,1.6,NaN,-1.08868778951387,-1.08868778951387,750,1,0,congruent,1,4734.82494740663,1524.51419386282
12,104,4,455,0.5,0.5,0,2,NaN,1,2,679,1,1,679,1,0,1.6,NaN,0.106122530250634,0.106122530250634,750,0,0,neutral,1,2668.9536041198,4808.88897475752
12,104,4,456,0.5,-0.5,-0.5,1,1,1,1,459,1,1,459,1,0,1.8,NaN,-1.37895244346796,-1.37895244346796,750,1,0,congruent,1,4658.65691546408,1915.86355550941
12,104,4,457,-0.5,0.5,0,3,NaN,1,3,533,1,1,533,1,0,1.8,0.8,-0.879427225035339,-0.879427225035339,750,0,0,neutral,0.1,2771.73516985653,2005.68560249724
12,104,4,458,0.5,0.5,-0.5,2,2,1,2,640,1,1,640,1,0,1.8,NaN,-0.157140760544934,-0.157140760544934,750,1,0,congruent,1,4910.56463681587,8924.90510267808
12,104,4,459,0.5,0.5,0,4,NaN,1,4,749,1,1,749,1,0,1.8,NaN,0.578646385524731,0.578646385524731,750,0,0,neutral,1,2363.7881827147,3436.51578613497
12,104,4,460,-0.5,0.5,-0.5,1,1,1,1,622,1,1,622,1,0,1.8,0.8,-0.278646894758273,-0.278646894758273,750,1,0,congruent,0.1,11468.0711141971,26362.7042895921
12,104,4,461,-0.5,0.5,0.5,4,2,1,4,782,1,0,782,0,0,1.6,1,0.80140763158252,0.80140763158252,750,0,0,incongruent,0,5747.20485073151,1242.76423600624
12,104,4,464,0.5,0.5,0.5,1,2,0.8,1,362,1,1,362,1,0,1.2,NaN,-2.03373550006206,-2.03373550006206,750,0,0,incongruent,1,2301.00391628968,2329.95753320341
12,104,4,465,0.5,0.5,-0.5,4,4,0.8,4,912,1,0,912,0,0,1.2,NaN,1.67895193423441,1.67895193423441,750,1,0,congruent,0,2176.29031507335,2967.83846815223
12,104,4,466,-0.5,0.5,0,2,NaN,0.6,3,689,0,1,NaN,0,0,1,0.8,0.173625938146934,NaN,750,0,1,neutral,0,6313.64385482936,4374.0623717532
12,104,4,467,0.5,-0.5,-0.5,1,1,0.4,1,442,1,1,442,0,0,1,NaN,-1.49370823689167,-1.49370823689167,750,1,0,congruent,0,8887.24160012169,2999.28512529662
12,104,4,468,-0.5,0.5,0.5,2,3,0.4,2,820,1,0,820,0,0,0.8,0.6,1.05792058158846,1.05792058158846,750,0,0,incongruent,0,3742.37566429833,2065.52581567354
12,104,4,469,0.5,-0.5,0,1,NaN,0.2,1,566,1,1,566,1,0,0.4,NaN,-0.656665978977551,-0.656665978977551,750,0,0,neutral,1,7348.49291933558,4188.81762051754
12,104,4,470,0.5,0.5,-0.5,3,3,0.2,3,974,1,0,974,0,0,0.4,NaN,2.09747306319147,2.09747306319147,750,1,0,congruent,0,1123.90271349198,1437.469379999
12,104,4,471,-0.5,-0.5,0,2,NaN,0.2,2,708,1,1,708,1,0,0.4,0.4,0.301882413149903,0.301882413149903,750,0,0,neutral,0.1,5630.60144551258,1879.86987314067
12,104,4,472,-0.5,-0.5,-0.5,1,1,0.2,1,466,1,1,466,0,0,0.6,0.6,-1.33170005794055,-1.33170005794055,750,1,0,congruent,0,1409.8518550181,1389.32510501448
12,104,4,473,0.5,-0.5,0,2,NaN,0.2,2,620,1,1,620,0,0,0.6,NaN,-0.292147576337533,-0.292147576337533,750,0,0,neutral,0,306.639608168987,2028.29832076377
12,104,4,474,-0.5,-0.5,-0.5,4,4,0.2,4,542,1,1,542,0,0,0.6,0.6,-0.81867415792867,-0.81867415792867,750,1,0,congruent,0,15865.1340940915,25611.3866692407
12,104,4,475,0.5,0.5,-0.5,1,1,0.2,1,482,1,1,482,1,0,0.2,NaN,-1.22369460530647,-1.22369460530647,750,1,0,congruent,1,1461.90890576884,3207.40308395525
12,104,4,476,-0.5,-0.5,0,3,NaN,0.2,3,614,1,1,614,0,0,0.6,0.6,-0.332649621075313,-0.332649621075313,750,0,0,neutral,0,23148.1336628806,3176.34572569466
12,104,4,477,0.5,0.5,-0.5,2,2,0.2,2,825,1,0,825,0,0,0.4,NaN,1.09167228553661,1.09167228553661,750,1,0,congruent,0,2298.52295741631,746.004114874407
12,104,4,478,-0.5,0.5,0.5,1,4,0.2,1,339,1,1,339,1,0,0.4,0.4,-2.18899333822355,-2.18899333822355,750,0,0,incongruent,0.1,10256.4704291449,1321.90282719584
12,104,4,479,-0.5,0.5,0.5,2,3,0.4,2,804,1,0,804,0,0,0.6,0.4,0.949915128954379,0.949915128954379,750,0,0,incongruent,0,1852.93761506241,4748.2263927871
12,104,4,480,-0.5,0.5,0.5,3,2,0.4,3,619,1,1,619,1,0,0.6,0.2,-0.298897917127163,-0.298897917127163,750,0,0,incongruent,0.1,4172.36745716947,10461.8550313933
12,104,4,481,0.5,-0.5,0,4,NaN,0.6,4,503,1,1,503,1,0,0.4,NaN,-1.08193744872424,-1.08193744872424,750,0,0,neutral,1,6822.41287774166,3466.99766569967
12,104,4,482,-0.5,0.5,0.5,3,4,0.6,2,820,0,0,NaN,0,0,0.8,0.4,1.05792058158846,NaN,750,0,1,incongruent,0,12144.1613134991,6570.62202649748
12,104,4,483,-0.5,-0.5,-0.5,2,2,0.4,2,827,1,0,827,0,0,0.8,0.4,1.10517296711587,1.10517296711587,750,1,0,congruent,0,2277.32489507479,7468.71643670323
12,104,4,484,-0.5,-0.5,-0.5,1,1,0.4,1,628,1,1,628,0,0,0.6,0.2,-0.238144850020493,-0.238144850020493,750,1,0,congruent,0,3015.09597191431,1958.70077597236
12,104,4,485,0.5,-0.5,-0.5,2,2,0.4,2,782,1,0,782,0,0,0.6,NaN,0.80140763158252,0.80140763158252,750,1,0,congruent,0,1831.98648571241,2220.73442730382
12,104,4,486,-0.5,0.5,0,3,NaN,0.4,3,514,1,1,514,1,0,0.4,0.4,-1.00768370003831,-1.00768370003831,750,0,0,neutral,0.1,2690.39611614253,1625.09357724988
12,104,4,487,-0.5,-0.5,0.5,4,2,0.6,4,735,1,1,735,1,0,0.2,0,0.484141614469912,0.484141614469912,750,0,0,incongruent,0.1,1911.62912170726,495.601518920352
12,104,4,488,-0.5,-0.5,0,2,NaN,0.6,2,751,1,0,751,1,0,0.4,0.2,0.592147067103991,0.592147067103991,750,0,0,neutral,0.1,2040.92290473236,7290.95205949069
12,104,4,489,-0.5,-0.5,-0.5,1,1,0.6,1,304,1,1,304,0,0,0.6,0.4,-2.4252552658606,-2.4252552658606,750,1,0,congruent,0,15487.7159220379,17352.9881009981
12,104,4,490,0.5,0.5,-0.5,2,2,0.6,2,917,1,0,917,0,0,0.6,NaN,1.71270363818256,1.71270363818256,750,1,0,congruent,0,19534.7836744795,8581.8870347481
12,104,4,491,-0.5,-0.5,0.5,3,4,0.4,3,934,1,0,934,1,0,0.6,0.4,1.82745943160627,1.82745943160627,750,0,0,incongruent,0.1,5754.63401745776,3468.25219298112
12,104,4,492,-0.5,0.5,0,2,NaN,0.4,2,774,1,0,774,0,0,0.6,0.6,0.74740490526548,0.74740490526548,750,0,0,neutral,0,6669.9813939203,10267.0025950358
12,104,4,493,0.5,0.5,0.5,1,2,0.4,1,712,1,1,712,1,0,0.4,NaN,0.328883776308423,0.328883776308423,750,0,0,incongruent,1,5036.15595017545,2611.14481719449
12,104,4,494,0.5,-0.5,-0.5,4,4,0.4,4,449,1,1,449,1,0,0.6,NaN,-1.44645585136426,-1.44645585136426,750,1,0,congruent,1,4077.45576363876,4538.13892720821
12,104,4,495,0.5,-0.5,0,3,NaN,0.4,3,637,1,1,637,0,0,1,NaN,-0.177391782913824,-0.177391782913824,750,0,0,neutral,0,14061.4094628659,4888.0465632154
12,104,4,496,0.5,0.5,0.5,1,3,0.4,1,341,1,1,341,1,0,1,NaN,-2.17549265664429,-2.17549265664429,750,0,0,incongruent,1,1333.80595526486,2436.81868468633
12,104,4,497,-0.5,-0.5,0.5,3,4,0.6,3,392,1,1,392,0,0,1.2,0.6,-1.83122527637316,-1.83122527637316,750,0,0,incongruent,0,7548.01768459989,5619.44905583695
12,104,4,498,-0.5,-0.5,-0.5,1,1,0.6,1,313,1,1,313,0,0,1.2,0.6,-2.36450219875393,-2.36450219875393,750,1,0,congruent,0,5189.27289579629,6042.29535710876
12,104,4,499,-0.5,0.5,0,4,NaN,0.6,4,596,1,1,596,1,0,0.8,0.4,-0.454155755288652,-0.454155755288652,750,0,0,neutral,0.1,1411.95496751033,1585.44504716814
12,104,4,500,-0.5,-0.5,-0.5,3,3,0.6,3,532,1,1,532,0,0,0.6,0.4,-0.886177565824969,-0.886177565824969,750,1,0,congruent,0,4068.70425413424,2870.09914925233
12,104,4,501,0.5,-0.5,-0.5,4,4,0.6,4,573,1,1,573,0,0,0.6,NaN,-0.609413593450141,-0.609413593450141,750,1,0,congruent,0,12678.4535682486,7200.37433859388
12,104,4,502,-0.5,0.5,0,2,NaN,0.6,2,779,1,0,779,0,0,0.2,0.6,0.78115660921363,0.78115660921363,750,0,0,neutral,0,13754.9044042346,16980.7881654501
12,104,4,503,-0.5,-0.5,-0.5,3,3,0.6,3,785,1,0,785,0,0,0.2,0.2,0.82165865395141,0.82165865395141,750,1,0,congruent,0,11814.2335121137,3922.43445864835
12,104,4,504,0.5,-0.5,0.5,2,4,0.6,2,718,1,1,718,1,0,0.2,NaN,0.369385821046203,0.369385821046203,750,0,0,incongruent,1,10785.4986645775,17402.2379932383
12,104,4,505,-0.5,0.5,-0.5,3,3,0.6,3,684,1,1,684,1,0,0.4,0.4,0.139874234198784,0.139874234198784,750,1,0,congruent,0.1,1318.42470415622,1528.53162133465
12,104,4,506,0.5,0.5,-0.5,4,4,0.8,4,559,1,1,559,1,0,0.6,NaN,-0.70391836450496,-0.70391836450496,750,1,0,congruent,1,3212.64810137367,1484.65778901677
12,104,4,507,0.5,0.5,-0.5,2,2,0.8,2,697,1,1,697,1,0,1,NaN,0.227628664463974,0.227628664463974,750,1,0,congruent,1,3273.42495099246,1749.02886611728
12,104,4,508,-0.5,-0.5,0.5,3,4,0.8,3,717,1,1,717,1,0,1.4,0.2,0.362635480256573,0.362635480256573,750,0,0,incongruent,0.1,2653.99133060277,4104.78120093257
12,104,4,509,0.5,-0.5,-0.5,1,1,0.8,1,307,1,1,307,1,0,1.6,NaN,-2.40500424349171,-2.40500424349171,750,1,0,congruent,1,4146.39276101806,2213.00841787455
12,104,4,510,-0.5,0.5,-0.5,4,4,0.8,4,534,1,1,534,1,0,1.6,0.6,-0.872676884245709,-0.872676884245709,750,1,0,congruent,0.1,8878.23773687218,8302.68115369099
12,104,4,511,-0.5,-0.5,0.5,2,1,0.8,3,603,0,1,NaN,1,0,1.6,0.2,-0.406903369761242,NaN,750,0,1,incongruent,0.1,8745.76636012319,3086.31536665329
12,104,4,512,-0.5,-0.5,0.5,1,3,0.8,1,603,1,1,603,0,0,1.4,0.4,-0.406903369761242,-0.406903369761242,750,0,0,incongruent,0,5773.22677950687,3490.56003944745
12,104,4,513,0.5,0.5,0.5,4,2,0.8,4,760,1,0,760,0,0,1,NaN,0.652900134210661,0.652900134210661,750,0,0,incongruent,0,2910.31971201592,6979.28055777557
12,104,4,514,0.5,0.5,0.5,1,3,0.8,1,559,1,1,559,1,0,0.8,NaN,-0.70391836450496,-0.70391836450496,750,0,0,incongruent,1,4754.01634439142,9604.58113629268
12,104,4,515,-0.5,-0.5,0.5,2,1,0.8,2,815,1,0,815,1,0,0.8,0.4,1.02416887764031,1.02416887764031,750,0,0,incongruent,0.1,8144.37025789491,8168.15216947478
12,104,4,516,0.5,0.5,-0.5,3,3,0.8,3,526,1,1,526,1,0,0.8,NaN,-0.926679610562749,-0.926679610562749,750,1,0,congruent,1,13852.2992062266,18516.8169635616
12,104,4,517,0.5,0.5,0.5,2,1,0.8,2,749,1,1,749,1,0,1,NaN,0.578646385524731,0.578646385524731,750,0,0,incongruent,1,3193.6269490279,3309.84902118997
12,104,4,518,-0.5,0.5,-0.5,3,3,0.8,3,476,1,1,476,1,0,1.4,0.6,-1.26419665004425,-1.26419665004425,750,1,0,congruent,0.1,3607.38795330642,2420.63114680681
12,104,4,519,0.5,-0.5,0.5,2,1,0.8,2,801,1,0,801,1,0,1.6,NaN,0.929664106585489,0.929664106585489,750,0,0,incongruent,1,10347.6611054633,6568.17979047957
12,104,4,520,0.5,-0.5,0.5,4,2,0.8,4,677,1,1,677,1,0,1.6,NaN,0.0926218486713744,0.0926218486713744,750,0,0,incongruent,1,1937.75497441179,3552.38872401517
12,104,4,521,0.5,0.5,-0.5,1,1,0.8,1,293,1,1,293,1,0,1.8,NaN,-2.49950901454653,-2.49950901454653,750,1,0,congruent,1,3255.64076040653,1813.01556399891
12,104,4,522,-0.5,-0.5,0.5,4,2,1,4,746,1,1,746,1,0,1.8,0.6,0.558395363155841,0.558395363155841,750,0,0,incongruent,0.1,3320.62852999595,2397.00171338666
12,104,4,523,-0.5,0.5,0,1,NaN,1,1,498,1,1,498,1,0,1.6,0.8,-1.11568915267239,-1.11568915267239,750,0,0,neutral,0.1,2624.0348274193,1828.78297383501
12,104,4,524,-0.5,-0.5,0.5,3,4,1,3,699,1,1,699,1,0,1.6,0.8,0.241129346043233,0.241129346043233,750,0,0,incongruent,0.1,15838.6578884949,3088.41167270767
12,104,4,525,-0.5,0.5,0.5,4,2,1,4,746,1,1,746,1,0,1.4,0.8,0.558395363155841,0.558395363155841,750,0,0,incongruent,0.1,8933.59475765083,5728.99731301921
12,104,4,528,-0.5,-0.5,-0.5,4,4,0.8,4,583,1,1,583,0,0,1,0.8,-0.541910185553842,-0.541910185553842,750,1,0,congruent,0,3564.92224323358,1746.26494953617
12,104,4,529,0.5,-0.5,0,1,NaN,0.8,1,371,1,1,371,1,0,0.8,NaN,-1.97298243295539,-1.97298243295539,750,0,0,neutral,1,2246.60442303962,1495.22074805715
12,104,4,530,-0.5,0.5,-0.5,2,2,0.8,2,473,1,1,473,1,0,1,0.8,-1.28444767241314,-1.28444767241314,750,1,0,congruent,0.1,3428.62302586006,3571.46665762019
12,104,4,531,-0.5,0.5,0.5,4,1,0.8,4,705,1,1,705,1,0,1,0.8,0.281631390781013,0.281631390781013,750,0,0,incongruent,0.1,4363.38532644275,4164.65831927901
12,104,4,532,0.5,0.5,0.5,2,3,0.8,2,691,1,1,691,1,0,1.2,NaN,0.187126619726194,0.187126619726194,750,0,0,incongruent,1,2795.14930898083,4001.09835453571
12,104,4,533,0.5,-0.5,0.5,1,4,0.8,1,635,1,1,635,1,0,1.2,NaN,-0.190892464493084,-0.190892464493084,750,0,0,incongruent,1,629.864951361733,1926.72959063436
12,104,4,534,0.5,-0.5,0.5,4,3,0.8,4,603,1,1,603,1,0,1.6,NaN,-0.406903369761242,-0.406903369761242,750,0,0,incongruent,1,1462.13258439965,2497.52607096421
12,104,4,535,-0.5,0.5,-0.5,1,1,0.8,1,460,1,1,460,1,0,1.6,0.8,-1.37220210267833,-1.37220210267833,750,1,0,congruent,0.1,587.417959118504,1898.70133517596
12,104,4,536,-0.5,0.5,-0.5,3,3,0.8,3,658,1,1,658,1,0,1.6,0.8,-0.0356346263315948,-0.0356346263315948,750,1,0,congruent,0.1,1706.99613612573,3525.15586693887
12,104,4,537,-0.5,0.5,0,1,NaN,1,1,381,1,1,381,1,0,1.6,0.8,-1.90547902505909,-1.90547902505909,750,0,0,neutral,0.1,2114.27428641953,5720.26755482989
12,104,4,538,0.5,0.5,-0.5,3,3,1,3,561,1,1,561,1,0,1.4,NaN,-0.6904176829257,-0.6904176829257,750,1,0,congruent,1,13861.2560746377,2945.69042634727
12,104,4,539,0.5,0.5,0.5,2,4,1,2,725,1,1,725,1,0,1.4,NaN,0.416638206573612,0.416638206573612,750,0,0,incongruent,1,6431.54992351525,3920.01614559502
12,104,4,540,0.5,-0.5,-0.5,3,3,1,3,584,1,1,584,1,0,1.4,NaN,-0.535159844764212,-0.535159844764212,750,1,0,congruent,1,9239.95723447571,1647.03367017721
12,104,4,541,-0.5,0.5,-0.5,4,4,1,4,477,1,1,477,1,0,1.6,1,-1.25744630925462,-1.25744630925462,750,1,0,congruent,0.1,17208.4022513099,7823.75523064991
12,104,4,542,-0.5,-0.5,-0.5,1,1,1,1,348,1,1,348,1,0,1.6,0.6,-2.12824027111688,-2.12824027111688,750,1,0,congruent,0.1,5909.32711814721,5888.35141053511
12,104,4,543,-0.5,-0.5,0,3,NaN,1,3,460,1,1,460,1,0,1.6,0.8,-1.37220210267833,-1.37220210267833,750,0,0,neutral,0.1,14624.1432268779,3010.70417840084
12,104,4,544,-0.5,0.5,-0.5,1,1,1,1,428,1,1,428,1,0,1.4,1,-1.58821300794648,-1.58821300794648,750,1,0,congruent,0.1,6681.57649046781,3127.91280108328
12,104,4,545,-0.5,-0.5,-0.5,4,4,1,4,552,1,1,552,1,0,1.2,0.8,-0.75117075003237,-0.75117075003237,750,1,0,congruent,0.1,3638.53411473509,1399.04828992626
12,104,4,546,-0.5,0.5,0.5,2,1,1,3,691,0,1,NaN,0,0,1,1,0.187126619726194,NaN,750,0,1,incongruent,0,2940.44192210223,1295.32642502437
12,104,4,547,0.5,-0.5,0,1,NaN,0.8,1,491,1,1,491,1,0,0.8,NaN,-1.1629415381998,-1.1629415381998,750,0,0,neutral,1,1330.35342907451,4300.84778524093
12,104,4,549,0.5,0.5,-0.5,1,1,0.8,1,390,1,1,390,1,0,0.8,NaN,-1.84472595795242,-1.84472595795242,750,1,0,congruent,1,1661.19491775988,1215.3534122816
12,104,4,550,-0.5,-0.5,0,4,NaN,0.8,4,530,1,1,530,1,0,1,0.8,-0.899678247404229,-0.899678247404229,750,0,0,neutral,0.1,3541.10507403704,1286.15887794557
12,104,4,551,-0.5,-0.5,-0.5,2,2,0.8,2,764,1,0,764,0,0,1,0.8,0.679901497369181,0.679901497369181,750,1,0,congruent,0,2038.92000495633,2891.81384247431
12,104,4,552,-0.5,0.5,-0.5,4,4,0.8,4,542,1,1,542,1,0,1,0.8,-0.81867415792867,-0.81867415792867,750,1,0,congruent,0.1,1982.4569343084,2024.75792822286
12,104,4,553,0.5,-0.5,0,3,NaN,0.8,3,646,1,1,646,0,0,0.8,NaN,-0.116638715807154,-0.116638715807154,750,0,0,neutral,0,713.939834334263,2364.32133445625
12,104,4,555,-0.5,0.5,0,2,NaN,0.8,2,731,1,1,731,1,0,0.8,0.8,0.457140251311392,0.457140251311392,750,0,0,neutral,0.1,1331.94406039129,1920.06386641418
12,104,4,556,-0.5,-0.5,-0.5,3,3,0.8,3,680,1,1,680,1,0,0.8,0.8,0.112872871040264,0.112872871040264,750,1,0,congruent,0.1,1264.08456631864,4315.83652112765
12,104,4,557,-0.5,0.5,0,1,NaN,0.8,1,488,1,1,488,1,0,1,0.8,-1.18319256056869,-1.18319256056869,750,0,0,neutral,0.1,3069.02773808662,3198.60821530381
12,104,4,559,-0.5,-0.5,0.5,4,3,0.8,4,702,1,1,702,0,0,1.4,0.8,0.261380368412123,0.261380368412123,750,0,0,incongruent,0,2597.74561544488,4991.80654302487
12,104,4,560,0.5,-0.5,0,3,NaN,0.8,3,663,1,1,663,1,0,1,NaN,-0.00188292238344499,-0.00188292238344499,750,0,0,neutral,1,1230.7811262804,1071.36986430068
12,104,4,562,-0.5,-0.5,0,1,NaN,0.8,1,403,1,1,403,1,0,1,0.4,-1.75697152768723,-1.75697152768723,750,0,0,neutral,0.1,3051.99295910427,2205.7504000014
12,104,4,563,0.5,0.5,0.5,3,1,0.8,3,583,1,1,583,1,0,1,NaN,-0.541910185553842,-0.541910185553842,750,0,0,incongruent,1,4795.75571481994,1568.8911342154
12,104,4,565,-0.5,0.5,-0.5,3,3,1,3,679,1,1,679,1,0,1.2,0.8,0.106122530250634,0.106122530250634,750,1,0,congruent,0.1,3382.92942276389,4585.22918572484
12,104,4,566,-0.5,-0.5,-0.5,2,2,1,2,846,1,0,846,1,0,1,0.6,1.23342944211884,1.23342944211884,750,1,0,congruent,0.1,17879.5405847999,2680.47974359868
12,104,4,567,0.5,-0.5,0,3,NaN,1,3,599,1,1,599,1,0,1.2,NaN,-0.433904732919762,-0.433904732919762,750,0,0,neutral,1,969.095516291399,3611.77824397573
12,104,4,568,0.5,-0.5,-0.5,1,1,1,1,494,1,1,494,1,0,1.4,NaN,-1.14269051583091,-1.14269051583091,750,1,0,congruent,1,4872.82987879322,3034.83737384247
12,104,4,569,0.5,0.5,-0.5,4,4,1,4,482,1,1,482,1,0,1.4,NaN,-1.22369460530647,-1.22369460530647,750,1,0,congruent,1,7671.94573364117,4189.40077879613
12,104,4,570,0.5,0.5,-0.5,1,1,1,1,681,1,1,681,1,0,1.6,NaN,0.119623211829894,0.119623211829894,750,1,0,congruent,1,311.058924073627,6035.06121318168
12,104,4,573,0.5,0.5,0,1,NaN,0.6,1,502,1,1,502,1,0,1.2,NaN,-1.08868778951387,-1.08868778951387,750,0,0,neutral,1,3278.2800151955,2890.0928810564
12,104,4,574,0.5,-0.5,-0.5,3,3,0.6,3,615,1,1,615,0,0,1.2,NaN,-0.325899280285683,-0.325899280285683,750,1,0,congruent,0,2260.02099282449,3548.68662596572
12,104,4,575,-0.5,0.5,-0.5,4,4,0.6,4,528,1,1,528,1,0,0.8,0.8,-0.913178928983489,-0.913178928983489,750,1,0,congruent,0.1,7278.17347783193,2894.15832660552
12,104,4,576,-0.5,-0.5,0.5,2,3,0.6,2,666,1,1,666,1,0,0.6,0.6,0.0183680999854449,0.0183680999854449,750,0,0,incongruent,0.1,9858.78995439575,7879.27048208539
12,104,4,577,-0.5,-0.5,0,1,NaN,0.6,1,362,1,1,362,1,0,0.8,0.8,-2.03373550006206,-2.03373550006206,750,0,0,neutral,0.1,4678.05130554471,6091.00091772218
12,104,4,578,0.5,0.5,-0.5,4,4,0.6,4,611,1,1,611,1,0,1,NaN,-0.352900643444203,-0.352900643444203,750,1,0,congruent,1,2985.10400273792,1953.41360265398
12,104,4,579,-0.5,-0.5,0.5,2,1,0.6,2,789,1,0,789,1,0,1,1,0.848660017109929,0.848660017109929,750,0,0,incongruent,0.1,4517.55432489399,2725.472112232
12,104,4,580,0.5,0.5,0,1,NaN,0.6,1,629,1,1,629,1,0,1.2,NaN,-0.231394509230863,-0.231394509230863,750,0,0,neutral,1,2003.87727611715,1898.5905592686
12,104,4,581,0.5,0.5,-0.5,4,4,0.8,4,591,1,1,591,1,0,1.4,NaN,-0.487907459236802,-0.487907459236802,750,1,0,congruent,1,14656.8575766892,15812.9277216021
12,104,4,582,0.5,0.5,-0.5,1,1,1,1,565,1,1,565,1,0,1.6,NaN,-0.663416319767181,-0.663416319767181,750,1,0,congruent,1,1518.01754579486,3901.76930019543
12,104,4,583,0.5,-0.5,0.5,2,4,1,2,889,1,0,889,1,0,1.8,NaN,1.52369409607293,1.52369409607293,750,0,0,incongruent,1,3527.35154858507,3820.39551823123
12,104,4,586,0.5,-0.5,0,1,NaN,1,1,460,1,1,460,1,0,1.8,NaN,-1.37220210267833,-1.37220210267833,750,0,0,neutral,1,2547.7755392656,2660.93197161081
12,104,4,587,-0.5,-0.5,-0.5,3,3,1,3,387,1,1,387,1,0,1.8,1,-1.86497698032131,-1.86497698032131,750,1,0,congruent,0.1,1684.85835026242,1441.3936775893
12,104,4,588,-0.5,-0.5,-0.5,2,2,1,2,644,1,1,644,1,0,1.6,1,-0.130139397386414,-0.130139397386414,750,1,0,congruent,0.1,1126.73572492181,3997.76113064272
12,104,4,589,-0.5,-0.5,0,3,NaN,1,3,574,1,1,574,1,0,1.4,1,-0.602663252660511,-0.602663252660511,750,0,0,neutral,0.1,5640.90382087459,4658.00699234912
12,104,4,590,-0.5,-0.5,-0.5,1,1,1,1,611,1,1,611,1,0,1.4,1,-0.352900643444203,-0.352900643444203,750,1,0,congruent,0.1,1442.26413287227,1045.67405714954
12,104,4,591,-0.5,-0.5,-0.5,4,4,1,4,572,1,1,572,1,0,1.2,1,-0.616163934239771,-0.616163934239771,750,1,0,congruent,0.1,574.421843254342,3621.13221141404
12,104,4,592,-0.5,0.5,-0.5,1,1,1,1,453,1,1,453,1,0,1,0.8,-1.41945448820574,-1.41945448820574,750,1,0,congruent,0.1,8374.07186216782,21591.3441101389
12,104,4,593,0.5,-0.5,-0.5,3,3,1,3,636,1,1,636,1,0,1,NaN,-0.184142123703454,-0.184142123703454,750,1,0,congruent,1,820.966287104976,2271.2624612471
12,104,4,594,0.5,0.5,-0.5,4,4,1,4,553,1,1,553,1,0,1.2,NaN,-0.74442040924274,-0.74442040924274,750,1,0,congruent,1,1214.22489889791,2063.67056171559
12,104,4,595,0.5,-0.5,0,3,NaN,1,3,721,1,1,721,1,0,1.4,NaN,0.389636843415092,0.389636843415092,750,0,0,neutral,1,910.185338170134,1067.02215719985
12,104,4,596,0.5,-0.5,-0.5,4,4,1,4,544,1,1,544,1,0,1.6,NaN,-0.80517347634941,-0.80517347634941,750,1,0,congruent,1,4008.15422594047,1395.05160679401
12,104,4,597,0.5,-0.5,0.5,1,3,1,4,767,0,0,NaN,1,0,1.8,NaN,0.70015251973807,NaN,750,0,1,incongruent,1,6873.76896813927,1043.1048295178
12,104,4,598,0.5,0.5,0,3,NaN,1,3,549,1,1,549,1,0,2,NaN,-0.77142177240126,-0.77142177240126,750,0,0,neutral,1,2363.72264208148,1146.68839666474
