subid,vers,block,trial,rewlvl,efflvl,congruency,targetresp,distractorresp,rollingefflvl,resp,rt,acc,fast,accrt,isrewarded,ismiss,runavgrrgen,runavgrrcond,zrt,acczrt,rtthreshold,isdisterror,isranderror,congruence,feedback,fcz_resp_theta,fcz_resp_theta_baseline
13,104,1,1,0.5,-0.5,0,1,NaN,0.4,1,733,1,1,733,0,0,0,NaN,0.551737451343489,0.551737451343489,750,0,0,neutral,0,2279.35696693612,1017.44146892726
13,104,1,2,-0.5,-0.5,-0.5,3,3,0.4,3,697,1,1,697,1,0,0,0,0.321557627213107,0.321557627213107,750,1,0,congruent,0.1,1506.16891633223,2944.61214196972
13,104,1,3,0.5,0.5,0.5,4,1,0.4,4,980,1,0,980,0,0,0.2,NaN,2.13102680023805,2.13102680023805,750,0,0,incongruent,0,4989.94496732922,4785.94940613591
13,104,1,4,-0.5,0.5,0.5,2,4,0.3,2,798,1,0,798,0,0,0.2,0,0.967339911578901,0.967339911578901,750,0,0,incongruent,0,5144.72858840562,2039.50922804517
13,104,1,5,-0.5,-0.5,0.5,4,2,0.3,4,951,1,0,951,0,0,0.2,0.2,1.94560416413302,1.94560416413302,750,0,0,incongruent,0,1394.0243323797,6107.14200178273
13,104,1,6,0.5,-0.5,0,1,NaN,0.3,1,568,1,1,568,1,0,0.2,NaN,-0.503253409254095,-0.503253409254095,750,0,0,neutral,1,1734.59217565377,1426.76262237186
13,104,1,7,0.5,-0.5,-0.5,2,2,0.3,2,587,1,1,587,0,0,0.6,NaN,-0.381769613185282,-0.381769613185282,750,1,0,congruent,0,7869.06283725626,4187.55695379323
13,104,1,8,0.5,-0.5,-0.5,3,3,0.3,3,671,1,1,671,0,0,0.4,NaN,0.155316643118942,0.155316643118942,750,1,0,congruent,0,4929.77899180907,1495.55924344089
13,104,1,9,-0.5,-0.5,0.5,1,4,0.3,1,885,1,0,885,0,0,0.4,0.2,1.52360781989399,1.52360781989399,750,0,0,incongruent,0,2800.31424082195,4733.64587697829
13,104,1,10,0.5,-0.5,0.5,2,1,0.3,2,812,1,0,812,0,0,0.4,NaN,1.0568542876296,1.0568542876296,750,0,0,incongruent,0,3335.04490576597,4659.29154702747
13,104,1,11,0.5,-0.5,0.5,1,3,0.3,1,860,1,0,860,0,0,0.4,NaN,1.36376071980345,1.36376071980345,750,0,0,incongruent,0,799.431887718964,1455.19868196617
13,104,1,12,-0.5,-0.5,0,2,NaN,0.3,2,714,1,1,714,0,0,0,0.2,0.430253655274676,0.430253655274676,750,0,0,neutral,0,3193.66865831168,1165.62349379726
13,104,1,13,-0.5,0.5,-0.5,4,4,0.3,3,605,0,1,NaN,0,0,0,0,-0.266679701120091,NaN,750,0,1,congruent,0,7598.30489371867,2447.80864012131
13,104,1,14,-0.5,-0.5,-0.5,2,2,0.1,3,648,0,1,NaN,0,0,0,0.2,0.00825731103564264,NaN,750,0,1,congruent,0,3977.51625557986,1971.54694894812
13,104,1,15,-0.5,0.5,-0.5,3,3,0.1,3,357,1,1,357,1,0,0,0,-1.85236293401828,-1.85236293401828,750,1,0,congruent,0.1,1204.50412224855,3802.04166851845
13,104,1,16,0.5,-0.5,0.5,1,4,0.2,1,660,1,1,660,0,0,0.2,NaN,0.0849839190791033,0.0849839190791033,750,0,0,incongruent,0,4075.25098331739,6181.10226633224
13,104,1,17,0.5,-0.5,0,3,NaN,0.2,3,693,1,1,693,1,0,0.2,NaN,0.29598209119862,0.29598209119862,750,0,0,neutral,1,4444.62390270436,546.207522753625
13,104,1,18,-0.5,0.5,0.5,2,3,0.2,2,499,1,1,499,1,0,0.6,0.2,-0.944431405503994,-0.944431405503994,750,0,0,incongruent,0.1,3793.89733350959,3157.94659171716
13,104,1,19,0.5,0.5,0,3,NaN,0.4,3,687,1,1,687,1,0,0.8,NaN,0.25761878717689,0.25761878717689,750,0,0,neutral,1,5778.62854161787,788.454090101177
13,104,1,20,-0.5,0.5,0.5,2,4,0.6,2,652,1,1,652,1,0,1.2,0.4,0.0338328470501295,0.0338328470501295,750,0,0,incongruent,0.1,5878.08689090439,1006.28863330685
13,104,1,21,0.5,-0.5,0,1,NaN,0.8,1,498,1,1,498,1,0,1.2,NaN,-0.950825289507616,-0.950825289507616,750,0,0,neutral,1,5029.52137621594,3957.34205116651
13,104,1,22,0.5,-0.5,-0.5,2,2,0.8,2,582,1,1,582,0,0,1.6,NaN,-0.413739033203391,-0.413739033203391,750,1,0,congruent,0,8201.96320302605,1478.55041157855
13,104,1,23,0.5,-0.5,-0.5,1,1,0.8,1,451,1,1,451,1,0,1.2,NaN,-1.25133783767784,-1.25133783767784,750,1,0,congruent,1,1305.99796524486,3737.63076427108
13,104,1,24,0.5,-0.5,-0.5,2,2,0.8,2,390,1,1,390,1,0,1.4,NaN,-1.64136476189876,-1.64136476189876,750,1,0,congruent,1,9133.86831221445,1078.57386981142
13,104,1,25,0.5,-0.5,0.5,3,1,0.8,3,679,1,1,679,1,0,1.4,NaN,0.206467715147916,0.206467715147916,750,0,0,incongruent,1,2505.2719407306,4168.89991727824
13,104,1,26,-0.5,0.5,-0.5,2,2,0.8,2,546,1,1,546,1,0,1.6,0.6,-0.643918857333773,-0.643918857333773,750,1,0,congruent,0.1,1729.75301524663,1585.54185289651
13,104,1,27,0.5,0.5,-0.5,1,1,1,1,507,1,1,507,1,0,1.4,NaN,-0.89328033347502,-0.89328033347502,750,1,0,congruent,1,8994.377476006,1633.99818510379
13,104,1,28,-0.5,-0.5,0,2,NaN,1,2,932,1,0,932,1,0,1.8,0.2,1.82412036806421,1.82412036806421,750,0,0,neutral,0.1,651.001245739408,5490.43066176534
13,104,1,29,0.5,-0.5,-0.5,1,1,1,1,511,1,1,511,1,0,1.6,NaN,-0.867704797460533,-0.867704797460533,750,1,0,congruent,1,1108.67615448533,10210.4794802362
13,104,1,30,0.5,0.5,0,4,NaN,1,4,724,1,1,724,1,0,1.6,NaN,0.494192495310893,0.494192495310893,750,0,0,neutral,1,425.485093618022,3054.90340872141
13,104,1,31,0.5,0.5,-0.5,3,3,1,3,647,1,1,647,1,0,1.6,NaN,0.00186342703202092,0.00186342703202092,750,1,0,congruent,1,3118.58492006343,2656.58256963031
13,104,1,32,-0.5,-0.5,0.5,4,1,1,4,742,1,1,742,1,0,1.8,0.2,0.609282407376084,0.609282407376084,750,0,0,incongruent,0.1,4777.58533771199,6468.40772273701
13,104,1,33,-0.5,0.5,0.5,1,4,1,1,643,1,1,643,1,0,1.6,0.8,-0.023712108982466,-0.023712108982466,750,0,0,incongruent,0.1,2038.30007627198,5891.62551342595
13,104,1,34,0.5,0.5,0.5,4,3,1,4,741,1,1,741,1,0,1.6,NaN,0.602888523372463,0.602888523372463,750,0,0,incongruent,1,5976.88331502383,3511.86028152328
13,104,1,35,0.5,0.5,0.5,3,2,1,3,738,1,1,738,1,0,1.6,NaN,0.583706871361597,0.583706871361597,750,0,0,incongruent,1,12600.2088304257,6194.99055602518
13,104,1,36,-0.5,-0.5,0.5,4,1,1,4,676,1,1,676,1,0,1.6,0.4,0.187286063137051,0.187286063137051,750,0,0,incongruent,0.1,4961.4159396333,1620.48464939422
13,104,1,37,0.5,0.5,-0.5,3,3,1,3,749,1,1,749,1,0,1.4,NaN,0.654039595401437,0.654039595401437,750,1,0,congruent,1,5092.84680403286,2502.91530217401
13,104,1,38,-0.5,0.5,0,1,NaN,1,1,588,1,1,588,1,0,1.6,1,-0.375375729181661,-0.375375729181661,750,0,0,neutral,0.1,2456.23767167626,1323.33233418017
13,104,1,39,-0.5,0.5,-0.5,4,4,1,4,520,1,1,520,1,0,1.6,1,-0.810159841427938,-0.810159841427938,750,1,0,congruent,0.1,5020.13918760157,1882.73463621896
13,104,1,40,0.5,-0.5,-0.5,2,2,1,2,446,1,1,446,1,0,1.4,NaN,-1.28330725769595,-1.28330725769595,750,1,0,congruent,1,4977.23418164217,2713.22802832426
13,104,1,42,0.5,-0.5,-0.5,1,1,0.8,1,521,1,1,521,1,0,1.2,NaN,-0.803765957424316,-0.803765957424316,750,1,0,congruent,1,1938.05934971607,536.672399685361
13,104,1,43,0.5,0.5,-0.5,2,2,0.8,2,454,1,1,454,1,0,1.2,NaN,-1.23215618566697,-1.23215618566697,750,1,0,congruent,1,9471.051895383,2144.93702408455
13,104,1,45,-0.5,-0.5,-0.5,1,1,0.8,1,478,1,1,478,1,0,1.4,0.8,-1.07870296958005,-1.07870296958005,750,1,0,congruent,0.1,2033.73986422623,2443.35171849652
13,104,1,46,-0.5,-0.5,0.5,4,3,0.8,4,572,1,1,572,0,0,1.2,1,-0.477677873239608,-0.477677873239608,750,0,0,incongruent,0,2683.8596228592,1073.05354106034
13,104,1,47,0.5,-0.5,0,3,NaN,0.8,3,692,1,1,692,1,0,1.2,NaN,0.289588207194998,0.289588207194998,750,0,0,neutral,1,4169.75130816972,2647.06947558449
13,104,1,48,0.5,0.5,0.5,4,3,0.8,4,801,1,0,801,0,0,1.2,NaN,0.986521563589766,0.986521563589766,750,0,0,incongruent,0,2819.63460077671,559.725799085764
13,104,1,49,0.5,0.5,-0.5,2,2,0.6,2,550,1,1,550,1,0,0.8,NaN,-0.618343321319286,-0.618343321319286,750,1,0,congruent,1,3920.35969462122,1679.11316161554
13,104,1,50,-0.5,0.5,-0.5,1,1,0.6,1,490,1,1,490,1,0,1,1,-1.00197636153659,-1.00197636153659,750,1,0,congruent,0.1,3727.79526691862,2798.79797933826
13,104,1,51,0.5,0.5,0.5,3,2,0.6,2,904,0,0,NaN,0,0,1,NaN,1.6450916159628,NaN,750,1,0,incongruent,0,4096.26004228793,871.415507613724
13,104,1,52,-0.5,-0.5,0,1,NaN,0.6,1,610,1,1,610,1,0,1,0.8,-0.234710281101983,-0.234710281101983,750,0,0,neutral,0.1,3489.03581438212,1760.13210969988
13,104,1,53,0.5,0.5,-0.5,4,4,0.6,4,556,1,1,556,1,0,0.8,NaN,-0.579980017297556,-0.579980017297556,750,1,0,congruent,1,10426.4453753468,1453.57359424433
13,104,1,54,0.5,-0.5,0.5,2,3,0.6,3,643,0,1,NaN,0,0,1.2,NaN,-0.023712108982466,NaN,750,1,0,incongruent,0,3185.40704675355,1830.66344687021
13,104,1,55,-0.5,-0.5,0.5,3,1,0.6,3,891,1,0,891,1,0,0.8,0.8,1.56197112391572,1.56197112391572,750,0,0,incongruent,0.1,4651.19410889807,2562.53360695669
13,104,1,56,-0.5,-0.5,-0.5,2,2,0.6,2,884,1,0,884,1,0,0.8,0.8,1.51721393589037,1.51721393589037,750,1,0,congruent,0.1,1981.29379004232,1919.69447130048
13,104,1,57,0.5,-0.5,0,4,NaN,0.6,4,734,1,1,734,0,0,1,NaN,0.558131335347111,0.558131335347111,750,0,0,neutral,0,4806.62911606814,1403.50155005515
13,104,1,58,-0.5,0.5,-0.5,2,2,0.6,2,793,1,0,793,0,0,0.8,1,0.935370491560792,0.935370491560792,750,1,0,congruent,0,3119.74915730144,2251.16151931881
13,104,1,59,-0.5,-0.5,-0.5,1,1,0.6,1,499,1,1,499,1,0,0.4,0.8,-0.944431405503994,-0.944431405503994,750,1,0,congruent,0.1,8751.45612151602,2784.62879562872
13,104,1,60,0.5,0.5,0,4,NaN,0.6,4,499,1,1,499,1,0,0.6,NaN,-0.944431405503994,-0.944431405503994,750,0,0,neutral,1,2134.70556393015,1063.41555772087
13,104,1,61,-0.5,0.5,-0.5,1,1,0.6,1,457,1,1,457,1,0,0.8,0.8,-1.21297453365611,-1.21297453365611,750,1,0,congruent,0.1,16555.0428407505,1225.66040396319
13,104,1,62,-0.5,-0.5,0.5,2,3,0.6,3,587,0,1,NaN,0,0,0.8,0.8,-0.381769613185282,NaN,750,1,0,incongruent,0,1642.56312717429,1603.23611258215
13,104,1,65,0.5,-0.5,-0.5,4,4,0.6,4,519,1,1,519,1,0,0.8,NaN,-0.816553725431559,-0.816553725431559,750,1,0,congruent,1,5261.35016856336,2256.28248943864
13,104,1,66,-0.5,-0.5,0,2,NaN,0.6,2,981,1,0,981,0,0,0.8,0.8,2.13742068424168,2.13742068424168,750,0,0,neutral,0,3051.60882613573,1068.58648501531
13,104,1,67,-0.5,-0.5,0.5,1,2,0.6,1,828,1,0,828,0,0,0.6,0.6,1.15915643168755,1.15915643168755,750,0,0,incongruent,0,5720.97114980377,2787.83341425953
13,104,1,69,-0.5,0.5,0,2,NaN,0.4,2,705,1,1,705,1,0,0.4,0.6,0.372708699242081,0.372708699242081,750,0,0,neutral,0.1,3674.92885096477,1848.95845317291
13,104,1,70,-0.5,-0.5,-0.5,3,3,0.6,3,564,1,1,564,0,0,0.6,0.4,-0.528828945268582,-0.528828945268582,750,1,0,congruent,0,3117.0478498845,1213.07398420002
13,104,1,71,-0.5,-0.5,0,4,NaN,0.6,4,523,1,1,523,0,0,0.2,0.2,-0.790978189417073,-0.790978189417073,750,0,0,neutral,0,1301.12990877893,832.018848926535
13,104,1,72,-0.5,0.5,-0.5,3,3,0.6,3,590,1,1,590,1,0,0.2,0.6,-0.362587961174417,-0.362587961174417,750,1,0,congruent,0.1,3194.82263846893,1079.96911404253
13,104,1,73,0.5,-0.5,0,4,NaN,0.6,4,708,1,1,708,0,0,0.4,NaN,0.391890351252946,0.391890351252946,750,0,0,neutral,0,3713.64589767718,2277.26929563044
13,104,1,74,-0.5,-0.5,-0.5,3,3,0.6,3,502,1,1,502,0,0,0.4,0.2,-0.925249753493129,-0.925249753493129,750,1,0,congruent,0,1730.02536924418,735.814404195494
13,104,1,75,0.5,0.5,-0.5,2,2,0.6,2,568,1,1,568,1,0,0.2,NaN,-0.503253409254095,-0.503253409254095,750,1,0,congruent,1,6476.72476595507,2368.39153933095
13,104,1,76,0.5,0.5,-0.5,1,1,0.6,1,512,1,1,512,1,0,0.6,NaN,-0.861310913456911,-0.861310913456911,750,1,0,congruent,1,3357.52389431383,3496.97163908265
13,104,1,77,-0.5,0.5,-0.5,3,3,0.8,3,490,1,1,490,1,0,1,0.6,-1.00197636153659,-1.00197636153659,750,1,0,congruent,0.1,6245.65921066578,1547.08012250457
13,104,1,78,-0.5,0.5,-0.5,2,2,1,2,501,1,1,501,1,0,1,0.8,-0.93164363749675,-0.93164363749675,750,1,0,congruent,0.1,4842.45399954478,1324.04555811909
13,104,1,79,-0.5,0.5,0.5,4,1,1,4,824,1,0,824,0,0,1.2,0.8,1.13358089567307,1.13358089567307,750,0,0,incongruent,0,2124.32746687297,5226.80871785279
13,104,1,80,-0.5,0.5,0,1,NaN,0.8,1,519,1,1,519,1,0,1.2,0.8,-0.816553725431559,-0.816553725431559,750,0,0,neutral,0.1,3207.94984824507,3149.45079330892
13,104,1,81,-0.5,-0.5,0.5,2,3,0.8,3,730,0,1,NaN,1,0,1,0,0.532555799332624,NaN,750,1,0,incongruent,0.1,2383.31479857082,5191.11229086802
13,104,1,82,0.5,0.5,0.5,3,4,0.8,3,911,1,0,911,0,0,0.8,NaN,1.68984880398816,1.68984880398816,750,0,0,incongruent,0,7258.13571940828,4395.42317994343
13,104,1,83,-0.5,0.5,0.5,4,3,0.6,4,713,1,1,713,1,0,0.6,0.8,0.423859771271055,0.423859771271055,750,0,0,incongruent,0.1,2031.40028651815,1826.72202490901
13,104,1,84,0.5,0.5,0,3,NaN,0.6,3,845,1,0,845,0,0,0.6,NaN,1.26785245974912,1.26785245974912,750,0,0,neutral,0,4191.40260380491,5545.32972476017
13,104,1,85,-0.5,-0.5,-0.5,2,2,0.4,2,663,1,1,663,1,0,0.6,0.2,0.104165571089968,0.104165571089968,750,1,0,congruent,0.1,1570.16293040666,542.947034845437
13,104,1,86,0.5,-0.5,0,1,NaN,0.4,1,618,1,1,618,0,0,0.6,NaN,-0.183559209073009,-0.183559209073009,750,0,0,neutral,0,7882.46386878087,1671.68196126251
13,104,1,87,0.5,-0.5,-0.5,2,2,0.4,2,730,1,1,730,0,0,0.4,NaN,0.532555799332624,0.532555799332624,750,1,0,congruent,0,1118.27121956719,2260.88982333201
13,104,1,88,-0.5,-0.5,0,3,NaN,0.4,3,762,1,0,762,1,0,0.4,0.4,0.737160087448519,0.737160087448519,750,0,0,neutral,0.1,5241.12973802485,7032.02804068077
13,104,1,89,-0.5,0.5,-0.5,4,4,0.4,4,579,1,1,579,1,0,0.4,0.8,-0.432920685214256,-0.432920685214256,750,1,0,congruent,0.1,4488.90253716437,1218.03182769085
13,104,1,90,-0.5,-0.5,-0.5,2,2,0.6,2,468,1,1,468,1,0,0.6,0.6,-1.14264180961627,-1.14264180961627,750,1,0,congruent,0.1,5425.96395760846,3703.82047176605
13,104,1,91,-0.5,0.5,0.5,4,1,0.6,4,791,1,0,791,0,0,0.6,0.8,0.922582723553549,0.922582723553549,750,0,0,incongruent,0,4254.85910646879,2381.89882257795
13,104,1,92,-0.5,-0.5,0,2,NaN,0.4,1,949,0,0,NaN,0,0,0.6,0.8,1.93281639612578,NaN,750,0,1,neutral,0,6620.70923677502,5472.05798970377
13,104,1,93,-0.5,-0.5,-0.5,3,3,0.4,3,648,1,1,648,0,0,0.6,0.8,0.00825731103564264,0.00825731103564264,750,1,0,congruent,0,4424.47825785672,1881.71800023717
13,104,1,94,-0.5,-0.5,0,2,NaN,0.4,2,637,1,1,637,0,0,0.4,0.6,-0.0620754130041963,-0.0620754130041963,750,0,0,neutral,0,9992.4931491773,1559.97289426558
13,104,1,95,0.5,-0.5,-0.5,3,3,0.4,3,637,1,1,637,0,0,0.2,NaN,-0.0620754130041963,-0.0620754130041963,750,1,0,congruent,0,4428.57701709678,2140.90497203788
13,104,1,96,-0.5,0.5,-0.5,2,2,0.4,2,821,1,0,821,0,0,0,0.6,1.1143992436622,1.1143992436622,750,1,0,congruent,0,8295.4172982116,8744.93426603179
13,104,1,97,-0.5,0.5,0,4,NaN,0.4,4,616,1,1,616,1,0,0,0.6,-0.196346977080252,-0.196346977080252,750,0,0,neutral,0.1,5344.18997563736,1550.26055184585
13,104,1,99,0.5,0.5,-0.5,4,4,0.4,4,525,1,1,525,1,0,0.2,NaN,-0.778190421409829,-0.778190421409829,750,1,0,congruent,1,388.854646621612,14386.1897445341
13,104,1,100,0.5,0.5,-0.5,1,1,0.4,1,559,1,1,559,1,0,0.6,NaN,-0.560798365286691,-0.560798365286691,750,1,0,congruent,1,2163.03160297844,4920.5545097289
13,104,1,101,-0.5,0.5,0.5,4,3,0.6,4,672,1,1,672,1,0,1,0.4,0.161710527122564,0.161710527122564,750,0,0,incongruent,0.1,1792.57329071066,3965.28928606472
13,104,1,102,0.5,0.5,-0.5,1,1,0.8,1,548,1,1,548,1,0,1.2,NaN,-0.63113108932653,-0.63113108932653,750,1,0,congruent,1,1870.99406794617,6314.3425220891
13,104,1,103,-0.5,-0.5,0.5,3,4,0.8,2,978,0,0,NaN,1,0,1.4,0.4,2.11823903223081,NaN,750,0,1,incongruent,0.1,2477.2080749212,4458.19475434893
13,104,1,104,0.5,0.5,-0.5,1,1,0.8,2,574,0,1,NaN,0,0,1.6,NaN,-0.464890105232365,NaN,750,0,1,congruent,0,1183.1408364002,2893.84163606979
13,104,1,105,-0.5,-0.5,-0.5,3,3,0.8,3,471,1,1,471,1,0,1.2,0.4,-1.1234601576054,-1.1234601576054,750,1,0,congruent,0.1,5887.65965822923,3693.66938152201
13,104,1,106,-0.5,-0.5,0.5,4,2,0.8,4,615,1,1,615,1,0,1,0.4,-0.202740861083874,-0.202740861083874,750,0,0,incongruent,0.1,10081.959603118,1469.19222026278
13,104,1,107,-0.5,0.5,-0.5,1,1,0.8,1,509,1,1,509,1,0,1,0.4,-0.880492565467777,-0.880492565467777,750,1,0,congruent,0.1,2097.84361495181,1559.81359871505
13,104,1,108,-0.5,0.5,0,3,NaN,0.8,3,689,1,1,689,1,0,0.8,0.6,0.270406555184133,0.270406555184133,750,0,0,neutral,0.1,11388.391996751,10183.649461779
13,104,1,109,0.5,-0.5,-0.5,2,2,0.8,4,648,0,1,NaN,1,0,0.8,NaN,0.00825731103564264,NaN,750,0,1,congruent,1,3321.72281945093,2928.51834786033
13,104,1,111,-0.5,0.5,0,3,NaN,0.6,1,629,0,1,NaN,0,0,1,0.6,-0.11322648503317,NaN,750,0,1,neutral,0,4074.79182611119,940.756072048381
13,104,1,112,0.5,0.5,0.5,1,2,0.4,1,746,1,1,746,1,0,0.8,NaN,0.634857943390571,0.634857943390571,750,0,0,incongruent,1,2234.53322986044,2505.67865923874
13,104,1,113,-0.5,0.5,0,2,NaN,0.6,2,712,1,1,712,1,0,1,0.6,0.417465887267433,0.417465887267433,750,0,0,neutral,0.1,2111.68992550372,4579.16277834766
13,104,1,114,-0.5,0.5,0.5,3,2,0.6,3,676,1,1,676,1,0,1,0.6,0.187286063137051,0.187286063137051,750,0,0,incongruent,0.1,3261.59315306085,5971.59529873204
13,104,1,115,0.5,-0.5,0,2,NaN,0.6,2,974,1,0,974,0,0,0.8,NaN,2.09266349621632,2.09266349621632,750,0,0,neutral,0,7229.86830534701,1230.9625655149
13,104,1,116,0.5,-0.5,0.5,3,4,0.6,3,938,1,0,938,1,0,0.8,NaN,1.86248367208594,1.86248367208594,750,0,0,incongruent,1,3122.56518923018,14840.7145564529
13,104,1,117,0.5,-0.5,0.5,1,2,0.6,1,656,1,1,656,1,0,1.2,NaN,0.0594083830646164,0.0594083830646164,750,0,0,incongruent,1,2645.61757621434,3651.96528589115
13,104,1,118,0.5,0.5,-0.5,4,4,0.6,4,724,1,1,724,1,0,1.2,NaN,0.494192495310893,0.494192495310893,750,1,0,congruent,1,4179.01382696205,3487.77468306539
13,104,1,120,-0.5,-0.5,0.5,1,3,0.8,1,966,1,0,966,1,0,1.6,0.6,2.04151242418735,2.04151242418735,750,0,0,incongruent,0.1,5306.91009199601,2786.14429681434
13,104,1,121,0.5,-0.5,0,3,NaN,0.8,3,915,1,0,915,1,0,1.8,NaN,1.71542434000264,1.71542434000264,750,0,0,neutral,1,7564.20170441414,3437.71611401101
13,104,1,122,-0.5,0.5,0.5,4,2,0.8,4,703,1,1,703,1,0,1.8,0.6,0.359920931234837,0.359920931234837,750,0,0,incongruent,0.1,6203.59574830947,4571.10420128923
13,104,1,123,0.5,-0.5,-0.5,1,1,1,1,527,1,1,527,1,0,1.6,NaN,-0.765402653402586,-0.765402653402586,750,1,0,congruent,1,1061.80892380588,3406.57916734569
13,104,1,124,0.5,0.5,0.5,2,4,1,4,738,0,1,NaN,0,0,1.6,NaN,0.583706871361597,NaN,750,1,0,incongruent,0,2222.79903893752,2035.06489607008
13,104,1,125,-0.5,0.5,0,1,NaN,0.8,1,510,1,1,510,1,0,1.2,0.6,-0.874098681464155,-0.874098681464155,750,0,0,neutral,0.1,2411.46894739976,8258.21490106581
13,104,1,126,-0.5,0.5,-0.5,2,2,0.8,2,635,1,1,635,1,0,1.2,0.8,-0.0748631810114397,-0.0748631810114397,750,1,0,congruent,0.1,2810.58250849535,4484.6136028387
13,104,1,127,-0.5,-0.5,0.5,3,4,0.8,3,811,1,0,811,1,0,1,0.8,1.05046040362598,1.05046040362598,750,0,0,incongruent,0.1,3420.93192737913,4305.38603891927
13,104,1,128,0.5,0.5,0,1,NaN,0.8,1,620,1,1,620,1,0,1,NaN,-0.170771441065766,-0.170771441065766,750,0,0,neutral,1,1005.50795015471,1382.65608312368
13,104,1,129,0.5,-0.5,-0.5,4,4,0.8,4,712,1,1,712,1,0,1,NaN,0.417465887267433,0.417465887267433,750,1,0,congruent,1,20425.9372898261,4637.55250497423
13,104,1,130,0.5,-0.5,-0.5,3,3,0.8,3,631,1,1,631,1,0,1.4,NaN,-0.100438717025927,-0.100438717025927,750,1,0,congruent,1,3321.76315024915,3183.79173025618
13,104,1,131,-0.5,-0.5,-0.5,2,2,0.8,2,820,1,0,820,1,0,1.6,1,1.10800535965858,1.10800535965858,750,1,0,congruent,0.1,3855.90962737111,2579.83636585432
13,104,1,132,0.5,-0.5,0,1,NaN,0.8,1,485,1,1,485,1,0,1.6,NaN,-1.0339457815547,-1.0339457815547,750,0,0,neutral,1,3581.16889927412,717.746306311405
13,104,1,133,-0.5,0.5,-0.5,4,4,0.8,4,567,1,1,567,1,0,1.8,1,-0.509647293257717,-0.509647293257717,750,1,0,congruent,0.1,2164.74131144328,3619.12599290668
13,104,1,134,-0.5,0.5,-0.5,2,2,0.8,3,584,0,1,NaN,0,0,1.6,1,-0.400951265196147,NaN,750,0,1,congruent,0,1583.92836757158,1942.77698973188
13,104,1,135,0.5,0.5,-0.5,3,3,0.8,3,507,1,1,507,1,0,1.2,NaN,-0.89328033347502,-0.89328033347502,750,1,0,congruent,1,2163.18576042183,2242.51229032158
13,104,1,136,0.5,0.5,0.5,4,2,0.8,4,737,1,1,737,1,0,1.2,NaN,0.577312987357976,0.577312987357976,750,0,0,incongruent,1,2192.87695175716,5911.65465364279
13,104,1,137,0.5,0.5,-0.5,3,3,0.8,3,480,1,1,480,1,0,1.4,NaN,-1.06591520157281,-1.06591520157281,750,1,0,congruent,1,3598.41159205559,635.718499739452
13,104,1,138,-0.5,0.5,0,4,NaN,0.8,4,478,1,1,478,1,0,1.4,0.8,-1.07870296958005,-1.07870296958005,750,0,0,neutral,0.1,4758.93291833093,3414.39284492693
13,104,1,139,-0.5,-0.5,-0.5,1,1,0.8,1,519,1,1,519,0,0,1.4,1,-0.816553725431559,-0.816553725431559,750,1,0,congruent,0,825.799726405193,1748.21814033135
13,104,1,140,-0.5,-0.5,-0.5,2,2,0.8,2,548,1,1,548,1,0,1.4,0.8,-0.63113108932653,-0.63113108932653,750,1,0,congruent,0.1,3720.15342425756,2329.16564070626
13,104,1,141,-0.5,-0.5,0,4,NaN,0.8,4,402,1,1,402,1,0,1.2,0.8,-1.5646381538553,-1.5646381538553,750,0,0,neutral,0.1,1537.13392270538,4794.38464428924
13,104,1,142,-0.5,0.5,0.5,2,1,0.8,2,864,1,0,864,0,0,1,0.8,1.38933625581793,1.38933625581793,750,0,0,incongruent,0,2439.20183322288,4262.05251605299
13,104,1,143,0.5,-0.5,-0.5,4,4,0.8,4,717,1,1,717,0,0,0.6,NaN,0.449435307285541,0.449435307285541,750,1,0,congruent,0,8356.45393463536,2165.15351123325
13,104,1,144,0.5,-0.5,0.5,3,2,0.8,3,660,1,1,660,0,0,0.4,NaN,0.0849839190791033,0.0849839190791033,750,0,0,incongruent,0,3139.70741681962,2745.87088874637
13,104,1,145,-0.5,0.5,-0.5,1,1,0.8,1,547,1,1,547,1,0,0.4,0.6,-0.637524973330151,-0.637524973330151,750,1,0,congruent,0.1,6619.98135764429,1486.75472565905
13,104,1,146,0.5,-0.5,0,4,NaN,0.8,4,566,1,1,566,1,0,0.4,NaN,-0.516041177261338,-0.516041177261338,750,0,0,neutral,1,1200.36117855159,2320.04624769722
13,104,1,147,0.5,-0.5,-0.5,2,2,0.8,3,649,0,1,NaN,1,0,0.6,NaN,0.0146511950392644,NaN,750,0,1,congruent,1,11174.6637172098,3368.10120313641
13,104,1,148,0.5,0.5,-0.5,1,1,0.8,1,532,1,1,532,1,0,1,NaN,-0.733433233384477,-0.733433233384477,750,1,0,congruent,1,1648.00848212567,1276.41279634012
13,104,1,149,0.5,0.5,-0.5,3,3,0.8,3,526,1,1,526,1,0,1.4,NaN,-0.771796537406207,-0.771796537406207,750,1,0,congruent,1,10022.268612332,703.474451955753
13,104,1,150,-0.5,0.5,-0.5,1,1,0.8,2,469,0,1,NaN,0,0,1.8,0.6,-1.13624792561265,NaN,750,0,1,congruent,0,10635.6873586392,2992.1761428212
13,104,2,151,0.5,-0.5,0.5,4,3,0.6,4,820,1,0,820,1,0,1.6,NaN,1.10800535965858,1.10800535965858,750,0,0,incongruent,1,5008.01296292731,5007.61006296421
13,104,2,152,-0.5,0.5,-0.5,2,2,0.6,2,996,1,0,996,0,0,1.6,0.4,2.233328944296,2.233328944296,750,1,0,congruent,0,4092.67843538058,1115.63886396828
13,104,2,153,0.5,-0.5,0,1,NaN,0.6,1,472,1,1,472,1,0,1.2,NaN,-1.11706627360178,-1.11706627360178,750,0,0,neutral,1,9606.39598188591,3572.61482835234
13,104,2,154,-0.5,0.5,0.5,2,4,0.6,2,761,1,0,761,0,0,1.2,0.4,0.730766203444897,0.730766203444897,750,0,0,incongruent,0,3300.25730447889,2513.51533112386
13,104,2,155,0.5,-0.5,0.5,3,2,0.4,3,647,1,1,647,1,0,0.8,NaN,0.00186342703202092,0.00186342703202092,750,0,0,incongruent,1,6181.8709502841,2270.14179549098
13,104,2,156,-0.5,-0.5,0,2,NaN,0.4,2,737,1,1,737,0,0,1.2,0.8,0.577312987357976,0.577312987357976,750,0,0,neutral,0,1256.28219595989,2888.80562108283
13,104,2,157,0.5,0.5,-0.5,1,1,0.4,1,495,1,1,495,1,0,0.8,NaN,-0.970006941518481,-0.970006941518481,750,1,0,congruent,1,2694.7264318301,2596.10348962279
13,104,2,158,-0.5,-0.5,0.5,2,3,0.4,1,956,0,0,NaN,0,0,1.2,0.6,1.97757358415113,NaN,750,0,1,incongruent,0,2724.1063218914,2989.39347657512
13,104,2,160,-0.5,-0.5,-0.5,2,2,0.4,2,810,1,0,810,1,0,1,0.6,1.04406651962236,1.04406651962236,750,1,0,congruent,0.1,11070.4875675164,5389.63155215921
13,104,2,161,-0.5,0.5,0,4,NaN,0.4,4,674,1,1,674,1,0,0.8,0.2,0.174498295129807,0.174498295129807,750,0,0,neutral,0.1,1288.98667200451,3250.23936712662
13,104,2,162,-0.5,0.5,-0.5,1,1,0.4,1,533,1,1,533,1,0,1,0.4,-0.727039349380855,-0.727039349380855,750,1,0,congruent,0.1,527.613420781416,5239.01252758022
13,104,2,163,0.5,-0.5,-0.5,3,3,0.6,2,861,0,0,NaN,0,0,0.8,NaN,1.37015460380707,NaN,750,0,1,congruent,0,6142.45865397316,2955.93009954224
13,104,2,164,0.5,-0.5,-0.5,2,2,0.6,2,718,1,1,718,1,0,0.8,NaN,0.455829191289163,0.455829191289163,750,1,0,congruent,1,18420.8216968305,6253.08177153076
13,104,2,165,-0.5,0.5,-0.5,4,4,0.6,4,634,1,1,634,1,0,1,0.4,-0.0812570650150615,-0.0812570650150615,750,1,0,congruent,0.1,4408.06234916355,2081.14433392047
13,104,2,166,0.5,-0.5,0,1,NaN,0.8,1,540,1,1,540,0,0,1,NaN,-0.682282161355503,-0.682282161355503,750,0,0,neutral,0,4727.17730109247,631.073763582191
13,104,2,167,0.5,0.5,0.5,4,3,0.8,4,560,1,1,560,1,0,0.8,NaN,-0.554404481283069,-0.554404481283069,750,0,0,incongruent,1,3499.34231445852,7151.87142739417
13,104,2,168,0.5,0.5,0.5,1,4,1,1,674,1,1,674,1,0,1,NaN,0.174498295129807,0.174498295129807,750,0,0,incongruent,1,677.088322454738,621.12118024886
13,104,2,169,-0.5,-0.5,0,4,NaN,1,4,454,1,1,454,1,0,1.4,0.6,-1.23215618566697,-1.23215618566697,750,0,0,neutral,0.1,2610.29510749387,2965.1116181343
13,104,2,170,-0.5,-0.5,0.5,2,1,1,2,985,1,0,985,1,0,1.2,0.6,2.16299622025616,2.16299622025616,750,0,0,incongruent,0.1,5394.49264331723,2644.35554975784
13,104,2,172,-0.5,-0.5,0,1,NaN,1,1,516,1,1,516,1,0,1.6,0.8,-0.835735377442425,-0.835735377442425,750,0,0,neutral,0.1,3663.73222083442,1137.12333322113
13,104,2,173,0.5,0.5,0.5,4,3,1,4,834,1,0,834,0,0,1.4,NaN,1.19751973570928,1.19751973570928,750,0,0,incongruent,0,16385.6355836969,5616.303811079
13,104,2,174,-0.5,0.5,0.5,2,4,0.8,2,787,1,0,787,0,0,1,0.6,0.897007187539062,0.897007187539062,750,0,0,incongruent,0,733.672758526506,4028.75420569019
13,104,2,175,0.5,0.5,0.5,4,3,0.6,4,641,1,1,641,1,0,0.8,NaN,-0.0364998769897094,-0.0364998769897094,750,0,0,incongruent,1,4250.0846885371,469.093928947147
13,104,2,177,0.5,0.5,-0.5,3,3,0.4,3,805,1,0,805,0,0,0.6,NaN,1.01209709960425,1.01209709960425,750,1,0,congruent,0,1728.44422977196,3876.79860089631
13,104,2,178,-0.5,-0.5,0.5,2,4,0.2,2,667,1,1,667,0,0,0.4,1,0.129741107104455,0.129741107104455,750,0,0,incongruent,0,1302.94357845972,870.011098816771
13,104,2,180,-0.5,0.5,-0.5,4,4,0.2,4,645,1,1,645,1,0,0.4,0.6,-0.0109243409752225,-0.0109243409752225,750,1,0,congruent,0.1,11233.9134634374,4940.08927730292
13,104,2,181,-0.5,0.5,0,1,NaN,0.4,1,627,1,1,627,1,0,0.2,0.6,-0.126014253040413,-0.126014253040413,750,0,0,neutral,0.1,4636.32269557319,2508.71872293647
13,104,2,182,-0.5,0.5,-0.5,4,4,0.6,4,551,1,1,551,1,0,0.4,0.6,-0.611949437315664,-0.611949437315664,750,1,0,congruent,0.1,2491.31618956345,3478.52369017152
13,104,2,184,0.5,-0.5,-0.5,1,1,0.6,1,547,1,1,547,1,0,0.8,NaN,-0.637524973330151,-0.637524973330151,750,1,0,congruent,1,2912.15858130933,3536.6883111401
13,104,2,185,-0.5,-0.5,-0.5,2,2,0.6,2,907,1,0,907,0,0,1.2,0.6,1.66427326797367,1.66427326797367,750,1,0,congruent,0,2821.34928970296,1210.93689552395
13,104,2,186,-0.5,0.5,-0.5,1,1,0.6,1,585,1,1,585,1,0,1,0.6,-0.394557381192526,-0.394557381192526,750,1,0,congruent,0.1,2292.34417412133,2089.14012197039
13,104,2,187,-0.5,-0.5,0.5,3,2,0.8,4,902,0,0,NaN,1,0,1,0.4,1.63230384795556,NaN,750,0,1,incongruent,0.1,3639.21124469789,7654.59868533884
13,104,2,188,0.5,0.5,0.5,4,1,0.8,4,669,1,1,669,1,0,1,NaN,0.142528875111699,0.142528875111699,750,0,0,incongruent,1,1060.02850907644,8336.07489228801
13,104,2,189,-0.5,-0.5,0,3,NaN,1,2,608,0,1,NaN,1,0,1.2,0.4,-0.247498049109226,NaN,750,0,1,neutral,0.1,915.299881919478,1270.72354692859
13,104,2,190,0.5,0.5,-0.5,2,2,1,2,700,1,1,700,1,0,1,NaN,0.340739279223972,0.340739279223972,750,1,0,congruent,1,3506.19802025204,8633.07287489016
13,104,2,191,0.5,-0.5,0,3,NaN,1,3,670,1,1,670,1,0,1.4,NaN,0.14892275911532,0.14892275911532,750,0,0,neutral,1,1614.18357728684,4123.00768464985
13,104,2,195,-0.5,0.5,-0.5,4,4,1,4,496,1,1,496,1,0,1.6,1,-0.963613057514859,-0.963613057514859,750,1,0,congruent,0.1,6738.31454951199,852.511338105668
13,104,2,196,-0.5,-0.5,0.5,3,2,1,3,580,1,1,580,1,0,1.4,0.8,-0.426526801210634,-0.426526801210634,750,0,0,incongruent,0.1,6995.07218216451,4704.55651583416
13,104,2,197,0.5,-0.5,0.5,1,3,1,1,859,1,0,859,1,0,1.2,NaN,1.35736683579983,1.35736683579983,750,0,0,incongruent,1,5336.97193411158,1393.3121055892
13,104,2,198,0.5,0.5,0,3,NaN,1,3,698,1,1,698,1,0,1.4,NaN,0.327951511216729,0.327951511216729,750,0,0,neutral,1,2588.09677334818,6541.60486204273
13,104,2,199,0.5,0.5,-0.5,1,1,1,1,474,1,1,474,1,0,1.6,NaN,-1.10427850559454,-1.10427850559454,750,1,0,congruent,1,3097.91346633359,3003.32474803175
13,104,2,200,-0.5,-0.5,0.5,2,3,1,2,777,1,0,777,1,0,1.6,0.8,0.833068347502845,0.833068347502845,750,0,0,incongruent,0.1,645.534198665621,1968.89652926141
13,104,2,201,0.5,-0.5,-0.5,1,1,1,1,558,1,1,558,1,0,1.6,NaN,-0.567192249290312,-0.567192249290312,750,1,0,congruent,1,1325.28227766804,1112.11887917593
13,104,2,203,-0.5,-0.5,-0.5,4,4,1,4,343,1,1,343,1,0,1.6,1,-1.94187731006898,-1.94187731006898,750,1,0,congruent,0.1,6391.26583182448,4137.74579717751
13,104,2,204,-0.5,-0.5,0.5,2,3,1,2,314,1,1,314,1,0,1.4,1,-2.12729994617401,-2.12729994617401,750,0,0,incongruent,0.1,7362.11068730116,1645.20175576273
13,104,2,205,0.5,0.5,0.5,3,4,1,3,668,1,1,668,1,0,1.2,NaN,0.136134991108077,0.136134991108077,750,0,0,incongruent,1,2165.43279338326,4051.74514619029
13,104,2,206,-0.5,-0.5,0,2,NaN,1,2,910,1,0,910,1,0,1.4,1,1.68345491998453,1.68345491998453,750,0,0,neutral,0.1,8292.09501755196,2504.36268381681
13,104,2,207,-0.5,0.5,-0.5,4,4,1,4,470,1,1,470,1,0,1.2,1,-1.12985404160902,-1.12985404160902,750,1,0,congruent,0.1,7892.49820933529,5633.09807925386
13,104,2,208,-0.5,-0.5,-0.5,2,2,1,3,542,0,1,NaN,1,0,1.2,1,-0.66949439334826,NaN,750,0,1,congruent,0.1,564.979014770676,1603.35455156527
13,104,2,209,0.5,-0.5,-0.5,1,1,1,2,693,0,1,NaN,1,0,1.2,NaN,0.29598209119862,NaN,750,0,1,congruent,1,5471.50922378386,4463.48691004847
13,104,2,211,0.5,-0.5,-0.5,4,4,1,4,374,1,1,374,1,0,1.4,NaN,-1.74366690595671,-1.74366690595671,750,1,0,congruent,1,6072.82283634614,1705.56850316355
13,104,2,212,0.5,-0.5,0.5,3,2,1,3,731,1,1,731,1,0,1.6,NaN,0.538949683336245,0.538949683336245,750,0,0,incongruent,1,2870.16508583511,2178.79998323538
13,104,2,213,0.5,0.5,0,1,NaN,1,1,498,1,1,498,1,0,1.8,NaN,-0.950825289507616,-0.950825289507616,750,0,0,neutral,1,18121.5548627988,2652.30249841902
13,104,2,214,-0.5,-0.5,-0.5,3,3,1,3,546,1,1,546,1,0,2,1,-0.643918857333773,-0.643918857333773,750,1,0,congruent,0.1,9904.87883461871,1243.78183779505
13,104,2,215,-0.5,0.5,0,1,NaN,1,1,556,1,1,556,1,0,1.8,1,-0.579980017297556,-0.579980017297556,750,0,0,neutral,0.1,2246.68709982514,4084.95873937469
13,104,2,216,-0.5,-0.5,-0.5,3,3,1,3,508,1,1,508,1,0,1.6,1,-0.886886449471398,-0.886886449471398,750,1,0,congruent,0.1,1565.3673808118,6236.47823029595
13,104,2,217,-0.5,-0.5,-0.5,1,1,1,1,476,1,1,476,1,0,1.4,1,-1.09149073758729,-1.09149073758729,750,1,0,congruent,0.1,6842.02444972016,2140.13630971515
13,104,2,218,-0.5,-0.5,-0.5,2,2,1,2,496,1,1,496,1,0,1.2,1,-0.963613057514859,-0.963613057514859,750,1,0,congruent,0.1,6129.07203016374,2251.61544856273
13,104,2,219,-0.5,-0.5,0.5,3,4,1,4,685,0,1,NaN,1,0,1,1,0.244831019169646,NaN,750,1,0,incongruent,0.1,2046.16093600159,3252.79095749193
13,104,2,220,-0.5,-0.5,-0.5,2,2,1,2,451,1,1,451,1,0,1,1,-1.25133783767784,-1.25133783767784,750,1,0,congruent,0.1,1035.38037934948,2263.57073605012
13,104,2,221,-0.5,-0.5,-0.5,1,1,1,1,419,1,1,419,1,0,1,1,-1.45594212579373,-1.45594212579373,750,1,0,congruent,0.1,2735.33022774904,225.883889599452
13,104,2,222,0.5,0.5,0.5,2,3,1,2,735,1,1,735,1,0,1,NaN,0.564525219350732,0.564525219350732,750,0,0,incongruent,1,2655.21408197498,2492.23757142182
13,104,2,223,-0.5,-0.5,-0.5,1,1,1,1,574,1,1,574,1,0,1.2,1,-0.464890105232365,-0.464890105232365,750,1,0,congruent,0.1,2869.03535106675,1325.27982577906
13,104,2,224,0.5,0.5,0,4,NaN,1,4,620,1,1,620,1,0,1.2,NaN,-0.170771441065766,-0.170771441065766,750,0,0,neutral,1,2361.2588774111,3795.53035949039
13,104,2,225,-0.5,0.5,-0.5,2,2,1,2,892,1,0,892,0,0,1.4,1,1.56836500791934,1.56836500791934,750,1,0,congruent,0,6535.48006386707,852.431899810437
13,104,2,226,0.5,-0.5,-0.5,3,3,0.8,3,916,1,0,916,1,0,1.2,NaN,1.72181822400626,1.72181822400626,750,1,0,congruent,1,2612.62556183377,1855.88991638207
13,104,2,227,0.5,-0.5,-0.5,1,1,0.8,1,525,1,1,525,1,0,1.4,NaN,-0.778190421409829,-0.778190421409829,750,1,0,congruent,1,1701.8926289512,1076.79299253313
13,104,2,228,0.5,-0.5,0.5,2,4,0.8,2,714,1,1,714,1,0,1.4,NaN,0.430253655274676,0.430253655274676,750,0,0,incongruent,1,1304.9304535804,1448.3870895158
13,104,2,229,0.5,-0.5,0.5,4,2,0.8,4,613,1,1,613,1,0,1.6,NaN,-0.215528629091118,-0.215528629091118,750,0,0,incongruent,1,4534.2691174469,3451.86390869934
13,104,2,230,-0.5,-0.5,0.5,2,1,0.8,2,987,1,0,987,1,0,1.6,1,2.17578398826341,2.17578398826341,750,0,0,incongruent,0.1,2057.52819226451,1530.28876538075
13,104,2,231,0.5,0.5,0,4,NaN,0.8,4,510,1,1,510,1,0,1.8,NaN,-0.874098681464155,-0.874098681464155,750,0,0,neutral,1,1223.52784431731,1216.77761312843
13,104,2,233,0.5,-0.5,-0.5,2,2,0.6,2,711,1,1,711,0,0,1.4,NaN,0.411072003263811,0.411072003263811,750,1,0,congruent,0,2286.52112641378,1567.93665209869
13,104,2,234,0.5,-0.5,0,4,NaN,0.6,4,532,1,1,532,0,0,1,NaN,-0.733433233384477,-0.733433233384477,750,0,0,neutral,0,1589.89088627981,2308.0430918345
13,104,2,235,0.5,0.5,-0.5,3,3,0.6,3,541,1,1,541,1,0,0.6,NaN,-0.675888277351882,-0.675888277351882,750,1,0,congruent,1,2521.55071351571,2708.24495844029
13,104,2,236,-0.5,-0.5,0.5,4,2,0.6,1,689,0,1,NaN,0,0,0.8,1,0.270406555184133,NaN,750,0,1,incongruent,0,4153.15653715863,3341.26765580941
13,104,2,238,0.5,-0.5,0.5,3,1,0.4,1,974,0,0,NaN,0,0,0.4,NaN,2.09266349621632,NaN,750,1,0,incongruent,0,2701.96405049091,498.29642275965
13,104,2,239,0.5,-0.5,0.5,2,4,0.4,2,849,1,0,849,1,0,0.4,NaN,1.29342799576361,1.29342799576361,750,0,0,incongruent,1,2912.97181239736,4033.70472045409
13,104,2,240,0.5,-0.5,-0.5,3,3,0.4,3,985,1,0,985,0,0,0.8,NaN,2.16299622025616,2.16299622025616,750,1,0,congruent,0,1795.32705052413,1412.767518092
13,104,2,241,0.5,0.5,-0.5,4,4,0.4,4,557,1,1,557,1,0,0.4,NaN,-0.573586133293934,-0.573586133293934,750,1,0,congruent,1,2763.44900187386,2074.33635566204
13,104,2,242,0.5,-0.5,-0.5,1,1,0.6,1,448,1,1,448,0,0,0.8,NaN,-1.2705194896887,-1.2705194896887,750,1,0,congruent,0,4196.78831997447,1731.90910178352
13,104,2,244,0.5,-0.5,0,4,NaN,0.4,4,442,1,1,442,1,0,0.8,NaN,-1.30888279371043,-1.30888279371043,750,0,0,neutral,1,2691.12468499938,2270.792158469
13,104,2,246,-0.5,-0.5,0.5,3,2,0.4,3,828,1,0,828,1,0,0.8,0.8,1.15915643168755,1.15915643168755,750,0,0,incongruent,0.1,5543.16118144777,8416.79325012766
13,104,2,247,0.5,0.5,0,1,NaN,0.4,1,747,1,1,747,1,0,0.6,NaN,0.641251827394193,0.641251827394193,750,0,0,neutral,1,1142.67997932927,3748.30251330927
13,104,2,248,-0.5,0.5,-0.5,2,2,0.4,2,453,1,1,453,1,0,1,0.4,-1.23855006967059,-1.23855006967059,750,1,0,congruent,0.1,13913.1366864875,1946.70537374926
13,104,2,249,0.5,0.5,-0.5,4,4,0.6,4,504,1,1,504,1,0,1.2,NaN,-0.912461985485885,-0.912461985485885,750,1,0,congruent,1,25864.2968361499,1084.18084283874
13,104,2,250,-0.5,0.5,0,1,NaN,0.6,1,612,1,1,612,1,0,1.2,0.4,-0.221922513094739,-0.221922513094739,750,0,0,neutral,0.1,6225.53783627947,1736.85060974966
13,104,2,251,-0.5,0.5,-0.5,3,3,0.8,3,672,1,1,672,1,0,1.4,0.4,0.161710527122564,0.161710527122564,750,1,0,congruent,0.1,1825.24770663264,3397.73289066341
13,104,2,252,-0.5,-0.5,0.5,1,4,1,1,627,1,1,627,1,0,1.4,0.8,-0.126014253040413,-0.126014253040413,750,0,0,incongruent,0.1,1285.37913181597,2254.60049466465
13,104,2,253,-0.5,0.5,0.5,4,1,1,4,576,1,1,576,1,0,1.2,0.6,-0.452102337225121,-0.452102337225121,750,0,0,incongruent,0.1,5210.03849105721,1724.29373972707
13,104,2,255,0.5,-0.5,-0.5,1,1,1,1,437,1,1,437,1,0,1.2,NaN,-1.34085221372854,-1.34085221372854,750,1,0,congruent,1,3382.55765202996,7431.3736959993
13,104,2,256,0.5,-0.5,0.5,4,3,1,4,600,1,1,600,1,0,1.4,NaN,-0.2986491211382,-0.2986491211382,750,0,0,incongruent,1,2837.20018622979,301.209026375682
13,104,2,258,0.5,0.5,0.5,3,4,1,1,831,0,0,NaN,0,0,1.6,NaN,1.17833808369842,NaN,750,0,1,incongruent,0,1190.16333670709,2118.82946259564
13,104,2,259,-0.5,0.5,0,1,NaN,0.8,1,527,1,1,527,1,0,1.4,1,-0.765402653402586,-0.765402653402586,750,0,0,neutral,0.1,3928.49086093117,1800.72159053504
13,104,2,261,-0.5,0.5,0,1,NaN,0.8,1,509,1,1,509,1,0,1.2,1,-0.880492565467777,-0.880492565467777,750,0,0,neutral,0.1,4939.51838469028,1216.08632594641
13,104,2,263,-0.5,0.5,0,1,NaN,0.8,1,540,1,1,540,1,0,1,1,-0.682282161355503,-0.682282161355503,750,0,0,neutral,0.1,1322.87224546549,1380.58592279128
13,104,2,264,0.5,-0.5,0.5,4,2,0.8,4,637,1,1,637,1,0,1.2,NaN,-0.0620754130041963,-0.0620754130041963,750,0,0,incongruent,1,1774.65487699504,2441.50174952057
13,104,2,265,-0.5,-0.5,0.5,3,1,0.8,3,876,1,0,876,1,0,1.4,0.8,1.4660628638614,1.4660628638614,750,0,0,incongruent,0.1,2675.90645431643,8667.70794448149
13,104,2,266,0.5,-0.5,0,2,NaN,0.8,2,850,1,0,850,0,0,1.2,NaN,1.29982187976723,1.29982187976723,750,0,0,neutral,0,15613.9908197013,2186.6354749023
13,104,2,267,0.5,-0.5,-0.5,1,1,0.8,1,861,1,0,861,0,0,1,NaN,1.37015460380707,1.37015460380707,750,1,0,congruent,0,2727.64214154433,2297.64435822196
13,104,2,268,0.5,-0.5,0,2,NaN,0.8,4,733,0,1,NaN,1,0,0.8,NaN,0.551737451343489,NaN,750,0,1,neutral,1,15642.849470205,3189.54085736243
13,104,2,269,-0.5,-0.5,-0.5,4,4,0.8,4,511,1,1,511,1,0,1,0.8,-0.867704797460533,-0.867704797460533,750,1,0,congruent,0.1,2331.35411177855,965.869958284706
13,104,2,270,-0.5,-0.5,0.5,2,1,0.8,2,675,1,1,675,1,0,0.8,0.8,0.180892179133429,0.180892179133429,750,0,0,incongruent,0.1,5661.64592717881,33277.6861879763
13,104,2,271,0.5,0.5,0.5,3,4,0.8,3,903,1,0,903,0,0,0.8,NaN,1.63869773195918,1.63869773195918,750,0,0,incongruent,0,1314.73052423635,680.074501641073
13,104,2,272,-0.5,-0.5,-0.5,1,1,0.8,1,531,1,1,531,1,0,0.8,1,-0.739827117388099,-0.739827117388099,750,1,0,congruent,0.1,2451.46031070836,1060.09992508131
13,104,2,273,0.5,-0.5,0.5,4,2,0.8,4,806,1,0,806,1,0,1,NaN,1.01849098360787,1.01849098360787,750,0,0,incongruent,1,1099.04138009305,2743.70013147251
13,104,2,277,-0.5,0.5,0.5,4,2,0.6,4,592,1,1,592,1,0,1.4,0.8,-0.349800193167174,-0.349800193167174,750,0,0,incongruent,0.1,3279.43084650338,3028.79861633151
13,104,2,278,-0.5,-0.5,-0.5,3,3,0.6,3,495,1,1,495,1,0,1.4,1,-0.970006941518481,-0.970006941518481,750,1,0,congruent,0.1,1301.68103063631,1863.91367315305
13,104,2,279,-0.5,-0.5,-0.5,1,1,0.6,1,442,1,1,442,1,0,1.2,1,-1.30888279371043,-1.30888279371043,750,1,0,congruent,0.1,2245.05943345746,4218.93561504541
13,104,2,280,0.5,0.5,0,4,NaN,0.6,4,371,1,1,371,1,0,1,NaN,-1.76284855796757,-1.76284855796757,750,0,0,neutral,1,12294.9232724615,947.529756207117
13,104,2,281,-0.5,0.5,-0.5,3,3,0.6,2,421,0,1,NaN,0,0,1.4,0.8,-1.44315435778649,NaN,750,0,1,congruent,0,3758.83601478975,1388.3795726256
13,104,2,282,0.5,-0.5,-0.5,4,4,0.4,4,506,1,1,506,0,0,1,NaN,-0.899674217478642,-0.899674217478642,750,1,0,congruent,0,3598.28011922046,6663.59684967232
13,104,2,284,0.5,0.5,0,3,NaN,0.4,3,744,1,1,744,1,0,0.6,NaN,0.622070175383328,0.622070175383328,750,0,0,neutral,1,6268.26746675117,8565.61225808756
13,104,2,288,-0.5,0.5,0,3,NaN,0.6,3,625,1,1,625,1,0,0.8,0.4,-0.138802021047657,-0.138802021047657,750,0,0,neutral,0.1,7659.68703027788,1228.63273527607
13,104,2,290,0.5,-0.5,-0.5,1,1,0.6,1,659,1,1,659,0,0,1,NaN,0.0785900350754816,0.0785900350754816,750,1,0,congruent,0,29553.9730355576,1167.13844600685
13,104,2,291,-0.5,0.5,-0.5,4,4,0.6,4,575,1,1,575,1,0,0.6,0.4,-0.458496221228743,-0.458496221228743,750,1,0,congruent,0.1,2350.01422834051,3493.39133900013
13,104,2,292,-0.5,-0.5,-0.5,1,1,0.8,1,437,1,1,437,1,0,0.8,0.8,-1.34085221372854,-1.34085221372854,750,1,0,congruent,0.1,1414.40560629485,3040.56329403484
13,104,2,293,0.5,0.5,0.5,2,3,0.8,2,882,1,0,882,0,0,1,NaN,1.50442616788313,1.50442616788313,750,0,0,incongruent,0,7132.83397948694,2340.19250455403
13,104,2,294,-0.5,0.5,0.5,3,1,0.8,3,659,1,1,659,1,0,0.8,0.6,0.0785900350754816,0.0785900350754816,750,0,0,incongruent,0.1,8885.17993473844,8661.46781817041
13,104,2,295,-0.5,0.5,0.5,1,4,0.8,1,711,1,1,711,1,0,0.6,0.6,0.411072003263811,0.411072003263811,750,0,0,incongruent,0.1,2837.05083146177,4946.25666301566
13,104,2,296,-0.5,0.5,-0.5,2,2,0.8,2,814,1,0,814,0,0,0.8,0.8,1.06964205563685,1.06964205563685,750,1,0,congruent,0,3202.50136255689,2134.77445370401
13,104,2,297,-0.5,0.5,0,3,NaN,0.6,3,573,1,1,573,1,0,0.6,0.8,-0.471283989235986,-0.471283989235986,750,0,0,neutral,0.1,1590.08287064408,5651.44119036328
13,104,2,298,-0.5,-0.5,0.5,4,2,0.6,4,765,1,0,765,1,0,0.6,0.8,0.756341739459384,0.756341739459384,750,0,0,incongruent,0.1,1421.09533244853,2231.93067961701
13,104,2,299,-0.5,-0.5,0,2,NaN,0.6,2,777,1,0,777,0,0,0.8,0.8,0.833068347502845,0.833068347502845,750,0,0,neutral,0,1901.04473542758,1156.69958532136
13,104,2,300,0.5,-0.5,0.5,1,2,0.6,1,473,1,1,473,1,0,0.6,NaN,-1.11067238959816,-1.11067238959816,750,0,0,incongruent,1,4922.64583276353,1588.16136442902
13,104,3,302,-0.5,-0.5,-0.5,4,4,0.6,4,596,1,1,596,1,0,0.8,0.6,-0.324224657152687,-0.324224657152687,750,1,0,congruent,0.1,2022.69791892331,387.78062132056
13,104,3,303,0.5,0.5,0,3,NaN,0.6,3,534,1,1,534,1,0,0.8,NaN,-0.720645465377234,-0.720645465377234,750,0,0,neutral,1,905.609642480808,1804.5718821539
13,104,3,305,-0.5,-0.5,-0.5,2,2,0.6,2,847,1,0,847,1,0,1.2,0.6,1.28064022775637,1.28064022775637,750,1,0,congruent,0.1,3856.44138205471,1561.00246047327
13,104,3,306,-0.5,0.5,0,1,NaN,0.6,1,673,1,1,673,1,0,1,0.6,0.168104411126186,0.168104411126186,750,0,0,neutral,0.1,2226.40291482246,8430.38852130229
13,104,3,307,-0.5,0.5,-0.5,4,4,0.8,4,638,1,1,638,1,0,1.2,0.6,-0.0556815290005746,-0.0556815290005746,750,1,0,congruent,0.1,4040.78184836402,3474.09056773312
13,104,3,308,0.5,-0.5,-0.5,2,2,0.8,4,619,0,1,NaN,1,0,1.2,NaN,-0.177165325069387,NaN,750,0,1,congruent,1,7908.72268058332,3149.00532580367
13,104,3,309,-0.5,0.5,0,1,NaN,0.8,1,583,1,1,583,1,0,1.2,0.8,-0.407345149199769,-0.407345149199769,750,0,0,neutral,0.1,853.544045769309,1936.1425905828
13,104,3,310,0.5,-0.5,-0.5,2,2,1,2,672,1,1,672,1,0,1.2,NaN,0.161710527122564,0.161710527122564,750,1,0,congruent,1,1936.4322045946,1779.11051421917
13,104,3,311,0.5,-0.5,-0.5,1,1,1,1,648,1,1,648,1,0,1.4,NaN,0.00825731103564264,0.00825731103564264,750,1,0,congruent,1,4725.05908554583,1795.75462152579
13,104,3,312,0.5,0.5,0.5,2,3,1,3,922,0,0,NaN,0,0,1.6,NaN,1.76018152802799,NaN,750,1,0,incongruent,0,4729.70396976024,1470.04534003678
13,104,3,313,-0.5,0.5,0.5,3,1,0.8,2,808,0,0,NaN,0,0,1.4,0.8,1.03127875161512,NaN,750,0,1,incongruent,0,2832.43171800615,1172.25462709314
13,104,3,314,-0.5,-0.5,0.5,1,4,0.6,1,863,1,0,863,0,0,1,0.8,1.38294237181431,1.38294237181431,750,0,0,incongruent,0,2794.92402664079,9060.03754300496
13,104,3,315,0.5,0.5,0.5,3,1,0.6,1,568,0,1,NaN,0,0,0.8,NaN,-0.503253409254095,NaN,750,1,0,incongruent,0,578.521074407078,4556.1275103596
13,104,3,316,-0.5,-0.5,0,1,NaN,0.4,1,564,1,1,564,1,0,0.4,0.6,-0.528828945268582,-0.528828945268582,750,0,0,neutral,0.1,1305.41571203181,3351.74913261491
13,104,3,317,-0.5,-0.5,-0.5,2,2,0.4,4,570,0,1,NaN,0,0,0.2,0.6,-0.490465641246852,NaN,750,0,1,congruent,0,7367.68478962672,3274.50043923287
13,104,3,318,-0.5,0.5,0.5,4,3,0.4,4,934,1,0,934,0,0,0.2,0.8,1.83690813607145,1.83690813607145,750,0,0,incongruent,0,1450.36191329604,1485.96395982642
13,104,3,320,0.5,0.5,-0.5,4,4,0.2,4,918,1,0,918,0,0,0.4,NaN,1.73460599201351,1.73460599201351,750,1,0,congruent,0,4208.04951709602,506.597614560967
13,104,3,321,0.5,0.5,-0.5,1,1,0.2,1,574,1,1,574,1,0,0.4,NaN,-0.464890105232365,-0.464890105232365,750,1,0,congruent,1,1119.85336387329,1401.52258846978
13,104,3,322,-0.5,0.5,-0.5,4,4,0.4,4,560,1,1,560,1,0,0.6,0.6,-0.554404481283069,-0.554404481283069,750,1,0,congruent,0.1,3555.41635551034,971.908241328806
13,104,3,323,0.5,0.5,-0.5,3,3,0.6,3,720,1,1,720,1,0,0.8,NaN,0.468616959296407,0.468616959296407,750,1,0,congruent,1,1145.96959151255,2348.47736090865
13,104,3,325,0.5,0.5,-0.5,1,1,0.8,1,620,1,1,620,1,0,1.4,NaN,-0.170771441065766,-0.170771441065766,750,1,0,congruent,1,2756.37253404235,3150.31832952173
13,104,3,326,-0.5,-0.5,0,2,NaN,1,2,773,1,0,773,1,0,1.8,0.6,0.807492811488358,0.807492811488358,750,0,0,neutral,0.1,1880.09486861928,8553.16266171622
13,104,3,327,0.5,-0.5,-0.5,3,3,1,3,809,1,0,809,1,0,1.6,NaN,1.03767263561874,1.03767263561874,750,1,0,congruent,1,2281.76090047675,1435.46359642706
13,104,3,328,0.5,-0.5,0.5,1,2,1,1,843,1,0,843,1,0,1.8,NaN,1.25506469174188,1.25506469174188,750,0,0,incongruent,1,2316.79036041438,961.037709977562
13,104,3,329,0.5,0.5,-0.5,3,3,1,3,469,1,1,469,1,0,1.8,NaN,-1.13624792561265,-1.13624792561265,750,1,0,congruent,1,7032.96963505377,2865.28406654345
13,104,3,330,-0.5,-0.5,-0.5,2,2,1,2,482,1,1,482,1,0,1.8,0.6,-1.05312743356556,-1.05312743356556,750,1,0,congruent,0.1,1517.0927848293,2875.26288451099
13,104,3,331,0.5,-0.5,0,4,NaN,1,4,532,1,1,532,1,0,1.6,NaN,-0.733433233384477,-0.733433233384477,750,0,0,neutral,1,1848.32079303272,1834.89375480391
13,104,3,332,0.5,0.5,-0.5,2,2,1,2,925,1,0,925,0,0,1.8,NaN,1.77936318003886,1.77936318003886,750,1,0,congruent,0,29161.4816863645,2766.28851147718
13,104,3,334,0.5,0.5,-0.5,4,4,0.8,4,915,1,0,915,0,0,1.2,NaN,1.71542434000264,1.71542434000264,750,1,0,congruent,0,6119.13952002917,11735.269689621
13,104,3,335,0.5,0.5,0.5,2,1,0.6,2,863,1,0,863,0,0,0.8,NaN,1.38294237181431,1.38294237181431,750,0,0,incongruent,0,9858.82415705556,1385.15899163173
13,104,3,336,-0.5,0.5,0,1,NaN,0.4,1,775,1,0,775,0,0,0.6,0.6,0.820280579495601,0.820280579495601,750,0,0,neutral,0,1892.96204197591,2711.50091256563
13,104,3,337,0.5,-0.5,-0.5,4,4,0.2,4,494,1,1,494,0,0,0.2,NaN,-0.976400825522102,-0.976400825522102,750,1,0,congruent,0,4208.72671078531,1745.74149476238
13,104,3,338,0.5,0.5,-0.5,1,1,0.2,1,498,1,1,498,1,0,0.2,NaN,-0.950825289507616,-0.950825289507616,750,1,0,congruent,1,24004.5504218597,7107.48007933586
13,104,3,339,0.5,-0.5,0,2,NaN,0.2,2,925,1,0,925,0,0,0.4,NaN,1.77936318003886,1.77936318003886,750,0,0,neutral,0,6470.68848417898,1707.73060308192
13,104,3,340,0.5,0.5,0.5,1,3,0.2,1,974,1,0,974,0,0,0.4,NaN,2.09266349621632,2.09266349621632,750,0,0,incongruent,0,2911.51522153513,1877.70407091341
13,104,3,341,-0.5,-0.5,-0.5,2,2,0.2,2,547,1,1,547,0,0,0.4,0.8,-0.637524973330151,-0.637524973330151,750,1,0,congruent,0,1216.66130699372,1143.182742257
13,104,3,344,0.5,0.5,0,3,NaN,0.4,3,649,1,1,649,1,0,0.2,NaN,0.0146511950392644,0.0146511950392644,750,0,0,neutral,1,4208.86030006555,2737.61084213868
13,104,3,345,0.5,0.5,-0.5,1,1,0.6,1,669,1,1,669,1,0,0.6,NaN,0.142528875111699,0.142528875111699,750,1,0,congruent,1,2940.11342942166,918.456980841315
13,104,3,346,0.5,-0.5,0,2,NaN,0.6,4,508,0,1,NaN,1,0,1,NaN,-0.886886449471398,NaN,750,0,1,neutral,1,744.64732870482,3251.2460133425
13,104,3,347,-0.5,-0.5,0.5,1,4,0.6,1,963,1,0,963,1,0,1.4,0.6,2.02233077217648,2.02233077217648,750,0,0,incongruent,0.1,1342.58306808583,543.961962481265
13,104,3,348,0.5,-0.5,-0.5,2,2,0.6,2,719,1,1,719,0,0,1.4,NaN,0.462223075292785,0.462223075292785,750,1,0,congruent,0,2168.93228970044,2548.73184569731
13,104,3,349,0.5,0.5,-0.5,1,1,0.6,1,546,1,1,546,1,0,1.4,NaN,-0.643918857333773,-0.643918857333773,750,1,0,congruent,1,14135.7090730336,1819.44202494699
13,104,3,351,0.5,-0.5,0.5,2,3,0.8,4,625,0,1,NaN,1,0,1.2,NaN,-0.138802021047657,NaN,750,0,1,incongruent,1,4015.39439863832,2458.38084430077
13,104,3,353,0.5,0.5,0,2,NaN,0.6,2,980,1,0,980,0,0,1,NaN,2.13102680023805,2.13102680023805,750,0,0,neutral,0,9213.31484190561,1920.16491805502
13,104,3,354,-0.5,-0.5,-0.5,1,1,0.6,1,400,1,1,400,1,0,1,0.8,-1.57742592186254,-1.57742592186254,750,1,0,congruent,0.1,10308.9412160062,2172.11433929549
13,104,3,355,-0.5,-0.5,-0.5,4,4,0.6,4,450,1,1,450,1,0,0.8,0.8,-1.25773172168146,-1.25773172168146,750,1,0,congruent,0.1,3485.11891471167,3297.41007917236
13,104,3,356,-0.5,0.5,0,3,NaN,0.6,3,610,1,1,610,1,0,0.8,0.4,-0.234710281101983,-0.234710281101983,750,0,0,neutral,0.1,4144.55134881241,2036.54690995441
13,104,3,357,0.5,0.5,-0.5,4,4,0.6,4,626,1,1,626,1,0,0.6,NaN,-0.132408137044035,-0.132408137044035,750,1,0,congruent,1,2183.37264777944,975.434544027113
13,104,3,358,0.5,0.5,-0.5,3,3,0.6,3,625,1,1,625,1,0,1,NaN,-0.138802021047657,-0.138802021047657,750,1,0,congruent,1,1861.87727626578,3077.03073276354
13,104,3,359,0.5,-0.5,-0.5,4,4,0.6,4,572,1,1,572,1,0,1.4,NaN,-0.477677873239608,-0.477677873239608,750,1,0,congruent,1,5192.02937436986,3884.90851073571
13,104,3,360,0.5,0.5,0,3,NaN,0.6,3,516,1,1,516,1,0,1.6,NaN,-0.835735377442425,-0.835735377442425,750,0,0,neutral,1,1562.64984259494,14282.6336206857
13,104,3,361,-0.5,0.5,-0.5,4,4,0.8,4,531,1,1,531,1,0,1.8,0.4,-0.739827117388099,-0.739827117388099,750,1,0,congruent,0.1,3516.40620291896,2016.93568297805
13,104,3,362,-0.5,0.5,0.5,2,3,1,2,711,1,1,711,1,0,1.8,0.6,0.411072003263811,0.411072003263811,750,0,0,incongruent,0.1,6970.74232533429,1209.80808639235
13,104,3,364,-0.5,0.5,0,1,NaN,0.8,1,542,1,1,542,1,0,1.2,0.6,-0.66949439334826,-0.66949439334826,750,0,0,neutral,0.1,9476.42575676811,495.029383919993
13,104,3,366,0.5,0.5,0,2,NaN,0.8,2,716,1,1,716,1,0,0.6,NaN,0.44304142328192,0.44304142328192,750,0,0,neutral,1,7477.03642034334,1881.14611796722
13,104,3,368,-0.5,-0.5,0,4,NaN,0.8,4,489,1,1,489,1,0,0.8,1,-1.00837024554021,-1.00837024554021,750,0,0,neutral,0.1,2475.61710652778,1001.68687556931
13,104,3,369,0.5,0.5,0.5,1,4,0.8,1,549,1,1,549,1,0,1,NaN,-0.624737205322908,-0.624737205322908,750,0,0,incongruent,1,874.91034187598,3495.68319523974
13,104,3,370,-0.5,0.5,0.5,3,2,0.8,3,790,1,0,790,0,0,1.2,0.8,0.916188839549927,0.916188839549927,750,0,0,incongruent,0,6074.76269450813,2529.16907607675
13,104,3,371,-0.5,-0.5,-0.5,4,4,0.6,4,538,1,1,538,0,0,1.2,1,-0.695069929362747,-0.695069929362747,750,1,0,congruent,0,4023.44907414904,16981.5776264324
13,104,3,372,-0.5,0.5,0,1,NaN,0.6,1,471,1,1,471,1,0,0.8,0.6,-1.1234601576054,-1.1234601576054,750,0,0,neutral,0.1,5885.38673606345,5044.08789613383
13,104,3,373,-0.5,-0.5,0.5,3,2,0.8,3,590,1,1,590,1,0,0.8,0.8,-0.362587961174417,-0.362587961174417,750,0,0,incongruent,0.1,3170.94059016362,1594.86331770343
13,104,3,374,0.5,0.5,0,4,NaN,0.8,4,492,1,1,492,1,0,0.8,NaN,-0.989188593529346,-0.989188593529346,750,0,0,neutral,1,2938.89622680115,1709.25019788978
13,104,3,375,-0.5,-0.5,0.5,2,3,0.8,2,947,1,0,947,0,0,0.8,0.8,1.92002862811854,1.92002862811854,750,0,0,incongruent,0,1991.08912258486,1484.97972677603
13,104,3,376,-0.5,0.5,-0.5,1,1,0.8,1,533,1,1,533,1,0,0.8,0.6,-0.727039349380855,-0.727039349380855,750,1,0,congruent,0.1,1587.14157635712,3042.57332403365
13,104,3,379,-0.5,0.5,0,1,NaN,0.8,1,548,1,1,548,1,0,1,0.6,-0.63113108932653,-0.63113108932653,750,0,0,neutral,0.1,6807.9428830113,1554.83448285954
13,104,3,380,0.5,-0.5,0.5,4,3,1,4,506,1,1,506,1,0,0.8,NaN,-0.899674217478642,-0.899674217478642,750,0,0,incongruent,1,6858.82732010233,972.799423767574
13,104,3,381,-0.5,-0.5,0,3,NaN,1,3,536,1,1,536,1,0,1.2,0.4,-0.70785769736999,-0.70785769736999,750,0,0,neutral,0.1,886.29334079166,1625.79642162335
13,104,3,382,-0.5,-0.5,-0.5,1,1,1,1,841,1,0,841,1,0,1.2,0.4,1.24227692373463,1.24227692373463,750,1,0,congruent,0.1,1776.72719655782,5321.77573957945
13,104,3,383,0.5,0.5,-0.5,4,4,1,4,500,1,1,500,1,0,1.4,NaN,-0.938037521500372,-0.938037521500372,750,1,0,congruent,1,4068.70496254302,8146.79293408781
13,104,3,384,-0.5,-0.5,0,2,NaN,1,3,513,0,1,NaN,1,0,1.4,0.6,-0.85491702945329,NaN,750,0,1,neutral,0.1,2125.37374334833,1316.50280718172
13,104,3,385,-0.5,0.5,-0.5,1,1,1,2,714,0,1,NaN,0,0,1.4,0.8,0.430253655274676,NaN,750,0,1,congruent,0,3813.53676149687,6296.59001886367
13,104,3,386,0.5,0.5,0.5,3,2,0.8,1,892,0,0,NaN,0,0,1,NaN,1.56836500791934,NaN,750,0,1,incongruent,0,8810.60889989196,3262.68739167777
13,104,3,387,0.5,-0.5,-0.5,1,1,0.6,1,527,1,1,527,0,0,0.8,NaN,-0.765402653402586,-0.765402653402586,750,1,0,congruent,0,2471.01439988902,1115.34513108222
13,104,3,388,-0.5,-0.5,0.5,4,2,0.6,4,370,1,1,370,1,0,0.6,0.6,-1.7692424419712,-1.7692424419712,750,0,0,incongruent,0.1,1553.46812907572,1820.78225222453
13,104,3,389,-0.5,0.5,0,1,NaN,0.6,1,415,1,1,415,1,0,0.4,0.6,-1.48151766180822,-1.48151766180822,750,0,0,neutral,0.1,3731.37939114789,5926.10820581868
13,104,3,390,-0.5,0.5,-0.5,3,3,0.6,2,656,0,1,NaN,0,0,0.4,0.8,0.0594083830646164,NaN,750,0,1,congruent,0,1117.76845497819,7163.06972063485
13,104,3,391,0.5,-0.5,0.5,4,1,0.4,4,344,1,1,344,0,0,0.4,NaN,-1.93548342606536,-1.93548342606536,750,0,0,incongruent,0,1304.84845862115,1284.29653036531
13,104,3,392,0.5,-0.5,-0.5,2,2,0.4,3,579,0,1,NaN,0,0,0.4,NaN,-0.432920685214256,NaN,750,0,1,congruent,0,2004.28236581229,739.015688894707
13,104,3,393,-0.5,-0.5,0,1,NaN,0.4,1,543,1,1,543,0,0,0.4,0.8,-0.663100509344638,-0.663100509344638,750,0,0,neutral,0,2123.69643629054,1884.96877513426
13,104,3,394,0.5,-0.5,0.5,4,1,0.4,4,423,1,1,423,1,0,0.2,NaN,-1.43036658977924,-1.43036658977924,750,0,0,incongruent,1,5799.71038675614,2501.48691579445
13,104,3,395,0.5,0.5,0,3,NaN,0.4,3,687,1,1,687,1,0,0.4,NaN,0.25761878717689,0.25761878717689,750,0,0,neutral,1,4882.32911911096,1480.64162883029
13,104,3,399,0.5,-0.5,-0.5,3,3,0.6,3,495,1,1,495,1,0,1.2,NaN,-0.970006941518481,-0.970006941518481,750,1,0,congruent,1,5032.93768596338,1497.69286338913
13,104,3,400,0.5,-0.5,-0.5,4,4,0.6,4,552,1,1,552,1,0,1.2,NaN,-0.605555553312043,-0.605555553312043,750,1,0,congruent,1,12716.5141896822,2226.4649156785
13,104,3,402,-0.5,-0.5,0.5,1,3,0.6,1,737,1,1,737,1,0,1.4,0.8,0.577312987357976,0.577312987357976,750,0,0,incongruent,0.1,4187.38283612541,4100.30093934714
13,104,3,403,-0.5,-0.5,-0.5,2,2,0.6,2,594,1,1,594,1,0,1.6,0.8,-0.33701242515993,-0.33701242515993,750,1,0,congruent,0.1,11675.3972780322,4475.25540136438
13,104,3,405,-0.5,-0.5,0,1,NaN,0.6,1,536,1,1,536,0,0,1.2,0.8,-0.70785769736999,-0.70785769736999,750,0,0,neutral,0,2535.66274603409,2890.93681538963
13,104,3,406,0.5,0.5,0.5,3,4,0.6,2,940,0,0,NaN,0,0,0.8,NaN,1.87527144009319,NaN,750,0,1,incongruent,0,5116.07015871952,6560.2998743206
13,104,3,407,0.5,0.5,0.5,2,1,0.4,2,877,1,0,877,0,0,0.4,NaN,1.47245674786502,1.47245674786502,750,0,0,incongruent,0,8238.89160102841,2446.19230943544
13,104,3,409,-0.5,0.5,0.5,2,3,0.4,2,766,1,0,766,0,0,0.4,0.6,0.762735623463006,0.762735623463006,750,0,0,incongruent,0,3014.04179518777,1848.63955775247
13,104,3,410,0.5,-0.5,0.5,1,2,0.2,1,575,1,1,575,0,0,0.4,NaN,-0.458496221228743,-0.458496221228743,750,0,0,incongruent,0,19151.103058944,3762.99973470051
13,104,3,411,0.5,0.5,-0.5,4,4,0.2,4,407,1,1,407,1,0,0.4,NaN,-1.53266873383719,-1.53266873383719,750,1,0,congruent,1,5579.06524271244,1520.94125368334
13,104,3,412,-0.5,-0.5,0,3,NaN,0.2,2,798,0,0,NaN,0,0,0.8,0.6,0.967339911578901,NaN,750,0,1,neutral,0,3590.76420840642,3691.53308982302
13,104,3,413,-0.5,0.5,0.5,4,1,0.2,4,493,1,1,493,1,0,0.8,0.4,-0.982794709525724,-0.982794709525724,750,0,0,incongruent,0.1,14754.6175324528,3236.56142206243
13,104,3,415,-0.5,0.5,-0.5,1,1,0.4,1,533,1,1,533,1,0,0.6,0.6,-0.727039349380855,-0.727039349380855,750,1,0,congruent,0.1,2928.76863661646,1556.63377701633
13,104,3,416,0.5,-0.5,0,4,NaN,0.6,4,433,1,1,433,1,0,0.8,NaN,-1.36642774974303,-1.36642774974303,750,0,0,neutral,1,1213.3860412442,705.086673609168
13,104,3,417,0.5,-0.5,-0.5,1,1,0.6,2,679,0,1,NaN,0,0,0.8,NaN,0.206467715147916,NaN,750,0,1,congruent,0,1688.48488448382,2231.51459721208
13,104,3,418,-0.5,0.5,0,2,NaN,0.6,2,862,1,0,862,0,0,0.8,0.6,1.37654848781069,1.37654848781069,750,0,0,neutral,0,5024.66808183297,3516.90744066194
13,104,3,419,0.5,0.5,-0.5,4,4,0.6,4,473,1,1,473,1,0,0.6,NaN,-1.11067238959816,-1.11067238959816,750,1,0,congruent,1,1182.52436263047,3290.09237731823
13,104,3,420,-0.5,0.5,-0.5,2,2,0.6,2,666,1,1,666,1,0,1,0.6,0.123347223100834,0.123347223100834,750,1,0,congruent,0.1,4220.30857944766,2643.40609871314
13,104,3,421,0.5,0.5,0.5,1,3,0.6,1,695,1,1,695,1,0,1,NaN,0.308769859205864,0.308769859205864,750,0,0,incongruent,1,852.984325259445,4713.18175736195
13,104,3,422,0.5,0.5,0.5,2,4,0.8,2,776,1,0,776,0,0,1,NaN,0.826674463499223,0.826674463499223,750,0,0,incongruent,0,6418.56064255139,1267.96152323017
13,104,3,423,0.5,0.5,0,3,NaN,0.6,3,349,1,1,349,1,0,1,NaN,-1.90351400604725,-1.90351400604725,750,0,0,neutral,1,1219.15423675941,970.138275626787
13,104,3,425,-0.5,-0.5,0,4,NaN,0.8,4,413,1,1,413,1,0,1.2,0.6,-1.49430542981546,-1.49430542981546,750,0,0,neutral,0.1,2522.08983583597,2082.57662845095
13,104,3,426,0.5,0.5,-0.5,2,2,0.8,2,879,1,0,879,0,0,1.2,NaN,1.48524451587226,1.48524451587226,750,1,0,congruent,0,16837.4678055338,1632.87910134549
13,104,3,428,0.5,0.5,0.5,4,3,0.6,4,758,1,0,758,0,0,1,NaN,0.711584551434032,0.711584551434032,750,0,0,incongruent,0,3610.29168132232,1910.19138893307
13,104,3,429,0.5,0.5,-0.5,1,1,0.4,1,760,1,0,760,0,0,0.6,NaN,0.724372319441275,0.724372319441275,750,1,0,congruent,0,26697.3624467607,4156.49534601475
13,104,3,432,0.5,-0.5,-0.5,3,3,0.2,3,432,1,1,432,0,0,0.4,NaN,-1.37282163374665,-1.37282163374665,750,1,0,congruent,0,711.65071091772,3124.29978160205
13,104,3,433,-0.5,0.5,0,1,NaN,0.2,1,526,1,1,526,1,0,0.2,0.6,-0.771796537406207,-0.771796537406207,750,0,0,neutral,0.1,1157.3645932618,951.596514220609
13,104,3,434,0.5,-0.5,-0.5,2,2,0.4,3,852,0,0,NaN,0,0,0.4,NaN,1.31260964777447,NaN,750,0,1,congruent,0,10648.413230824,4667.23937619559
13,104,3,435,-0.5,0.5,0,3,NaN,0.4,3,761,1,0,761,0,0,0.4,0.8,0.730766203444897,0.730766203444897,750,0,0,neutral,0,5485.48891961904,3635.17015578332
13,104,3,437,0.5,-0.5,0.5,1,3,0.6,1,883,1,0,883,1,0,0.4,NaN,1.51082005188675,1.51082005188675,750,0,0,incongruent,1,7322.86385759497,6308.98762007879
13,104,3,438,-0.5,-0.5,-0.5,2,2,0.6,2,692,1,1,692,1,0,0.8,0.6,0.289588207194998,0.289588207194998,750,1,0,congruent,0.1,8758.70152698808,2889.12343144346
13,104,3,441,-0.5,-0.5,-0.5,1,1,0.4,1,757,1,0,757,1,0,1,0.8,0.70519066743041,0.70519066743041,750,1,0,congruent,0.1,3377.90276679631,3872.81391129433
13,104,3,444,-0.5,-0.5,0,3,NaN,0.4,3,720,1,1,720,1,0,0.6,1,0.468616959296407,0.468616959296407,750,0,0,neutral,0.1,2299.10622485223,1478.79347831004
13,104,3,445,0.5,-0.5,-0.5,1,1,0.4,1,514,1,1,514,1,0,0.6,NaN,-0.848523145449668,-0.848523145449668,750,1,0,congruent,1,703.277600848727,2318.69349884236
13,104,3,448,-0.5,-0.5,0,2,NaN,0.4,2,721,1,1,721,0,0,0.8,0.8,0.475010843300028,0.475010843300028,750,0,0,neutral,0,3508.60535400227,1913.13134761824
13,104,3,449,-0.5,0.5,-0.5,4,4,0.4,4,683,1,1,683,1,0,0.6,0.4,0.232043251162403,0.232043251162403,750,1,0,congruent,0.1,4179.53140782704,1156.64053933327
13,104,4,451,-0.5,-0.5,0.5,2,3,0.4,2,977,1,0,977,0,0,0.2,0.6,2.11184514822719,2.11184514822719,750,0,0,incongruent,0,1608.48764931761,1389.46883858693
13,104,4,453,0.5,0.5,-0.5,4,4,0.4,4,546,1,1,546,1,0,0.2,NaN,-0.643918857333773,-0.643918857333773,750,1,0,congruent,1,3543.92604175855,2179.22613428447
13,104,4,454,0.5,0.5,0,2,NaN,0.6,2,689,1,1,689,1,0,0.6,NaN,0.270406555184133,0.270406555184133,750,0,0,neutral,1,2177.33745838992,2054.9501109627
13,104,4,455,-0.5,0.5,-0.5,3,3,0.6,3,789,1,0,789,0,0,0.8,0.6,0.909794955546305,0.909794955546305,750,1,0,congruent,0,6691.92229398452,5630.79688987075
13,104,4,456,-0.5,-0.5,0.5,1,4,0.6,1,773,1,0,773,0,0,0.8,0.2,0.807492811488358,0.807492811488358,750,0,0,incongruent,0,1458.92121493862,5084.10678494826
13,104,4,457,-0.5,0.5,0,2,NaN,0.6,2,824,1,0,824,0,0,0.8,0.4,1.13358089567307,1.13358089567307,750,0,0,neutral,0,9785.47687159704,2505.54689686113
13,104,4,458,0.5,-0.5,0.5,1,2,0.4,1,607,1,1,607,0,0,0.8,NaN,-0.253891933112848,-0.253891933112848,750,0,0,incongruent,0,3472.00107274291,5648.93206174293
13,104,4,459,0.5,-0.5,0,2,NaN,0.4,1,597,0,1,NaN,0,0,0.4,NaN,-0.317830773149065,NaN,750,0,1,neutral,0,1041.80218925933,3806.97011992886
13,104,4,461,-0.5,0.5,0.5,2,1,0.4,2,898,1,0,898,0,0,0,0.2,1.60672831194107,1.60672831194107,750,0,0,incongruent,0,3237.56995865529,3374.32387754068
13,104,4,462,0.5,-0.5,0.5,1,2,0.2,1,566,1,1,566,0,0,0,NaN,-0.516041177261338,-0.516041177261338,750,0,0,incongruent,0,5972.39791533578,658.136626609342
13,104,4,464,-0.5,0.5,-0.5,3,3,0.2,3,780,1,0,780,0,0,0,0.2,0.85224999951371,0.85224999951371,750,1,0,congruent,0,3845.37805109408,3017.23125436484
13,104,4,465,0.5,0.5,0.5,2,4,0,2,774,1,0,774,0,0,0,NaN,0.813886695491979,0.813886695491979,750,0,0,incongruent,0,19203.2055214107,1716.08486422303
13,104,4,466,0.5,0.5,0.5,1,2,0,1,792,1,0,792,0,0,0,NaN,0.92897660755717,0.92897660755717,750,0,0,incongruent,0,7496.35948629551,2372.96893034558
13,104,4,467,-0.5,0.5,0,2,NaN,0,2,671,1,1,671,1,0,0,0,0.155316643118942,0.155316643118942,750,0,0,neutral,0.1,5887.5652048131,6705.88380812512
13,104,4,468,-0.5,0.5,-0.5,1,1,0.2,1,617,1,1,617,1,0,0.2,0.2,-0.189953093076631,-0.189953093076631,750,1,0,congruent,0.1,3389.80067480049,8678.49087962855
13,104,4,469,-0.5,0.5,0,4,NaN,0.4,4,355,1,1,355,1,0,0.4,0.4,-1.86515070202552,-1.86515070202552,750,0,0,neutral,0.1,3840.8852987119,5024.27867651107
13,104,4,470,-0.5,0.5,0.5,3,2,0.6,2,747,0,1,NaN,0,0,0.6,0.6,0.641251827394193,NaN,750,1,0,incongruent,0,3615.47545237376,3728.92317777109
13,104,4,471,0.5,-0.5,0,1,NaN,0.6,2,671,0,1,NaN,0,0,0.6,NaN,0.155316643118942,NaN,750,0,1,neutral,0,1488.70990373798,1215.83447984723
13,104,4,473,-0.5,0.5,-0.5,1,1,0.6,1,495,1,1,495,1,0,0.4,0.6,-0.970006941518481,-0.970006941518481,750,1,0,congruent,0.1,2483.89947394876,2160.17254522262
13,104,4,474,0.5,-0.5,0,4,NaN,0.6,4,497,1,1,497,0,0,0.4,NaN,-0.957219173511237,-0.957219173511237,750,0,0,neutral,0,14050.1457706173,724.933359078976
13,104,4,479,0.5,0.5,0.5,2,1,0.4,1,831,0,0,NaN,0,0,0.4,NaN,1.17833808369842,NaN,750,1,0,incongruent,0,2308.66421309191,2249.75397429136
13,104,4,480,-0.5,0.5,0,3,NaN,0.4,3,792,1,0,792,0,0,0.4,0.6,0.92897660755717,0.92897660755717,750,0,0,neutral,0,15552.5636037822,5091.63406249627
13,104,4,481,-0.5,0.5,-0.5,4,4,0.2,4,612,1,1,612,1,0,0,0.4,-0.221922513094739,-0.221922513094739,750,1,0,congruent,0.1,3486.50049822946,4696.02101688794
13,104,4,482,-0.5,-0.5,0,3,NaN,0.2,3,645,1,1,645,1,0,0.2,0,-0.0109243409752225,-0.0109243409752225,750,0,0,neutral,0.1,5753.13046306019,1684.1835808422
13,104,4,485,0.5,0.5,-0.5,2,2,0.2,3,868,0,0,NaN,0,0,0.4,NaN,1.41491179183242,NaN,750,0,1,congruent,0,18860.6428950601,6158.78745634437
13,104,4,486,-0.5,0.5,-0.5,4,4,0.2,4,297,1,1,297,1,0,0.4,0.4,-2.23599597423558,-2.23599597423558,750,1,0,congruent,0.1,6354.91803794852,27038.56940845
13,104,4,488,-0.5,-0.5,0,3,NaN,0.4,3,453,1,1,453,0,0,0.2,0.2,-1.23855006967059,-1.23855006967059,750,0,0,neutral,0,6472.96895180476,2257.92419792883
13,104,4,489,-0.5,-0.5,-0.5,4,4,0.4,4,376,1,1,376,1,0,0.2,0.2,-1.73087913794947,-1.73087913794947,750,1,0,congruent,0.1,2781.98927247737,5677.05604291487
13,104,4,492,0.5,-0.5,0.5,2,1,0.4,2,755,1,0,755,1,0,0.4,NaN,0.692402899423167,0.692402899423167,750,0,0,incongruent,1,4875.21689088262,11687.189194198
13,104,4,493,-0.5,0.5,0.5,4,2,0.4,4,644,1,1,644,1,0,0.8,0.8,-0.0173182249788442,-0.0173182249788442,750,0,0,incongruent,0.1,9183.19689195805,1796.49033487626
13,104,4,494,0.5,0.5,0.5,3,4,0.6,3,888,1,0,888,0,0,1,NaN,1.54278947190486,1.54278947190486,750,0,0,incongruent,0,1427.69789023671,3902.16271069119
13,104,4,495,-0.5,0.5,0.5,1,2,0.6,1,595,1,1,595,1,0,0.8,0.8,-0.330618541156309,-0.330618541156309,750,0,0,incongruent,0.1,1691.06126613661,2182.12153236798
13,104,4,496,-0.5,-0.5,0.5,4,1,0.6,4,533,1,1,533,1,0,1,0.4,-0.727039349380855,-0.727039349380855,750,0,0,incongruent,0.1,4883.61561281549,2808.98734062318
13,104,4,497,0.5,0.5,0.5,2,4,0.6,3,620,0,1,NaN,0,0,1,NaN,-0.170771441065766,NaN,750,0,1,incongruent,0,8641.19653206934,4028.1320280196
13,104,4,498,0.5,0.5,0.5,1,2,0.6,3,568,0,1,NaN,0,0,0.6,NaN,-0.503253409254095,NaN,750,0,1,incongruent,0,11185.1849078745,3242.85468045866
13,104,4,500,-0.5,-0.5,0,2,NaN,0.4,2,835,1,0,835,0,0,0.6,0.6,1.2039136197129,1.2039136197129,750,0,0,neutral,0,2868.07331739898,5169.19496065267
13,104,4,502,-0.5,0.5,-0.5,1,1,0.4,1,488,1,1,488,1,0,0.2,1,-1.01476412954383,-1.01476412954383,750,1,0,congruent,0.1,3608.41515792871,6054.15552960663
13,104,4,503,-0.5,-0.5,0.5,3,4,0.4,3,745,1,1,745,0,0,0.4,0.6,0.62846405938695,0.62846405938695,750,0,0,incongruent,0,2992.70031144374,3599.00112285659
13,104,4,504,0.5,-0.5,0.5,1,3,0.4,2,509,0,1,NaN,0,0,0.4,NaN,-0.880492565467777,NaN,750,0,1,incongruent,0,12034.2144913237,2888.24006697602
13,104,4,505,0.5,-0.5,0.5,3,1,0.4,3,773,1,0,773,0,0,0.2,NaN,0.807492811488358,0.807492811488358,750,0,0,incongruent,0,3203.46522356025,8990.84122168143
13,104,4,506,-0.5,-0.5,0,2,NaN,0.4,2,599,1,1,599,0,0,0.2,0.6,-0.305043005141822,-0.305043005141822,750,0,0,neutral,0,312.046500455329,1828.02787968641
13,104,4,507,0.5,0.5,-0.5,3,3,0.4,3,532,1,1,532,1,0,0.2,NaN,-0.733433233384477,-0.733433233384477,750,1,0,congruent,1,9803.28704099543,13578.2821671705
13,104,4,508,-0.5,-0.5,-0.5,4,4,0.6,4,438,1,1,438,1,0,0.4,0.4,-1.33445832972492,-1.33445832972492,750,1,0,congruent,0.1,7754.49571733439,4183.88550496169
13,104,4,509,0.5,-0.5,0,1,NaN,0.6,1,715,1,1,715,0,0,0.6,NaN,0.436647539278298,0.436647539278298,750,0,0,neutral,0,13428.82759971,4511.47923296299
13,104,4,510,0.5,-0.5,-0.5,3,3,0.6,3,734,1,1,734,0,0,0.6,NaN,0.558131335347111,0.558131335347111,750,1,0,congruent,0,5983.99718618775,8503.58934957318
13,104,4,511,-0.5,-0.5,-0.5,4,4,0.6,4,537,1,1,537,0,0,0.6,0.4,-0.701463813366368,-0.701463813366368,750,1,0,congruent,0,1195.67621313021,4058.04724524265
13,104,4,512,-0.5,-0.5,0.5,2,1,0.6,2,954,1,0,954,0,0,0.6,0.2,1.96478581614389,1.96478581614389,750,0,0,incongruent,0,2172.88588633387,530.883546401645
13,104,4,513,-0.5,0.5,0.5,3,2,0.6,3,983,1,0,983,0,0,0.2,1,2.15020845224892,2.15020845224892,750,0,0,incongruent,0,890.976526288021,2780.24482885858
13,104,4,514,0.5,0.5,0,1,NaN,0.4,1,870,1,0,870,0,0,0,NaN,1.42769955983966,1.42769955983966,750,0,0,neutral,0,772.338090624338,2924.24777622769
13,104,4,516,0.5,-0.5,0,3,NaN,0.4,3,547,1,1,547,0,0,0.2,NaN,-0.637524973330151,-0.637524973330151,750,0,0,neutral,0,19312.8277616872,1418.3505382729
13,104,4,517,0.5,-0.5,0.5,2,4,0.4,2,612,1,1,612,1,0,0.2,NaN,-0.221922513094739,-0.221922513094739,750,0,0,incongruent,1,4501.29804715608,803.184240576868
13,104,4,519,0.5,0.5,0,2,NaN,0.4,2,841,1,0,841,0,0,0.8,NaN,1.24227692373463,1.24227692373463,750,0,0,neutral,0,743.539614531037,3910.04165131923
13,104,4,520,-0.5,0.5,-0.5,1,1,0.4,1,471,1,1,471,1,0,0.8,0.8,-1.1234601576054,-1.1234601576054,750,1,0,congruent,0.1,1017.66725101698,1870.86084156165
13,104,4,522,0.5,0.5,-0.5,1,1,0.4,1,444,1,1,444,1,0,1,NaN,-1.29609502570319,-1.29609502570319,750,1,0,congruent,1,3026.95294407427,1621.40354483758
13,104,4,523,0.5,-0.5,-0.5,2,2,0.4,4,498,0,1,NaN,0,0,1,NaN,-0.950825289507616,NaN,750,0,1,congruent,0,2161.5655784534,1091.37288800573
13,104,4,524,0.5,0.5,-0.5,4,4,0.4,4,389,1,1,389,1,0,0.8,NaN,-1.64775864590238,-1.64775864590238,750,1,0,congruent,1,4951.30377231771,1291.25642719452
13,104,4,529,-0.5,0.5,0,2,NaN,0.6,2,590,1,1,590,1,0,1,0.8,-0.362587961174417,-0.362587961174417,750,0,0,neutral,0.1,7040.34033352776,3943.11768847049
13,104,4,530,-0.5,0.5,0.5,1,2,0.6,1,823,1,0,823,0,0,0.8,0.8,1.12718701166944,1.12718701166944,750,0,0,incongruent,0,9339.47714981056,1203.13502209416
13,104,4,531,0.5,-0.5,0.5,2,3,0.4,2,539,1,1,539,1,0,0.8,NaN,-0.688676045359125,-0.688676045359125,750,0,0,incongruent,1,2633.53821736269,3229.36657432216
13,104,4,532,0.5,-0.5,0,3,NaN,0.4,1,854,0,0,NaN,0,0,1,NaN,1.32539741578172,NaN,750,0,1,neutral,0,2915.78645082614,1968.22497780463
13,104,4,533,-0.5,-0.5,-0.5,4,4,0.4,4,476,1,1,476,0,0,1,0.8,-1.09149073758729,-1.09149073758729,750,1,0,congruent,0,5145.92542970825,4293.57668593441
13,104,4,534,-0.5,0.5,0.5,3,2,0.4,3,916,1,0,916,0,0,0.6,0.6,1.72181822400626,1.72181822400626,750,0,0,incongruent,0,8706.30860944205,4601.08280883547
13,104,4,535,0.5,0.5,0.5,2,3,0.2,1,720,0,1,NaN,0,0,0.4,NaN,0.468616959296407,NaN,750,0,1,incongruent,0,2406.43583480372,3131.21692736484
13,104,4,536,0.5,0.5,-0.5,4,4,0.2,4,431,1,1,431,1,0,0.4,NaN,-1.37921551775027,-1.37921551775027,750,1,0,congruent,1,3997.02207386171,3118.80633385504
13,104,4,537,-0.5,-0.5,0.5,1,3,0.4,1,620,1,1,620,0,0,0.4,0.8,-0.170771441065766,-0.170771441065766,750,0,0,incongruent,0,1671.88162870299,5008.16268645316
13,104,4,539,-0.5,-0.5,-0.5,4,4,0.2,4,669,1,1,669,1,0,0.4,0.6,0.142528875111699,0.142528875111699,750,1,0,congruent,0.1,2338.39430460312,1723.28711307441
13,104,4,540,0.5,-0.5,-0.5,3,3,0.2,3,718,1,1,718,0,0,0.6,NaN,0.455829191289163,0.455829191289163,750,1,0,congruent,0,10614.0315279299,816.196882658576
13,104,4,542,-0.5,-0.5,-0.5,1,1,0.2,1,500,1,1,500,0,0,0.2,0.6,-0.938037521500372,-0.938037521500372,750,1,0,congruent,0,2737.40109674775,1131.9718561967
13,104,4,543,-0.5,-0.5,0.5,3,2,0.2,2,691,0,1,NaN,0,0,0.2,0.4,0.283194323191377,NaN,750,1,0,incongruent,0,5195.88153908433,1737.58380907387
13,104,4,544,0.5,0.5,0,1,NaN,0.2,1,635,1,1,635,1,0,0.2,NaN,-0.0748631810114397,-0.0748631810114397,750,0,0,neutral,1,3192.1954807838,3544.24366052335
13,104,4,545,-0.5,-0.5,-0.5,3,3,0.4,3,588,1,1,588,0,0,0.4,0.2,-0.375375729181661,-0.375375729181661,750,1,0,congruent,0,12843.621636601,1943.10324667821
13,104,4,547,-0.5,0.5,-0.5,4,4,0.4,4,578,1,1,578,1,0,0.6,0.2,-0.439314569217878,-0.439314569217878,750,1,0,congruent,0.1,2752.70672775596,1697.88381470708
13,104,4,548,-0.5,-0.5,0,2,NaN,0.6,2,979,1,0,979,1,0,0.8,0.4,2.12463291623443,2.12463291623443,750,0,0,neutral,0.1,996.909749373999,3631.42175318606
13,104,4,549,0.5,0.5,-0.5,4,4,0.6,3,652,0,1,NaN,0,0,1,NaN,0.0338328470501295,NaN,750,0,1,congruent,0,1822.75227655593,6978.49081306605
13,104,4,550,-0.5,-0.5,0,3,NaN,0.4,3,782,1,0,782,1,0,0.6,0.4,0.865037767520953,0.865037767520953,750,0,0,neutral,0.1,9388.72735309575,4966.93340223714
13,104,4,552,0.5,0.5,-0.5,2,2,0.4,3,762,0,0,NaN,0,0,1,NaN,0.737160087448519,NaN,750,0,1,congruent,0,8192.36548005995,2854.59512437782
13,104,4,553,-0.5,-0.5,0.5,3,1,0.4,3,656,1,1,656,1,0,0.8,0.6,0.0594083830646164,0.0594083830646164,750,0,0,incongruent,0.1,764.544435825398,595.949221521724
13,104,4,554,-0.5,0.5,-0.5,4,4,0.4,4,469,1,1,469,1,0,0.8,0.2,-1.13624792561265,-1.13624792561265,750,1,0,congruent,0.1,2523.19147435291,1830.91541670317
13,104,4,555,0.5,-0.5,0,1,NaN,0.6,1,566,1,1,566,1,0,1,NaN,-0.516041177261338,-0.516041177261338,750,0,0,neutral,1,2323.95262223201,1236.33390522812
13,104,4,556,0.5,-0.5,-0.5,3,3,0.6,3,770,1,0,770,0,0,1.2,NaN,0.788311159477493,0.788311159477493,750,1,0,congruent,0,4385.65672446155,2168.56227996974
13,104,4,557,0.5,0.5,-0.5,4,4,0.6,4,530,1,1,530,1,0,0.8,NaN,-0.74622100139172,-0.74622100139172,750,1,0,congruent,1,1335.37566724967,4306.6675168406
13,104,4,560,-0.5,-0.5,0.5,1,4,0.4,1,729,1,1,729,0,0,0.8,0.8,0.526161915329002,0.526161915329002,750,0,0,incongruent,0,3181.8923384447,1235.62562354296
13,104,4,562,-0.5,0.5,-0.5,4,4,0.4,2,926,0,0,NaN,0,0,0.4,0.4,1.78575706404248,NaN,750,0,1,congruent,0,574.706413904486,3006.03255235568
13,104,4,563,-0.5,-0.5,0,1,NaN,0.2,1,685,1,1,685,0,0,0,0.8,0.244831019169646,0.244831019169646,750,0,0,neutral,0,2917.63663039647,3300.46261428666
13,104,4,565,-0.5,-0.5,0.5,3,4,0,4,882,0,0,NaN,0,0,0,0.6,1.50442616788313,NaN,750,1,0,incongruent,0,885.685713517525,971.260712443641
13,104,4,566,-0.5,-0.5,0.5,4,3,0,4,638,1,1,638,0,0,0,0.4,-0.0556815290005746,-0.0556815290005746,750,0,0,incongruent,0,5251.54187172892,2879.42925342172
13,104,4,567,0.5,0.5,-0.5,1,1,0,1,667,1,1,667,1,0,0,NaN,0.129741107104455,0.129741107104455,750,1,0,congruent,1,4108.09101025681,3933.77229255576
13,104,4,568,-0.5,-0.5,0,4,NaN,0.2,4,446,1,1,446,0,0,0.4,0.2,-1.28330725769595,-1.28330725769595,750,0,0,neutral,0,1650.6003541071,34942.3847969809
13,104,4,569,0.5,-0.5,0.5,1,3,0.2,3,747,0,1,NaN,0,0,0.4,NaN,0.641251827394193,NaN,750,1,0,incongruent,0,3464.47250680953,1864.0732878403
13,104,4,570,0.5,-0.5,0.5,4,1,0.2,1,695,0,1,NaN,0,0,0.4,NaN,0.308769859205864,NaN,750,1,0,incongruent,0,3048.72101900525,2799.26354079578
13,104,4,571,-0.5,0.5,-0.5,3,3,0.2,3,565,1,1,565,1,0,0.4,0.4,-0.52243506126496,-0.52243506126496,750,1,0,congruent,0.1,2435.02979601077,1673.05893802529
13,104,4,572,-0.5,0.5,-0.5,2,2,0.4,2,849,1,0,849,0,0,0.6,0.4,1.29342799576361,1.29342799576361,750,1,0,congruent,0,3150.0852667097,3776.06736523541
13,104,4,574,0.5,0.5,-0.5,3,3,0.4,3,545,1,1,545,1,0,0.2,NaN,-0.650312741337395,-0.650312741337395,750,1,0,congruent,1,11623.3831502028,1370.475887621
13,104,4,575,0.5,-0.5,-0.5,4,4,0.6,4,620,1,1,620,0,0,0.6,NaN,-0.170771441065766,-0.170771441065766,750,1,0,congruent,0,1774.32211124904,2300.62280996347
13,104,4,576,0.5,-0.5,-0.5,1,1,0.6,1,569,1,1,569,1,0,0.6,NaN,-0.496859525250473,-0.496859525250473,750,1,0,congruent,1,650.88374306957,899.180744447921
13,104,4,577,0.5,0.5,0,4,NaN,0.6,4,439,1,1,439,1,0,0.8,NaN,-1.3280644457213,-1.3280644457213,750,0,0,neutral,1,928.896271643826,3753.34431250806
13,104,4,578,0.5,-0.5,-0.5,3,3,0.8,3,774,1,0,774,1,0,1.2,NaN,0.813886695491979,0.813886695491979,750,1,0,congruent,1,5980.00069277673,2056.44270250732
13,104,4,579,-0.5,0.5,0.5,4,1,0.8,4,356,1,1,356,1,0,1.6,0.2,-1.8587568180219,-1.8587568180219,750,0,0,incongruent,0.1,2878.0707196312,5230.19388989528
13,104,4,580,-0.5,0.5,0.5,1,2,0.8,1,536,1,1,536,1,0,1.4,0.4,-0.70785769736999,-0.70785769736999,750,0,0,incongruent,0.1,3313.02330959614,1557.47611087614
13,104,4,581,-0.5,0.5,0.5,4,3,0.8,4,615,1,1,615,1,0,1.6,0.6,-0.202740861083874,-0.202740861083874,750,0,0,incongruent,0.1,2840.77226937983,5904.44972723611
13,104,4,582,-0.5,0.5,-0.5,2,2,1,2,592,1,1,592,1,0,1.4,0.8,-0.349800193167174,-0.349800193167174,750,1,0,congruent,0.1,5022.13702085898,4862.48923895648
13,104,4,583,0.5,-0.5,0,4,NaN,1,4,551,1,1,551,1,0,1.2,NaN,-0.611949437315664,-0.611949437315664,750,0,0,neutral,1,3072.71423302356,3006.64531840695
13,104,4,584,0.5,0.5,-0.5,1,1,1,1,544,1,1,544,1,0,1.2,NaN,-0.656706625341016,-0.656706625341016,750,1,0,congruent,1,1026.73126893065,727.256910754471
13,104,4,586,0.5,-0.5,0,3,NaN,0.8,3,566,1,1,566,1,0,1.2,NaN,-0.516041177261338,-0.516041177261338,750,0,0,neutral,1,5132.17308271423,5851.09760994757
13,104,4,587,0.5,0.5,-0.5,4,4,0.8,4,582,1,1,582,1,0,1.4,NaN,-0.413739033203391,-0.413739033203391,750,1,0,congruent,1,22678.5723475844,2670.06530638493
13,104,4,588,0.5,0.5,-0.5,1,1,0.8,1,705,1,1,705,1,0,1.6,NaN,0.372708699242081,0.372708699242081,750,1,0,congruent,1,4771.82248324297,6682.90111780862
13,104,4,589,-0.5,0.5,0,3,NaN,0.8,3,642,1,1,642,1,0,1.6,0.8,-0.0301059929860877,-0.0301059929860877,750,0,0,neutral,0.1,9720.11634714934,2629.7386419435
13,104,4,590,-0.5,-0.5,-0.5,1,1,0.8,1,505,1,1,505,1,0,1.4,0,-0.906068101482263,-0.906068101482263,750,1,0,congruent,0.1,7243.52390606962,3037.97655384405
13,104,4,591,0.5,-0.5,0,3,NaN,0.8,3,528,1,1,528,1,0,1.6,NaN,-0.759008769398964,-0.759008769398964,750,0,0,neutral,1,9222.12004869158,7205.51618852385
13,104,4,592,-0.5,-0.5,0.5,1,4,0.8,1,904,1,0,904,1,0,1.6,0.2,1.6450916159628,1.6450916159628,750,0,0,incongruent,0.1,1423.32283073433,1717.17988014433
13,104,4,593,-0.5,0.5,0,2,NaN,0.8,2,425,1,1,425,1,0,1.4,0.8,-1.417578821772,-1.417578821772,750,0,0,neutral,0.1,1880.37743254372,1459.90406718976
13,104,4,594,-0.5,0.5,0.5,3,1,0.8,1,820,0,0,NaN,0,0,1.2,0.8,1.10800535965858,NaN,750,1,0,incongruent,0,5024.48892939967,5802.14704651328
13,104,4,595,0.5,0.5,0,1,NaN,0.8,1,720,1,1,720,1,0,1,NaN,0.468616959296407,0.468616959296407,750,0,0,neutral,1,8881.08330287562,526.953131078259
13,104,4,596,0.5,0.5,0.5,3,4,0.8,3,967,1,0,967,0,0,1.2,NaN,2.04790630819097,2.04790630819097,750,0,0,incongruent,0,2778.96380323223,5371.68006274689
13,104,4,597,-0.5,-0.5,-0.5,1,1,0.6,1,891,1,0,891,1,0,0.8,0.4,1.56197112391572,1.56197112391572,750,1,0,congruent,0.1,4522.35538351163,5814.95494138006
13,104,4,598,-0.5,-0.5,-0.5,2,2,0.6,2,551,1,1,551,1,0,0.8,0.6,-0.611949437315664,-0.611949437315664,750,1,0,congruent,0.1,10361.3282141175,1253.41381831586
13,104,4,599,-0.5,-0.5,0,3,NaN,0.6,3,747,1,1,747,1,0,0.8,0.8,0.641251827394193,0.641251827394193,750,0,0,neutral,0.1,2532.05047339285,3390.27972750026
13,104,4,600,0.5,-0.5,0.5,1,2,0.6,2,822,0,0,NaN,1,0,1,NaN,1.12079312766582,NaN,750,1,0,incongruent,1,6143.62129563124,1822.38783926311
