subid,vers,block,trial,rewlvl,efflvl,congruency,targetresp,distractorresp,rollingefflvl,resp,rt,acc,fast,accrt,isrewarded,ismiss,runavgrrgen,runavgrrcond,zrt,acczrt,rtthreshold,isdisterror,isranderror,congruence,feedback,fcz_resp_theta,fcz_resp_theta_baseline
14,104,1,2,0.5,0.5,-0.5,3,3,0.9,3,628,1,1,628,1,0,0.4,NaN,-0.576108262677088,-0.576108262677088,750,1,0,congruent,1,1577.78486844884,1773.57079346695
14,104,1,3,0.5,-0.5,0.5,1,2,0.9,1,731,1,1,731,1,0,0.8,NaN,0.252719174499779,0.252719174499779,750,0,0,incongruent,1,1665.59486025508,2507.95216952666
14,104,1,4,-0.5,0.5,-0.5,4,4,0.9,4,631,1,1,631,1,0,1.2,0,-0.551967657710772,-0.551967657710772,750,1,0,congruent,0.1,1644.30191471578,2197.05145236213
14,104,1,5,-0.5,-0.5,-0.5,2,2,1,2,545,1,1,545,1,0,1.4,0,-1.24399833341185,-1.24399833341185,750,1,0,congruent,0.1,2983.99287098243,628.146396617349
14,104,1,6,0.5,0.5,-0.5,4,4,1,4,472,1,1,472,1,0,1.6,NaN,-1.83141972092555,-1.83141972092555,750,1,0,congruent,1,1506.03192050592,1150.41480730724
14,104,1,8,-0.5,0.5,0,2,NaN,0.8,2,700,1,1,700,1,0,1.2,0.2,0.00326625651450791,0.00326625651450791,750,0,0,neutral,0.1,1306.61624755496,1301.48285795993
14,104,1,9,0.5,-0.5,0.5,1,4,0.8,3,593,0,1,NaN,1,0,1,NaN,-0.857748653950781,NaN,750,0,1,incongruent,1,373.076586284294,1027.73459095148
14,104,1,10,-0.5,0.5,-0.5,2,2,0.8,2,709,1,1,709,1,0,1.2,0.4,0.0756880714134575,0.0756880714134575,750,1,0,congruent,0.1,3199.78502363857,2631.19333312455
14,104,1,11,0.5,0.5,0.5,3,1,0.8,3,553,1,1,553,1,0,1.2,NaN,-1.179623386835,-1.179623386835,750,0,0,incongruent,1,888.833500530462,474.875000237921
14,104,1,12,-0.5,0.5,0.5,2,3,0.8,2,673,1,1,673,1,0,1.2,0.6,-0.213999188182341,-0.213999188182341,750,0,0,incongruent,0.1,1714.5580186933,984.809857676061
14,104,1,13,-0.5,0.5,0.5,3,2,0.8,3,514,1,1,514,1,0,1.4,0.8,-1.49345125139712,-1.49345125139712,750,0,0,incongruent,0.1,2349.87776168158,1207.79501850726
14,104,1,14,-0.5,-0.5,0.5,2,1,1,2,705,1,1,705,1,0,1.4,0.2,0.0435005981250354,0.0435005981250354,750,0,0,incongruent,0.1,2183.67400692142,1245.74401895924
14,104,1,15,-0.5,-0.5,-0.5,4,4,1,4,664,1,1,664,1,0,1.2,0.4,-0.28642100308129,-0.28642100308129,750,1,0,congruent,0.1,418.538030235232,531.994596403283
14,104,1,16,-0.5,0.5,0,3,NaN,1,3,657,1,1,657,1,0,1.2,0.8,-0.342749081336029,-0.342749081336029,750,0,0,neutral,0.1,1166.35314076466,480.329614676488
14,104,1,17,-0.5,-0.5,0.5,1,4,1,1,498,1,1,498,1,0,1,0.6,-1.6222011445508,-1.6222011445508,750,0,0,incongruent,0.1,922.014002276142,1883.34956159595
14,104,1,18,-0.5,0.5,0.5,4,2,1,4,712,1,1,712,1,0,1,1,0.099828676379774,0.099828676379774,750,0,0,incongruent,0.1,304.278859494167,1959.15528522402
14,104,1,19,-0.5,0.5,0.5,1,3,1,1,651,1,1,651,1,0,1,1,-0.391030291268662,-0.391030291268662,750,0,0,incongruent,0.1,6090.74708848674,2164.22115505437
14,104,1,20,0.5,0.5,-0.5,4,4,1,4,619,1,1,619,1,0,1,NaN,-0.648530077576038,-0.648530077576038,750,1,0,congruent,1,1385.47511478087,1575.02300103904
14,104,1,21,-0.5,0.5,0.5,1,2,1,2,684,0,1,NaN,0,0,1.2,1,-0.12548363663918,NaN,750,1,0,incongruent,0,1226.60929409259,2986.75520412724
14,104,1,22,0.5,0.5,-0.5,3,3,0.8,3,587,1,1,587,1,0,1,NaN,-0.906029863883414,-0.906029863883414,750,1,0,congruent,1,7709.86432230319,860.528522234119
14,104,1,24,-0.5,-0.5,-0.5,4,4,0.8,4,506,1,1,506,0,0,1.2,1,-1.55782619797396,-1.55782619797396,750,1,0,congruent,0,2846.64720939478,867.306211215473
14,104,1,25,-0.5,-0.5,-0.5,3,3,0.8,3,466,1,1,466,1,0,1,0.8,-1.87970093085818,-1.87970093085818,750,1,0,congruent,0.1,3206.44999026426,1059.10775627873
14,104,1,26,-0.5,-0.5,0.5,2,1,0.8,2,858,1,0,858,1,0,0.8,0.8,1.27467145140718,1.27467145140718,750,0,0,incongruent,0.1,1408.86176844661,871.007749929317
14,104,1,27,-0.5,0.5,-0.5,3,3,0.8,3,553,1,1,553,1,0,1,0.8,-1.179623386835,-1.179623386835,750,1,0,congruent,0.1,3446.35190615819,1100.70946190488
14,104,1,28,0.5,0.5,0.5,2,1,0.8,2,812,1,0,812,0,0,0.8,NaN,0.904515508590324,0.904515508590324,750,0,0,incongruent,0,1998.27251108016,3153.59812704759
14,104,1,29,0.5,-0.5,0.5,3,2,0.6,3,601,1,1,601,0,0,0.6,NaN,-0.793373707373937,-0.793373707373937,750,0,0,incongruent,0,506.884363368379,2455.53194066658
14,104,1,30,0.5,-0.5,-0.5,4,4,0.6,4,666,1,1,666,1,0,0.6,NaN,-0.270327266437079,-0.270327266437079,750,1,0,congruent,1,1236.5310509808,2444.70556940364
14,104,1,31,0.5,0.5,-0.5,2,2,0.6,2,859,1,0,859,0,0,0.8,NaN,1.28271831972928,1.28271831972928,750,1,0,congruent,0,623.529347562587,1337.23517973196
14,104,1,32,0.5,-0.5,0,3,NaN,0.4,3,557,1,1,557,0,0,0.6,NaN,-1.14743591354658,-1.14743591354658,750,0,0,neutral,0,2816.78292127538,7518.21125591282
14,104,1,33,-0.5,0.5,-0.5,4,4,0.4,4,593,1,1,593,1,0,0.4,0.8,-0.857748653950781,-0.857748653950781,750,1,0,congruent,0.1,3857.46272481604,3105.28730320097
14,104,1,34,0.5,0.5,-0.5,2,2,0.6,2,863,1,0,863,0,0,0.6,NaN,1.31490579301771,1.31490579301771,750,1,0,congruent,0,2649.4070960421,1536.08697143542
14,104,1,35,-0.5,-0.5,0,1,NaN,0.4,1,716,1,1,716,0,0,0.6,0.8,0.132016149668196,0.132016149668196,750,0,0,neutral,0,1381.19122222119,427.461672336907
14,104,1,36,-0.5,-0.5,-0.5,3,3,0.4,3,529,1,1,529,0,0,0.2,0.6,-1.37274822656553,-1.37274822656553,750,1,0,congruent,0,1635.89476481851,763.605213429456
14,104,1,37,-0.5,-0.5,0,4,NaN,0.4,4,518,1,1,518,1,0,0.2,0.4,-1.46126377810869,-1.46126377810869,750,0,0,neutral,0.1,655.496800594439,1010.652604501
14,104,1,38,0.5,0.5,-0.5,1,1,0.4,1,741,1,1,741,1,0,0.4,NaN,0.333187857720834,0.333187857720834,750,1,0,congruent,1,2084.30261666051,1416.12063730818
14,104,1,39,0.5,0.5,-0.5,3,3,0.4,3,530,1,1,530,1,0,0.6,NaN,-1.36470135824343,-1.36470135824343,750,1,0,congruent,1,1753.13383207682,1873.98022455789
14,104,1,40,-0.5,-0.5,0.5,1,4,0.6,1,692,1,1,692,1,0,1,0.6,-0.0611086900623361,-0.0611086900623361,750,0,0,incongruent,0.1,924.275686972243,1433.14049054557
14,104,1,41,-0.5,0.5,0,2,NaN,0.6,2,663,1,1,663,1,0,1.2,0.8,-0.294467871403396,-0.294467871403396,750,0,0,neutral,0.1,298.856682029295,2479.87185695335
14,104,1,42,0.5,-0.5,-0.5,4,4,0.8,4,887,1,0,887,0,0,1.4,NaN,1.50803063274824,1.50803063274824,750,1,0,congruent,0,4464.92067878208,769.9448349829
14,104,1,43,0.5,-0.5,-0.5,2,2,0.8,2,794,1,0,794,1,0,1.2,NaN,0.759671878792425,0.759671878792425,750,1,0,congruent,1,1606.00060165902,1152.91173403305
14,104,1,45,0.5,0.5,0,3,NaN,0.8,3,647,1,1,647,1,0,1.2,NaN,-0.423217764557084,-0.423217764557084,750,0,0,neutral,1,810.028381392211,2689.12526457889
14,104,1,46,0.5,-0.5,0.5,4,3,0.8,4,582,1,1,582,0,0,1.4,NaN,-0.946264205493942,-0.946264205493942,750,0,0,incongruent,0,4566.00604007662,2166.5738179925
14,104,1,47,0.5,-0.5,0,2,NaN,0.8,2,872,1,0,872,1,0,1.2,NaN,1.38732760791665,1.38732760791665,750,0,0,neutral,1,3544.64404960517,3477.90989876776
14,104,1,48,0.5,-0.5,0.5,1,2,0.8,1,665,1,1,665,1,0,1.6,NaN,-0.278374134759185,-0.278374134759185,750,0,0,incongruent,1,483.31701861182,1029.52171955492
14,104,1,49,0.5,-0.5,-0.5,4,4,0.8,4,431,1,1,431,1,0,1.6,NaN,-2.16134132213187,-2.16134132213187,750,1,0,congruent,1,792.166368906112,814.070460151385
14,104,1,50,-0.5,0.5,0,2,NaN,0.8,2,601,1,1,601,1,0,1.6,0.8,-0.793373707373937,-0.793373707373937,750,0,0,neutral,0.1,877.654772298678,375.911514255533
14,104,1,51,0.5,-0.5,-0.5,3,3,1,3,424,1,1,424,1,0,1.4,NaN,-2.21766940038661,-2.21766940038661,750,1,0,congruent,1,779.155759402876,1157.27204675145
14,104,1,52,0.5,-0.5,0.5,2,4,1,2,725,1,1,725,1,0,1.8,NaN,0.204437964567146,0.204437964567146,750,0,0,incongruent,1,1007.62193900473,1579.23517096626
14,104,1,53,-0.5,0.5,-0.5,1,1,1,1,580,1,1,580,1,0,1.8,0.8,-0.962357942138153,-0.962357942138153,750,1,0,congruent,0.1,1410.8232542372,1295.08030709535
14,104,1,54,-0.5,0.5,0,4,NaN,1,4,534,1,1,534,1,0,1.6,1,-1.33251388495501,-1.33251388495501,750,0,0,neutral,0.1,887.539754735837,1025.34937791862
14,104,1,55,0.5,0.5,-0.5,1,1,1,1,647,1,1,647,1,0,1.4,NaN,-0.423217764557084,-0.423217764557084,750,1,0,congruent,1,2165.80058640453,1618.10908310971
14,104,1,56,-0.5,0.5,0.5,4,3,1,4,549,1,1,549,1,0,1.6,1,-1.21181086012342,-1.21181086012342,750,0,0,incongruent,0.1,1589.12134041666,2903.30641758588
14,104,1,57,-0.5,-0.5,-0.5,2,2,1,2,656,1,1,656,1,0,1.4,0.6,-0.350795949658134,-0.350795949658134,750,1,0,congruent,0.1,1887.25467646373,1453.62730661478
14,104,1,58,0.5,0.5,-0.5,1,1,1,1,677,1,1,677,1,0,1.2,NaN,-0.181811714893919,-0.181811714893919,750,1,0,congruent,1,757.425732623515,2275.34806808268
14,104,1,59,-0.5,0.5,-0.5,4,4,1,4,634,1,1,634,1,0,1.4,1,-0.527827052744455,-0.527827052744455,750,1,0,congruent,0.1,654.285139364751,3619.72061217602
14,104,1,60,0.5,-0.5,-0.5,1,1,1,1,594,1,1,594,1,0,1.4,NaN,-0.849701785628676,-0.849701785628676,750,1,0,congruent,1,1202.35865387289,578.112428208851
14,104,1,61,0.5,-0.5,0.5,2,3,1,2,732,1,1,732,1,0,1.4,NaN,0.260766042821884,0.260766042821884,750,0,0,incongruent,1,659.679283551038,9469.78461609321
14,104,1,62,0.5,0.5,-0.5,1,1,1,1,628,1,1,628,1,0,1.6,NaN,-0.576108262677088,-0.576108262677088,750,1,0,congruent,1,4143.80613618382,2061.45107324796
14,104,1,63,-0.5,0.5,0,2,NaN,1,1,667,0,1,NaN,0,0,1.8,1,-0.262280398114974,NaN,750,0,1,neutral,0,2249.59704411833,1004.53701353503
14,104,1,64,-0.5,-0.5,-0.5,1,1,0.8,1,747,1,1,747,1,0,1.4,0.6,0.381469067653467,0.381469067653467,750,1,0,congruent,0.1,2675.5296440569,950.188619406335
14,104,1,65,0.5,0.5,-0.5,4,4,0.8,4,937,1,0,937,0,0,1.4,NaN,1.91037404885351,1.91037404885351,750,1,0,congruent,0,1469.73059754972,3832.45738528593
14,104,1,66,0.5,0.5,0.5,1,2,0.6,2,716,0,1,NaN,0,0,1,NaN,0.132016149668196,NaN,750,1,0,incongruent,0,1367.42219984376,1955.3862746398
14,104,1,67,-0.5,0.5,0.5,3,4,0.4,3,613,1,1,613,1,0,0.6,0.8,-0.696811287508671,-0.696811287508671,750,0,0,incongruent,0.1,1277.94188876845,1273.33155949092
14,104,1,68,0.5,-0.5,0,2,NaN,0.4,2,568,1,1,568,1,0,0.4,NaN,-1.05892036200342,-1.05892036200342,750,0,0,neutral,1,2020.8882543603,835.465409702294
14,104,1,69,-0.5,-0.5,0.5,4,3,0.4,4,644,1,1,644,0,0,0.8,0.8,-0.4473583695234,-0.4473583695234,750,0,0,incongruent,0,1080.42271305266,1092.01585106376
14,104,1,70,-0.5,-0.5,0,1,NaN,0.4,1,548,1,1,548,0,0,0.6,0.8,-1.21985772844553,-1.21985772844553,750,0,0,neutral,0,564.772452832626,1584.40364056754
14,104,1,71,-0.5,-0.5,0.5,2,1,0.4,2,746,1,1,746,1,0,0.6,0.6,0.373422199331361,0.373422199331361,750,0,0,incongruent,0.1,3029.33415217708,1461.93168915533
14,104,1,72,0.5,0.5,0,3,NaN,0.4,3,590,1,1,590,1,0,0.8,NaN,-0.881889258917098,-0.881889258917098,750,0,0,neutral,1,3048.51070515536,549.094295798389
14,104,1,73,-0.5,0.5,-0.5,4,4,0.4,4,888,1,0,888,0,0,1,0.8,1.51607750107034,1.51607750107034,750,1,0,congruent,0,343.229395819274,5606.96925187194
14,104,1,74,0.5,0.5,-0.5,2,2,0.4,2,849,1,0,849,0,0,0.6,NaN,1.20224963650823,1.20224963650823,750,1,0,congruent,0,4311.54378546477,5296.51720477987
14,104,1,75,0.5,-0.5,-0.5,4,4,0.4,4,887,1,0,887,0,0,0.6,NaN,1.50803063274824,1.50803063274824,750,1,0,congruent,0,556.560060786169,1400.12570996071
14,104,1,77,-0.5,0.5,-0.5,3,3,0.4,3,551,1,1,551,1,0,0.4,0.4,-1.19571712347921,-1.19571712347921,750,1,0,congruent,0.1,658.645147881273,692.112532067706
14,104,1,78,0.5,-0.5,0,1,NaN,0.4,1,523,1,1,523,0,0,0.2,NaN,-1.42102943649817,-1.42102943649817,750,0,0,neutral,0,604.453693467799,552.748647194381
14,104,1,79,-0.5,-0.5,-0.5,4,4,0.4,4,585,1,1,585,0,0,0.2,0.6,-0.922123600527625,-0.922123600527625,750,1,0,congruent,0,715.896496552993,832.671770835246
14,104,1,80,0.5,-0.5,0.5,1,3,0.4,1,576,1,1,576,0,0,0.2,NaN,-0.994545415426575,-0.994545415426575,750,0,0,incongruent,0,5966.34347905571,2105.17379905463
14,104,1,81,0.5,0.5,-0.5,2,2,0.4,2,517,1,1,517,1,0,0.2,NaN,-1.4693106464308,-1.4693106464308,750,1,0,congruent,1,530.722286226133,618.396094235706
14,104,1,82,0.5,-0.5,0,1,NaN,0.4,1,775,1,0,775,0,0,0.6,NaN,0.606781380672421,0.606781380672421,750,0,0,neutral,0,1739.23975575479,457.191997690676
14,104,1,83,0.5,-0.5,-0.5,2,2,0.4,2,575,1,1,575,0,0,0.4,NaN,-1.00259228374868,-1.00259228374868,750,1,0,congruent,0,3252.41439728172,984.233377810802
14,104,1,84,0.5,-0.5,-0.5,3,3,0.4,3,327,1,1,327,1,0,0.4,NaN,-2.99821562763085,-2.99821562763085,750,1,0,congruent,1,430.621891929919,303.334185779004
14,104,1,85,-0.5,-0.5,-0.5,1,1,0.4,1,430,1,1,430,0,0,0.8,0.4,-2.16938819045398,-2.16938819045398,750,1,0,congruent,0,546.109729757763,290.273986378516
14,104,1,86,0.5,0.5,0,2,NaN,0.4,2,591,1,1,591,1,0,0.8,NaN,-0.873842390594992,-0.873842390594992,750,0,0,neutral,1,1637.35745497235,1510.8333902835
14,104,1,87,0.5,-0.5,0.5,4,2,0.6,4,713,1,1,713,0,0,0.8,NaN,0.107875544701879,0.107875544701879,750,0,0,incongruent,0,3374.80329314918,2866.34479369729
14,104,1,88,-0.5,0.5,0,3,NaN,0.6,3,490,1,1,490,1,0,0.8,0.4,-1.68657609112765,-1.68657609112765,750,0,0,neutral,0.1,1100.64423673559,2159.45498855712
14,104,1,89,0.5,0.5,-0.5,2,2,0.8,2,475,1,1,475,1,0,1,NaN,-1.80727911595923,-1.80727911595923,750,1,0,congruent,1,1737.34601704972,1110.88047319829
14,104,1,90,0.5,-0.5,0.5,1,4,1,1,634,1,1,634,1,0,1,NaN,-0.527827052744455,-0.527827052744455,750,0,0,incongruent,1,8026.43589894218,5187.49669476806
14,104,1,91,0.5,0.5,0,3,NaN,1,3,543,1,1,543,1,0,1.4,NaN,-1.26009207005606,-1.26009207005606,750,0,0,neutral,1,2822.81248717829,1804.48106798406
14,104,1,92,-0.5,-0.5,-0.5,2,2,1,2,618,1,1,618,1,0,1.4,0.2,-0.656576945898143,-0.656576945898143,750,1,0,congruent,0.1,1431.42749128714,496.8997457967
14,104,1,93,-0.5,-0.5,0,4,NaN,1,4,636,1,1,636,1,0,1.6,0.4,-0.511733316100244,-0.511733316100244,750,0,0,neutral,0.1,669.941083310254,1526.1119512937
14,104,1,94,0.5,-0.5,-0.5,1,1,1,1,988,1,0,988,1,0,1.6,NaN,2.32076433328089,2.32076433328089,750,1,0,congruent,1,511.472005845004,3210.10774413798
14,104,1,95,-0.5,-0.5,0.5,4,2,1,4,636,1,1,636,1,0,1.6,0.6,-0.511733316100244,-0.511733316100244,750,0,0,incongruent,0.1,2186.24623387683,2756.01938248746
14,104,1,97,0.5,-0.5,-0.5,4,4,0.8,4,940,1,0,940,1,0,1,NaN,1.93451465381983,1.93451465381983,750,1,0,congruent,1,1356.18764464155,1091.88937479291
14,104,1,98,-0.5,-0.5,0,1,NaN,0.8,1,489,1,1,489,1,0,1.2,0.6,-1.69462295944975,-1.69462295944975,750,0,0,neutral,0.1,896.108945842511,2630.45870729764
14,104,1,99,-0.5,-0.5,-0.5,3,3,0.8,3,505,1,1,505,0,0,1.2,0.8,-1.56587306629607,-1.56587306629607,750,1,0,congruent,0,835.546522227222,267.63414339892
14,104,1,100,-0.5,0.5,0,2,NaN,0.8,2,545,1,1,545,1,0,0.8,0.6,-1.24399833341185,-1.24399833341185,750,0,0,neutral,0.1,913.269507280977,1505.93818120673
14,104,1,101,0.5,0.5,-0.5,4,4,0.8,4,590,1,1,590,1,0,0.8,NaN,-0.881889258917098,-0.881889258917098,750,1,0,congruent,1,4082.95518335573,1340.14153170638
14,104,1,102,0.5,0.5,0.5,3,1,0.8,3,668,1,1,668,1,0,1.2,NaN,-0.254233529792868,-0.254233529792868,750,0,0,incongruent,1,7347.88650875504,1759.75795969066
14,104,1,103,0.5,0.5,-0.5,2,2,0.8,2,614,1,1,614,1,0,1.2,NaN,-0.688764419186566,-0.688764419186566,750,1,0,congruent,1,640.730465272585,1158.09306152342
14,104,1,104,-0.5,0.5,0.5,1,3,0.8,1,510,1,1,510,1,0,1.4,0.6,-1.52563872468554,-1.52563872468554,750,0,0,incongruent,0.1,919.970181980978,1316.31125480674
14,104,1,105,0.5,0.5,-0.5,4,4,1,4,653,1,1,653,1,0,1.6,NaN,-0.374936554624451,-0.374936554624451,750,1,0,congruent,1,974.033379372471,2386.57217092631
14,104,1,106,0.5,-0.5,-0.5,3,3,1,3,469,1,1,469,1,0,1.8,NaN,-1.85556032589186,-1.85556032589186,750,1,0,congruent,1,1309.54376568444,259.063797801698
14,104,1,107,0.5,-0.5,-0.5,1,1,1,1,995,1,0,995,1,0,1.8,NaN,2.37709241153563,2.37709241153563,750,1,0,congruent,1,1033.75320782651,678.778947017915
14,104,1,108,0.5,-0.5,0,4,NaN,1,4,796,1,0,796,1,0,1.8,NaN,0.775765615436636,0.775765615436636,750,0,0,neutral,1,1571.82818426457,2467.18156182423
14,104,1,109,-0.5,0.5,-0.5,3,3,1,3,758,1,0,758,0,0,1.8,0.8,0.469984619196627,0.469984619196627,750,1,0,congruent,0,1586.60153778644,3006.16287957102
14,104,1,110,-0.5,0.5,0.5,1,4,0.8,1,667,1,1,667,1,0,1.6,0.8,-0.262280398114974,-0.262280398114974,750,0,0,incongruent,0.1,851.754424540044,1497.48746828073
14,104,1,111,-0.5,0.5,0,4,NaN,0.8,4,722,1,1,722,1,0,1.4,0.8,0.180297359600829,0.180297359600829,750,0,0,neutral,0.1,963.781424684494,1508.66738918716
14,104,1,112,-0.5,-0.5,-0.5,2,2,0.8,2,763,1,0,763,0,0,1.2,0.8,0.510218960807155,0.510218960807155,750,1,0,congruent,0,4875.54439226432,3455.40951441481
14,104,1,113,0.5,0.5,0.5,1,3,0.8,1,719,1,1,719,1,0,0.8,NaN,0.156156754634513,0.156156754634513,750,0,0,incongruent,1,1777.84345235082,768.835193914887
14,104,1,114,-0.5,-0.5,0.5,4,1,0.8,4,750,1,1,750,1,0,0.8,0.6,0.405609672619783,0.405609672619783,750,0,0,incongruent,0.1,1311.63092540976,252.94230163925
14,104,1,115,-0.5,0.5,-0.5,3,3,0.8,3,658,1,1,658,1,0,1,0.8,-0.334702213013923,-0.334702213013923,750,1,0,congruent,0.1,1553.93098899923,2670.34500055582
14,104,1,117,0.5,0.5,0,2,NaN,1,2,768,1,0,768,0,0,1.2,NaN,0.550453302417682,0.550453302417682,750,0,0,neutral,0,779.346964440962,623.938403474788
14,104,1,118,-0.5,0.5,0.5,4,3,0.8,4,766,1,0,766,0,0,1.2,0.8,0.534359565773471,0.534359565773471,750,0,0,incongruent,0,818.635836302557,2945.95184259132
14,104,1,119,-0.5,0.5,0.5,3,1,0.6,3,633,1,1,633,1,0,0.8,0.6,-0.535873921066561,-0.535873921066561,750,0,0,incongruent,0.1,837.57936758191,273.36252013144
14,104,1,120,-0.5,-0.5,0,1,NaN,0.6,1,739,1,1,739,1,0,0.8,0.6,0.317094121076623,0.317094121076623,750,0,0,neutral,0.1,1114.10457440035,1108.48468379442
14,104,1,123,-0.5,0.5,0.5,2,4,0.4,1,592,0,1,NaN,0,0,0.4,0.6,-0.865795522272887,NaN,750,0,1,incongruent,0,1762.19778933117,1771.10564266595
14,104,1,124,-0.5,-0.5,-0.5,1,1,0.2,1,670,1,1,670,0,0,0.4,0.6,-0.238139793148657,-0.238139793148657,750,1,0,congruent,0,3100.4872336854,899.342648428406
14,104,1,125,-0.5,0.5,0.5,2,4,0.2,2,617,1,1,617,1,0,0.2,0.4,-0.664623814220249,-0.664623814220249,750,0,0,incongruent,0.1,1415.5928837159,993.405971754249
14,104,1,126,0.5,-0.5,-0.5,3,3,0.4,3,803,1,0,803,1,0,0.2,NaN,0.832093693691375,0.832093693691375,750,1,0,congruent,1,3834.60886411132,621.276520903953
14,104,1,127,-0.5,-0.5,-0.5,1,1,0.4,1,547,1,1,547,0,0,0.6,0.4,-1.22790459676763,-1.22790459676763,750,1,0,congruent,0,6270.21570256983,2840.55848224334
14,104,1,128,-0.5,0.5,0,2,NaN,0.4,2,676,1,1,676,1,0,0.6,0.4,-0.189858583216024,-0.189858583216024,750,0,0,neutral,0.1,751.666963549606,792.837886426656
14,104,1,130,0.5,0.5,0,3,NaN,0.4,3,548,1,1,548,1,0,0.8,NaN,-1.21985772844553,-1.21985772844553,750,0,0,neutral,1,951.641919719134,793.865010190527
14,104,1,131,0.5,-0.5,0.5,4,2,0.6,4,593,1,1,593,1,0,1,NaN,-0.857748653950781,-0.857748653950781,750,0,0,incongruent,1,696.862373113811,1218.09639994655
14,104,1,132,-0.5,0.5,-0.5,1,1,0.6,1,657,1,1,657,1,0,1,0.6,-0.342749081336029,-0.342749081336029,750,1,0,congruent,0.1,2580.08900385021,1282.82052522839
14,104,1,133,0.5,-0.5,0,4,NaN,0.8,4,800,1,0,800,1,0,1.2,NaN,0.807953088725058,0.807953088725058,750,0,0,neutral,1,1585.82922986671,1416.2196732447
14,104,1,134,0.5,-0.5,0.5,2,1,0.8,2,649,1,1,649,1,0,1.4,NaN,-0.407124027912873,-0.407124027912873,750,0,0,incongruent,1,1066.23923310085,1108.59223424756
14,104,1,135,0.5,0.5,0,1,NaN,0.8,1,809,1,0,809,0,0,1.8,NaN,0.880374903624008,0.880374903624008,750,0,0,neutral,0,1075.45595903242,1650.82037714518
14,104,1,136,0.5,0.5,0.5,3,4,0.6,3,628,1,1,628,1,0,1.4,NaN,-0.576108262677088,-0.576108262677088,750,0,0,incongruent,1,1441.36778107377,1470.21792243494
14,104,1,138,0.5,-0.5,0.5,1,2,0.6,1,782,1,0,782,1,0,1.2,NaN,0.663109458927159,0.663109458927159,750,0,0,incongruent,1,8633.84474834151,1353.85584846817
14,104,1,139,0.5,0.5,0.5,3,1,0.6,3,599,1,1,599,1,0,1.2,NaN,-0.809467444018148,-0.809467444018148,750,0,0,incongruent,1,1844.27965929189,955.076034416796
14,104,1,140,0.5,-0.5,-0.5,2,2,0.6,2,577,1,1,577,1,0,1.2,NaN,-0.986498547104469,-0.986498547104469,750,1,0,congruent,1,5536.80321586312,2473.40579239279
14,104,1,141,0.5,0.5,0,4,NaN,0.6,3,798,0,0,NaN,0,0,1.6,NaN,0.791859352080847,NaN,750,0,1,neutral,0,3314.0951659601,1273.55953783262
14,104,1,142,-0.5,-0.5,-0.5,1,1,0.4,1,891,1,0,891,1,0,1.2,0.4,1.54021810603666,1.54021810603666,750,1,0,congruent,0.1,750.007999120787,958.09328173264
14,104,1,143,0.5,-0.5,0.5,4,3,0.4,4,834,1,0,834,1,0,1.4,NaN,1.08154661167665,1.08154661167665,750,0,0,incongruent,1,1801.40137034892,1047.8013702832
14,104,1,144,-0.5,0.5,-0.5,2,2,0.4,2,686,1,1,686,1,0,1.4,0.6,-0.109389899994969,-0.109389899994969,750,1,0,congruent,0.1,1235.74670484462,1815.7585621904
14,104,1,145,-0.5,-0.5,0.5,3,1,0.6,3,587,1,1,587,1,0,1.2,0.6,-0.906029863883414,-0.906029863883414,750,0,0,incongruent,0.1,1682.55006136193,1718.18608782969
14,104,1,146,-0.5,-0.5,0.5,4,3,0.6,4,715,1,1,715,1,0,1,0.6,0.12396928134609,0.12396928134609,750,0,0,incongruent,0.1,1710.42595813932,3840.70853361835
14,104,1,147,0.5,0.5,0,3,NaN,0.6,3,594,1,1,594,1,0,1.2,NaN,-0.849701785628676,-0.849701785628676,750,0,0,neutral,1,1318.20302252512,3115.83352750094
14,104,1,148,-0.5,0.5,0.5,1,4,0.6,1,871,1,0,871,0,0,1.4,0.8,1.37928073959455,1.37928073959455,750,0,0,incongruent,0,1795.41096179272,1525.94548438585
14,104,1,149,-0.5,-0.5,-0.5,2,2,0.6,2,706,1,1,706,1,0,1,0.6,0.0515474664471409,0.0515474664471409,750,1,0,congruent,0.1,2109.21348794043,983.889715677698
14,104,1,150,-0.5,-0.5,0.5,1,4,0.6,1,962,1,0,962,0,0,1,0.8,2.11154575690615,2.11154575690615,750,0,0,incongruent,0,871.298836352046,975.089246016248
14,104,2,151,-0.5,0.5,-0.5,3,3,0.6,3,653,1,1,653,1,0,0.8,0.6,-0.374936554624451,-0.374936554624451,750,1,0,congruent,0.1,936.742125251956,1344.8578149073
14,104,2,152,0.5,0.5,0,1,NaN,0.6,1,700,1,1,700,1,0,0.8,NaN,0.00326625651450791,0.00326625651450791,750,0,0,neutral,1,957.462287673835,472.191300885912
14,104,2,153,0.5,-0.5,-0.5,2,2,0.8,2,681,1,1,681,1,0,0.8,NaN,-0.149624241605497,-0.149624241605497,750,1,0,congruent,1,735.218383356156,1795.4917102366
14,104,2,154,-0.5,-0.5,0.5,1,4,0.8,1,653,1,1,653,0,0,1.2,0.8,-0.374936554624451,-0.374936554624451,750,0,0,incongruent,0,1145.51699785245,4011.614886665
14,104,2,155,-0.5,0.5,0.5,2,3,0.8,2,778,1,0,778,0,0,1,0.6,0.630921985638737,0.630921985638737,750,0,0,incongruent,0,2950.36990044376,1278.91378430395
14,104,2,156,0.5,0.5,-0.5,4,4,0.6,4,662,1,1,662,1,0,1,NaN,-0.302514739725501,-0.302514739725501,750,1,0,congruent,1,1853.5587428062,2398.73082079837
14,104,2,157,-0.5,0.5,-0.5,1,1,0.6,1,756,1,0,756,0,0,1.2,0.4,0.453890882552416,0.453890882552416,750,1,0,congruent,0,6027.38028333301,2072.05414017762
14,104,2,158,0.5,-0.5,0,4,NaN,0.6,4,816,1,0,816,1,0,0.8,NaN,0.936702981878746,0.936702981878746,750,0,0,neutral,1,746.497742938518,1063.35559172475
14,104,2,159,-0.5,0.5,-0.5,3,3,0.6,3,417,1,1,417,1,0,0.8,0.4,-2.27399747864135,-2.27399747864135,750,1,0,congruent,0.1,3433.5167199497,861.451618535606
14,104,2,160,-0.5,0.5,-0.5,4,4,0.6,4,650,1,1,650,1,0,1,0.4,-0.399077159590767,-0.399077159590767,750,1,0,congruent,0.1,2374.62364126051,1726.52489964855
14,104,2,161,0.5,-0.5,0.5,2,1,0.6,2,686,1,1,686,1,0,1.2,NaN,-0.109389899994969,-0.109389899994969,750,0,0,incongruent,1,4776.43515638018,1531.29333500246
14,104,2,162,-0.5,-0.5,0,4,NaN,0.6,4,763,1,0,763,0,0,1.2,0.6,0.510218960807155,0.510218960807155,750,0,0,neutral,0,1167.97226445059,3184.00267859621
14,104,2,164,-0.5,0.5,0,3,NaN,0.6,3,644,1,1,644,1,0,1,0.6,-0.4473583695234,-0.4473583695234,750,0,0,neutral,0.1,745.520609178608,1538.78310230297
14,104,2,165,0.5,0.5,-0.5,2,2,0.8,2,772,1,0,772,0,0,1,NaN,0.582640775706104,0.582640775706104,750,1,0,congruent,0,5487.23564872778,1394.14941819741
14,104,2,166,-0.5,0.5,0,3,NaN,0.6,3,677,1,1,677,1,0,0.8,0.6,-0.181811714893919,-0.181811714893919,750,0,0,neutral,0.1,1483.73270511887,513.150312427583
14,104,2,168,0.5,-0.5,0.5,1,2,0.8,1,740,1,1,740,0,0,0.6,NaN,0.325140989398728,0.325140989398728,750,0,0,incongruent,0,1478.63690814306,459.224111463764
14,104,2,169,0.5,0.5,-0.5,3,3,0.8,3,609,1,1,609,1,0,0.4,NaN,-0.728998760797093,-0.728998760797093,750,1,0,congruent,1,2649.11498604003,1545.38715174501
14,104,2,170,-0.5,-0.5,-0.5,2,2,0.8,2,702,1,1,702,1,0,0.6,0.4,0.0193599931587189,0.0193599931587189,750,1,0,congruent,0.1,2652.85742732219,1898.53118204664
14,104,2,171,-0.5,-0.5,0.5,1,4,0.8,1,882,1,0,882,1,0,0.8,0.4,1.46779629113771,1.46779629113771,750,0,0,incongruent,0.1,2519.7181049665,1274.61040664265
14,104,2,172,-0.5,0.5,0,3,NaN,0.8,3,714,1,1,714,1,0,0.8,0.8,0.115922413023985,0.115922413023985,750,0,0,neutral,0.1,2207.20459741475,1578.14758584624
14,104,2,173,-0.5,0.5,0.5,2,4,0.8,2,663,1,1,663,1,0,1,1,-0.294467871403396,-0.294467871403396,750,0,0,incongruent,0.1,792.199883796254,1119.53457817773
14,104,2,174,-0.5,0.5,-0.5,3,3,0.8,3,642,1,1,642,1,0,1.2,1,-0.463452106167611,-0.463452106167611,750,1,0,congruent,0.1,299.670922865646,743.1785851209
14,104,2,175,-0.5,0.5,0.5,1,2,1,1,763,1,0,763,0,0,1,1,0.510218960807155,0.510218960807155,750,0,0,incongruent,0,1574.72001506383,850.924760998793
14,104,2,176,-0.5,-0.5,0.5,3,1,0.8,3,617,1,1,617,0,0,0.8,0.6,-0.664623814220249,-0.664623814220249,750,0,0,incongruent,0,5265.17108942462,6982.65958318705
14,104,2,177,-0.5,0.5,-0.5,4,4,0.8,4,679,1,1,679,1,0,0.6,0.8,-0.165717978249708,-0.165717978249708,750,1,0,congruent,0.1,4349.00757252249,935.058236682946
14,104,2,178,0.5,0.5,0.5,1,2,0.8,1,961,1,0,961,0,0,0.6,NaN,2.10349888858404,2.10349888858404,750,0,0,incongruent,0,1945.06783745538,2625.0513219939
14,104,2,180,0.5,-0.5,0.5,4,2,0.4,4,818,1,0,818,0,0,0.2,NaN,0.952796718522957,0.952796718522957,750,0,0,incongruent,0,1570.83100907843,485.213549698721
14,104,2,181,-0.5,0.5,-0.5,1,1,0.4,1,700,1,1,700,1,0,0.2,0.8,0.00326625651450791,0.00326625651450791,750,1,0,congruent,0.1,2609.77592149483,1580.96107262943
14,104,2,182,-0.5,-0.5,0,4,NaN,0.4,4,636,1,1,636,0,0,0.4,0.6,-0.511733316100244,-0.511733316100244,750,0,0,neutral,0,4433.90711359749,875.418035855298
14,104,2,184,-0.5,-0.5,0.5,1,2,0.6,1,477,1,1,477,1,0,0.4,0.6,-1.79118537931502,-1.79118537931502,750,0,0,incongruent,0.1,2902.13350082309,1265.68906918244
14,104,2,185,0.5,0.5,0,2,NaN,0.6,2,670,1,1,670,1,0,0.6,NaN,-0.238139793148657,-0.238139793148657,750,0,0,neutral,1,1533.77748939313,2194.06419873556
14,104,2,186,0.5,-0.5,-0.5,1,1,0.6,1,623,1,1,623,1,0,1,NaN,-0.616342604287616,-0.616342604287616,750,1,0,congruent,1,400.409957293091,2358.30963354616
14,104,2,187,0.5,0.5,0.5,2,3,0.6,2,753,1,0,753,0,0,1.2,NaN,0.4297502775861,0.4297502775861,750,0,0,incongruent,0,2723.86240832504,2220.83976797402
14,104,2,188,0.5,0.5,0,4,NaN,0.6,4,783,1,0,783,0,0,1.2,NaN,0.671156327249265,0.671156327249265,750,0,0,neutral,0,1830.50080232715,2999.28164557339
14,104,2,189,0.5,0.5,0.5,2,4,0.6,2,771,1,0,771,0,0,1,NaN,0.574593907383999,0.574593907383999,750,0,0,incongruent,0,5036.6846488794,1039.58270697937
14,104,2,190,0.5,0.5,0.5,4,2,0.4,4,803,1,0,803,0,0,0.8,NaN,0.832093693691375,0.832093693691375,750,0,0,incongruent,0,1311.27286002556,1327.74801362159
14,104,2,191,0.5,-0.5,0,1,NaN,0.2,1,817,1,0,817,1,0,0.4,NaN,0.944749850200852,0.944749850200852,750,0,0,neutral,1,2213.56050608454,5142.35673592378
14,104,2,192,-0.5,-0.5,-0.5,4,4,0.2,4,863,1,0,863,0,0,0.4,0.6,1.31490579301771,1.31490579301771,750,1,0,congruent,0,1843.07536358854,1489.16833019714
14,104,2,194,0.5,0.5,-0.5,3,3,0,3,596,1,1,596,1,0,0.4,NaN,-0.833608048984465,-0.833608048984465,750,1,0,congruent,1,1130.0231056333,1071.12929391392
14,104,2,195,0.5,-0.5,0,1,NaN,0.2,1,655,1,1,655,0,0,0.8,NaN,-0.35884281798024,-0.35884281798024,750,0,0,neutral,0,3486.25763554368,2765.32562566694
14,104,2,196,-0.5,0.5,-0.5,3,3,0.2,3,495,1,1,495,1,0,0.8,0.6,-1.64634174951712,-1.64634174951712,750,1,0,congruent,0.1,2925.24215445458,1164.3448764578
14,104,2,197,-0.5,-0.5,0,1,NaN,0.4,1,613,1,1,613,0,0,0.6,0.4,-0.696811287508671,-0.696811287508671,750,0,0,neutral,0,1423.43553739472,1472.00038280287
14,104,2,198,0.5,0.5,-0.5,2,2,0.4,2,626,1,1,626,1,0,0.6,NaN,-0.592201999321299,-0.592201999321299,750,1,0,congruent,1,3031.63015550882,1361.20577780482
14,104,2,199,0.5,0.5,0,4,NaN,0.6,4,876,1,0,876,0,0,1,NaN,1.41951508120508,1.41951508120508,750,0,0,neutral,0,2130.1768287489,6798.81318965008
14,104,2,200,-0.5,-0.5,-0.5,1,1,0.6,1,867,1,0,867,0,0,0.6,0.2,1.34709326630613,1.34709326630613,750,1,0,congruent,0,6947.90452012012,6652.44271402064
14,104,2,201,-0.5,0.5,0.5,2,3,0.6,2,795,1,0,795,0,0,0.6,0.8,0.767718747114531,0.767718747114531,750,0,0,incongruent,0,6608.50450811244,9449.27965232005
14,104,2,202,-0.5,-0.5,0.5,1,4,0.6,1,759,1,0,759,1,0,0.4,0.2,0.478031487518733,0.478031487518733,750,0,0,incongruent,0.1,2963.29684133441,382.010431761319
14,104,2,203,0.5,-0.5,0.5,3,2,0.6,3,669,1,1,669,1,0,0.6,NaN,-0.246186661470763,-0.246186661470763,750,0,0,incongruent,1,5333.44834948187,1527.77509048397
14,104,2,204,0.5,-0.5,0.5,1,3,0.6,1,745,1,1,745,0,0,0.6,NaN,0.365375331009256,0.365375331009256,750,0,0,incongruent,0,2361.18224104198,717.98228858986
14,104,2,205,0.5,-0.5,-0.5,2,2,0.6,2,703,1,1,703,0,0,0.6,NaN,0.0274068614808244,0.0274068614808244,750,1,0,congruent,0,2764.33739006483,1160.75609743716
14,104,2,207,0.5,-0.5,0.5,4,2,0.4,4,939,1,0,939,0,0,0.6,NaN,1.92646778549772,1.92646778549772,750,0,0,incongruent,0,2176.78740943596,1686.10549509236
14,104,2,209,0.5,-0.5,-0.5,1,1,0.2,1,650,1,1,650,0,0,0,NaN,-0.399077159590767,-0.399077159590767,750,1,0,congruent,0,878.392935744347,429.677740780523
14,104,2,210,-0.5,0.5,0.5,4,3,0.2,4,707,1,1,707,1,0,0,0.4,0.0595943347692464,0.0595943347692464,750,0,0,incongruent,0.1,2035.19371653551,743.124637127054
14,104,2,212,-0.5,-0.5,-0.5,3,3,0.2,3,525,1,1,525,0,0,0.2,0.4,-1.40493569985396,-1.40493569985396,750,1,0,congruent,0,835.593850712575,6436.89632548133
14,104,2,213,-0.5,0.5,-0.5,4,4,0.2,4,629,1,1,629,1,0,0.2,0.4,-0.568061394354983,-0.568061394354983,750,1,0,congruent,0.1,811.410858104207,3294.77393169043
14,104,2,214,0.5,-0.5,0,1,NaN,0.4,3,938,0,0,NaN,1,0,0.4,NaN,1.91842091717562,NaN,750,0,1,neutral,1,915.312519108858,3480.46947368581
14,104,2,216,0.5,0.5,-0.5,2,2,0.4,2,897,1,0,897,0,0,0.6,NaN,1.58849931596929,1.58849931596929,750,1,0,congruent,0,4193.41847268391,1042.53660240836
14,104,2,217,0.5,-0.5,-0.5,1,1,0.4,1,739,1,1,739,0,0,0.6,NaN,0.317094121076623,0.317094121076623,750,1,0,congruent,0,822.043718126761,1031.4301471992
14,104,2,218,-0.5,0.5,0,3,NaN,0.4,3,676,1,1,676,1,0,0.6,0.4,-0.189858583216024,-0.189858583216024,750,0,0,neutral,0.1,5630.80190820108,4512.41913429519
14,104,2,221,0.5,0.5,-0.5,2,2,0.4,2,755,1,0,755,0,0,0.2,NaN,0.445844014230311,0.445844014230311,750,1,0,congruent,0,1875.33014062396,2365.85842402916
14,104,2,222,0.5,-0.5,0.5,4,3,0.4,4,993,1,0,993,1,0,0.2,NaN,2.36099867489142,2.36099867489142,750,0,0,incongruent,1,3999.33622024687,1798.5886604919
14,104,2,223,0.5,0.5,0,1,NaN,0.4,1,915,1,0,915,0,0,0.6,NaN,1.73334294576719,1.73334294576719,750,0,0,neutral,0,1528.44823781177,4842.65505157778
14,104,2,225,0.5,0.5,-0.5,4,4,0.2,4,738,1,1,738,1,0,0.4,NaN,0.309047252754517,0.309047252754517,750,1,0,congruent,1,2764.79531319236,1651.78895446007
14,104,2,226,0.5,-0.5,0,3,NaN,0.4,3,742,1,1,742,0,0,0.8,NaN,0.341234726042939,0.341234726042939,750,0,0,neutral,0,1062.92788198703,1683.02795377615
14,104,2,227,0.5,-0.5,0.5,2,3,0.4,2,757,1,0,757,0,0,0.8,NaN,0.461937750874522,0.461937750874522,750,0,0,incongruent,0,2961.17498477145,897.317685121436
14,104,2,229,-0.5,0.5,-0.5,2,2,0.4,2,607,1,1,607,1,0,0.6,0.6,-0.745092497441304,-0.745092497441304,750,1,0,congruent,0.1,2410.01589410187,783.170244367334
14,104,2,230,0.5,-0.5,0.5,1,3,0.6,1,706,1,1,706,0,0,0.8,NaN,0.0515474664471409,0.0515474664471409,750,0,0,incongruent,0,2896.76826915706,843.876343921383
14,104,2,232,0.5,-0.5,0.5,3,1,0.6,3,605,1,1,605,1,0,0.8,NaN,-0.761186234085515,-0.761186234085515,750,0,0,incongruent,1,379.257604385774,991.453230675914
14,104,2,233,0.5,0.5,0.5,2,3,0.6,2,604,1,1,604,1,0,1.2,NaN,-0.769233102407621,-0.769233102407621,750,0,0,incongruent,1,1255.08027813366,3293.97928894234
14,104,2,234,-0.5,0.5,0,3,NaN,0.8,3,624,1,1,624,1,0,1.4,0.8,-0.60829573596551,-0.60829573596551,750,0,0,neutral,0.1,2692.95222063364,1094.07301120167
14,104,2,235,0.5,-0.5,-0.5,1,1,1,1,767,1,0,767,1,0,1.4,NaN,0.542406434095577,0.542406434095577,750,1,0,congruent,1,866.509586600712,2655.93176534153
14,104,2,236,-0.5,-0.5,0,3,NaN,1,3,602,1,1,602,1,0,1.8,0.2,-0.785326839051832,-0.785326839051832,750,0,0,neutral,0.1,927.062342204687,782.817633941764
14,104,2,237,-0.5,0.5,-0.5,1,1,1,1,749,1,1,749,1,0,1.6,0.8,0.397562804297678,0.397562804297678,750,1,0,congruent,0.1,2548.42853194596,787.443617998265
14,104,2,238,-0.5,-0.5,0,2,NaN,1,2,717,1,1,717,1,0,1.4,0.4,0.140063017990301,0.140063017990301,750,0,0,neutral,0.1,2651.22582221998,1559.39679396379
14,104,2,239,0.5,-0.5,-0.5,4,4,1,4,749,1,1,749,1,0,1.2,NaN,0.397562804297678,0.397562804297678,750,1,0,congruent,1,1074.29709066658,442.452082655388
14,104,2,240,0.5,-0.5,0.5,3,2,1,3,644,1,1,644,1,0,1.4,NaN,-0.4473583695234,-0.4473583695234,750,0,0,incongruent,1,2497.60984578508,3481.57033627342
14,104,2,241,-0.5,-0.5,-0.5,1,1,1,1,767,1,0,767,1,0,1.4,0.4,0.542406434095577,0.542406434095577,750,1,0,congruent,0.1,7250.88817253805,2716.10448532253
14,104,2,242,0.5,-0.5,-0.5,4,4,1,4,684,1,1,684,1,0,1.4,NaN,-0.12548363663918,-0.12548363663918,750,1,0,congruent,1,6759.50959937503,3854.56402143544
14,104,2,243,-0.5,0.5,0,2,NaN,1,2,682,1,1,682,1,0,1.6,0.8,-0.141577373283391,-0.141577373283391,750,0,0,neutral,0.1,4009.14903834752,2517.87865194144
14,104,2,244,0.5,0.5,0.5,3,4,1,3,650,1,1,650,1,0,1.6,NaN,-0.399077159590767,-0.399077159590767,750,0,0,incongruent,1,1121.26765421559,1104.9964381655
14,104,2,245,-0.5,-0.5,-0.5,1,1,1,1,874,1,0,874,1,0,1.6,0.6,1.40342134456087,1.40342134456087,750,1,0,congruent,0.1,2039.3290946902,3218.57331651214
14,104,2,247,-0.5,0.5,-0.5,1,1,1,1,663,1,1,663,1,0,1.4,1,-0.294467871403396,-0.294467871403396,750,1,0,congruent,0.1,2217.53012439311,1997.4941416817
14,104,2,248,0.5,0.5,-0.5,4,4,1,4,610,1,1,610,1,0,1.2,NaN,-0.720951892474987,-0.720951892474987,750,1,0,congruent,1,542.57004469767,1352.93024091493
14,104,2,249,-0.5,0.5,0,2,NaN,1,2,659,1,1,659,1,0,1.4,1,-0.326655344691818,-0.326655344691818,750,0,0,neutral,0.1,2115.1902808155,2643.16647305593
14,104,2,250,0.5,0.5,0.5,1,2,1,1,896,1,0,896,0,0,1.2,NaN,1.58045244764719,1.58045244764719,750,0,0,incongruent,0,849.414673844761,2318.20668392237
14,104,2,252,-0.5,0.5,-0.5,4,4,0.8,4,610,1,1,610,1,0,1,1,-0.720951892474987,-0.720951892474987,750,1,0,congruent,0.1,1179.80184784405,1012.71393581745
14,104,2,253,-0.5,0.5,-0.5,1,1,0.8,1,690,1,1,690,1,0,1,1,-0.0772024267065471,-0.0772024267065471,750,1,0,congruent,0.1,1970.62423270091,2267.18609736527
14,104,2,254,0.5,0.5,0,2,NaN,0.8,2,662,1,1,662,1,0,0.8,NaN,-0.302514739725501,-0.302514739725501,750,0,0,neutral,1,887.364028017374,586.762247925793
14,104,2,255,-0.5,0.5,0.5,3,2,0.8,3,651,1,1,651,1,0,1,1,-0.391030291268662,-0.391030291268662,750,0,0,incongruent,0.1,1765.60364798898,865.163616457404
14,104,2,256,0.5,0.5,-0.5,4,4,0.8,4,826,1,0,826,0,0,1.2,NaN,1.0171716650998,1.0171716650998,750,1,0,congruent,0,1676.81436650004,7207.78337670222
14,104,2,257,-0.5,0.5,0,3,NaN,0.8,3,731,1,1,731,1,0,1,1,0.252719174499779,0.252719174499779,750,0,0,neutral,0.1,262.61159567315,760.880361529175
14,104,2,258,-0.5,-0.5,-0.5,4,4,0.8,4,915,1,0,915,0,0,1,1,1.73334294576719,1.73334294576719,750,1,0,congruent,0,4031.66027092123,1284.01338540254
14,104,2,259,0.5,-0.5,0.5,2,3,0.8,2,702,1,1,702,1,0,0.8,NaN,0.0193599931587189,0.0193599931587189,750,0,0,incongruent,1,2032.65430614635,944.220917311567
14,104,2,260,-0.5,0.5,0.5,3,1,0.8,3,633,1,1,633,1,0,0.8,1,-0.535873921066561,-0.535873921066561,750,0,0,incongruent,0.1,2955.65990366687,1142.93586399086
14,104,2,261,-0.5,-0.5,-0.5,2,2,0.8,2,790,1,0,790,1,0,0.8,0.8,0.727484405504003,0.727484405504003,750,1,0,congruent,0.1,586.014391186694,3007.35332373737
14,104,2,262,0.5,-0.5,-0.5,3,3,0.8,3,594,1,1,594,1,0,1,NaN,-0.849701785628676,-0.849701785628676,750,1,0,congruent,1,667.802324741585,1081.11142490235
14,104,2,264,-0.5,0.5,0.5,3,4,0.8,3,555,1,1,555,1,0,1.6,1,-1.16352965019079,-1.16352965019079,750,0,0,incongruent,0.1,1191.62084924489,3165.59091487348
14,104,2,266,0.5,-0.5,0.5,1,4,0.6,1,738,1,1,738,1,0,1.2,NaN,0.309047252754517,0.309047252754517,750,0,0,incongruent,1,740.952564571118,277.16104941594
14,104,2,267,0.5,0.5,0.5,4,3,0.6,4,849,1,0,849,0,0,1.4,NaN,1.20224963650823,1.20224963650823,750,0,0,incongruent,0,1809.09888088008,1718.49106564645
14,104,2,268,-0.5,-0.5,0,1,NaN,0.6,1,711,1,1,711,0,0,1,0.8,0.0917818080576685,0.0917818080576685,750,0,0,neutral,0,1306.27850559959,3392.34375793354
14,104,2,269,-0.5,-0.5,0.5,2,4,0.6,2,737,1,1,737,0,0,0.6,0.6,0.301000384432412,0.301000384432412,750,0,0,incongruent,0,2288.72872178408,1733.24685658988
14,104,2,271,-0.5,0.5,0.5,2,3,0.6,2,851,1,0,851,0,0,0.6,0.8,1.21834337315244,1.21834337315244,750,0,0,incongruent,0,1380.57865831785,925.65695305807
14,104,2,272,0.5,0.5,-0.5,1,1,0.4,1,847,1,0,847,0,0,0.2,NaN,1.18615589986402,1.18615589986402,750,1,0,congruent,0,3683.50096717246,1354.53094215832
14,104,2,273,0.5,-0.5,0.5,4,3,0.2,4,771,1,0,771,1,0,0.2,NaN,0.574593907383999,0.574593907383999,750,0,0,incongruent,1,1747.65351442887,3790.91496288374
14,104,2,275,0.5,-0.5,0.5,4,2,0,4,601,1,1,601,0,0,0.6,NaN,-0.793373707373937,-0.793373707373937,750,0,0,incongruent,0,3103.13238494954,3505.89165644972
14,104,2,276,0.5,-0.5,-0.5,1,1,0,1,581,1,1,581,0,0,0.4,NaN,-0.954311073816047,-0.954311073816047,750,1,0,congruent,0,2064.58968812981,678.670542825727
14,104,2,277,-0.5,0.5,0.5,4,2,0,3,828,0,0,NaN,0,0,0.4,0.4,1.03326540174401,NaN,750,0,1,incongruent,0,2170.81994445677,1221.49819137607
14,104,2,278,-0.5,0.5,0.5,3,1,0,3,641,1,1,641,1,0,0.4,0.2,-0.471498974489717,-0.471498974489717,750,0,0,incongruent,0.1,4053.65490968907,2577.09515954205
14,104,2,279,0.5,-0.5,0,1,NaN,0.2,1,795,1,0,795,1,0,0.2,NaN,0.767718747114531,0.767718747114531,750,0,0,neutral,1,1288.07944129838,2123.48326650156
14,104,2,280,0.5,0.5,-0.5,2,2,0.2,2,759,1,0,759,0,0,0.6,NaN,0.478031487518733,0.478031487518733,750,1,0,congruent,0,636.754171910873,492.902472513044
14,104,2,281,0.5,0.5,0.5,4,3,0.2,4,719,1,1,719,1,0,0.6,NaN,0.156156754634513,0.156156754634513,750,0,0,incongruent,1,4513.22476343572,1554.99193506268
14,104,2,282,0.5,0.5,0.5,3,1,0.4,3,655,1,1,655,1,0,1,NaN,-0.35884281798024,-0.35884281798024,750,0,0,incongruent,1,3184.50259683561,4050.5047497183
14,104,2,283,0.5,0.5,-0.5,4,4,0.6,3,601,0,1,NaN,0,0,1.4,NaN,-0.793373707373937,NaN,750,0,1,congruent,0,1873.32598884243,1549.53783890535
14,104,2,284,-0.5,0.5,0.5,2,3,0.6,2,816,1,0,816,0,0,1.2,0.2,0.936702981878746,0.936702981878746,750,0,0,incongruent,0,2916.18703403346,2479.50728547567
14,104,2,285,0.5,0.5,-0.5,4,4,0.4,4,785,1,0,785,0,0,0.8,NaN,0.687250063893476,0.687250063893476,750,1,0,congruent,0,1030.14254354027,4696.06475124165
14,104,2,286,-0.5,0.5,0.5,1,2,0.4,1,598,1,1,598,1,0,0.8,0.2,-0.817514312340254,-0.817514312340254,750,0,0,incongruent,0.1,1559.09640487824,977.752524667236
14,104,2,287,-0.5,0.5,0.5,4,3,0.4,4,646,1,1,646,1,0,0.6,0.4,-0.431264632879189,-0.431264632879189,750,0,0,incongruent,0.1,777.193181341186,2809.85462380573
14,104,2,288,0.5,-0.5,0,1,NaN,0.4,1,832,1,0,832,1,0,0.4,NaN,1.06545287503243,1.06545287503243,750,0,0,neutral,1,479.459793122289,3728.44225713209
14,104,2,289,-0.5,0.5,-0.5,3,3,0.4,3,639,1,1,639,1,0,0.8,0.6,-0.487592711133928,-0.487592711133928,750,1,0,congruent,0.1,530.891979773571,2853.3391895604
14,104,2,290,-0.5,-0.5,0,1,NaN,0.6,1,882,1,0,882,1,0,1,0.4,1.46779629113771,1.46779629113771,750,0,0,neutral,0.1,2757.46236454015,3282.46318474532
14,104,2,291,-0.5,-0.5,0.5,4,1,0.6,4,731,1,1,731,0,0,1.2,0.6,0.252719174499779,0.252719174499779,750,0,0,incongruent,0,4897.03454266107,865.667418943927
14,104,2,293,-0.5,0.5,0.5,3,2,0.6,3,556,1,1,556,1,0,1,0.8,-1.15548278186868,-1.15548278186868,750,0,0,incongruent,0.1,1184.62154695458,2104.29296312566
14,104,2,294,0.5,0.5,0.5,4,1,0.8,4,643,1,1,643,1,0,0.8,NaN,-0.455405237845506,-0.455405237845506,750,0,0,incongruent,1,1503.09895273471,1136.31969798123
14,104,2,295,-0.5,0.5,-0.5,3,3,1,3,615,1,1,615,1,0,1,0.8,-0.68071755086446,-0.68071755086446,750,1,0,congruent,0.1,2030.54271625039,1483.88211593568
14,104,2,298,-0.5,0.5,0,2,NaN,1,2,649,1,1,649,1,0,1.4,1,-0.407124027912873,-0.407124027912873,750,0,0,neutral,0.1,3526.0010390468,3163.90483470576
14,104,2,299,-0.5,-0.5,-0.5,3,3,1,3,641,1,1,641,1,0,1.4,0.8,-0.471498974489717,-0.471498974489717,750,1,0,congruent,0.1,1817.93584989335,1277.34899038308
14,104,2,300,-0.5,0.5,0,1,NaN,1,1,496,1,1,496,1,0,1.2,1,-1.63829488119501,-1.63829488119501,750,0,0,neutral,0.1,1696.01784673009,507.011259823538
14,104,3,301,-0.5,0.5,-0.5,3,3,1,3,936,1,0,936,0,0,1.2,1,1.90232718053141,1.90232718053141,750,1,0,congruent,0,1319.34180379239,4903.71025714189
14,104,3,302,-0.5,-0.5,0.5,4,2,0.8,4,784,1,0,784,1,0,1,0.8,0.67920319557137,0.67920319557137,750,0,0,incongruent,0.1,2477.15383633998,2907.97769811225
14,104,3,304,0.5,0.5,-0.5,4,4,0.8,4,718,1,1,718,1,0,0.8,NaN,0.148109886312407,0.148109886312407,750,1,0,congruent,1,731.372328695328,550.274711751773
14,104,3,305,0.5,0.5,0,3,NaN,0.8,3,603,1,1,603,1,0,1,NaN,-0.777279970729726,-0.777279970729726,750,0,0,neutral,1,1249.14978700619,902.468770424696
14,104,3,306,0.5,-0.5,0.5,4,3,0.8,4,499,1,1,499,1,0,1.2,NaN,-1.6141542762287,-1.6141542762287,750,0,0,incongruent,1,1593.74826197892,636.975028728546
14,104,3,307,-0.5,-0.5,0.5,3,1,0.8,3,482,1,1,482,1,0,1.6,1,-1.75095103770449,-1.75095103770449,750,0,0,incongruent,0.1,841.604277132806,1761.29835591318
14,104,3,308,0.5,-0.5,-0.5,4,4,0.8,4,543,1,1,543,1,0,1.6,NaN,-1.26009207005606,-1.26009207005606,750,1,0,congruent,1,3442.00530866022,1101.76409872904
14,104,3,309,0.5,0.5,-0.5,1,1,0.8,1,900,1,0,900,0,0,1.8,NaN,1.61263992093561,1.61263992093561,750,1,0,congruent,0,4295.81998480885,2219.36359420463
14,104,3,310,-0.5,-0.5,0.5,2,4,0.6,2,604,1,1,604,0,0,1.4,1,-0.769233102407621,-0.769233102407621,750,0,0,incongruent,0,6673.80305100553,1572.72820637619
14,104,3,311,-0.5,0.5,-0.5,3,3,0.6,3,578,1,1,578,1,0,1,0.8,-0.978451678782364,-0.978451678782364,750,1,0,congruent,0.1,790.934417656009,766.629548497978
14,104,3,312,0.5,-0.5,0,1,NaN,0.6,1,703,1,1,703,0,0,0.8,NaN,0.0274068614808244,0.0274068614808244,750,0,0,neutral,0,1778.32060018367,4353.88940189478
14,104,3,313,0.5,0.5,-0.5,4,4,0.6,4,652,1,1,652,1,0,0.6,NaN,-0.382983422946556,-0.382983422946556,750,1,0,congruent,1,725.951207471082,2282.23456046154
14,104,3,314,0.5,-0.5,0,3,NaN,0.8,3,586,1,1,586,0,0,0.6,NaN,-0.91407673220552,-0.91407673220552,750,0,0,neutral,0,483.654801457288,2397.88341906117
14,104,3,315,-0.5,-0.5,0.5,2,3,0.8,2,898,1,0,898,0,0,0.6,0.8,1.5965461842914,1.5965461842914,750,0,0,incongruent,0,1345.53669252286,3034.37688296043
14,104,3,316,-0.5,-0.5,0,4,NaN,0.8,4,869,1,0,869,1,0,0.6,0.6,1.36318700295034,1.36318700295034,750,0,0,neutral,0.1,2167.25496224711,5128.70280078178
14,104,3,317,-0.5,0.5,-0.5,1,1,0.8,1,659,1,1,659,1,0,0.6,0.8,-0.326655344691818,-0.326655344691818,750,1,0,congruent,0.1,3444.55314120245,2687.18881674552
14,104,3,318,-0.5,0.5,-0.5,3,3,0.8,3,539,1,1,539,1,0,0.8,0.8,-1.29227954334448,-1.29227954334448,750,1,0,congruent,0.1,958.768550599058,1167.59624147163
14,104,3,319,0.5,-0.5,0.5,1,2,0.8,1,683,1,1,683,1,0,0.6,NaN,-0.133530504961286,-0.133530504961286,750,0,0,incongruent,1,2639.30136888215,2439.38472588441
14,104,3,320,-0.5,0.5,-0.5,4,4,0.8,4,540,1,1,540,1,0,1,0.8,-1.28423267502237,-1.28423267502237,750,1,0,congruent,0.1,510.601536334186,628.618780137076
14,104,3,321,0.5,0.5,-0.5,2,2,1,2,671,1,1,671,1,0,1.2,NaN,-0.230092924826552,-0.230092924826552,750,1,0,congruent,1,3036.46561778011,3376.38642164531
14,104,3,322,0.5,-0.5,0,1,NaN,1,1,916,1,0,916,1,0,1.4,NaN,1.7413898140893,1.7413898140893,750,0,0,neutral,1,1662.48163470637,3424.6948733355
14,104,3,323,-0.5,0.5,-0.5,2,2,1,2,662,1,1,662,1,0,1.6,0.8,-0.302514739725501,-0.302514739725501,750,1,0,congruent,0.1,941.902267481288,1216.47898019167
14,104,3,324,0.5,0.5,0.5,1,3,1,3,761,0,0,NaN,0,0,1.6,NaN,0.494125224162944,NaN,750,1,0,incongruent,0,2010.67064885479,820.93694869728
14,104,3,325,-0.5,0.5,0.5,3,2,0.8,3,596,1,1,596,1,0,1.2,1,-0.833608048984465,-0.833608048984465,750,0,0,incongruent,0.1,2409.47684388307,786.327668579204
14,104,3,326,-0.5,0.5,-0.5,4,4,0.8,4,739,1,1,739,1,0,1.2,1,0.317094121076623,0.317094121076623,750,1,0,congruent,0.1,1278.27162935683,1311.26186541492
14,104,3,327,0.5,0.5,0,3,NaN,0.8,3,689,1,1,689,1,0,1,NaN,-0.0852492950286526,-0.0852492950286526,750,0,0,neutral,1,1284.85255631209,3104.89127049148
14,104,3,329,-0.5,-0.5,0,3,NaN,0.6,3,519,1,1,519,1,0,0.8,0.6,-1.45321690978659,-1.45321690978659,750,0,0,neutral,0.1,3604.77693099045,3882.35241827487
14,104,3,330,0.5,-0.5,0.5,2,4,0.6,2,660,1,1,660,0,0,1,NaN,-0.318608476369712,-0.318608476369712,750,0,0,incongruent,0,5319.00399498488,3939.59740186551
14,104,3,331,0.5,0.5,0,4,NaN,0.6,4,828,1,0,828,0,0,0.8,NaN,1.03326540174401,1.03326540174401,750,0,0,neutral,0,1401.29853083233,2542.09946213338
14,104,3,332,-0.5,-0.5,0.5,3,4,0.6,3,599,1,1,599,0,0,0.6,0.6,-0.809467444018148,-0.809467444018148,750,0,0,incongruent,0,1580.82658542063,1422.16122614269
14,104,3,333,0.5,0.5,0.5,2,3,0.6,1,958,0,0,NaN,0,0,0.2,NaN,2.07935828361773,NaN,750,0,1,incongruent,0,2184.10932856115,4238.48365352245
14,104,3,334,-0.5,0.5,-0.5,1,1,0.4,1,638,1,1,638,1,0,0.2,1,-0.495639579456033,-0.495639579456033,750,1,0,congruent,0.1,9275.13176514899,3867.66688272491
14,104,3,335,0.5,0.5,-0.5,2,2,0.4,2,621,1,1,621,1,0,0.2,NaN,-0.632436340931827,-0.632436340931827,750,1,0,congruent,1,5601.44844816195,2182.78056222033
14,104,3,337,-0.5,0.5,-0.5,3,3,0.4,3,582,1,1,582,1,0,1,1,-0.946264205493942,-0.946264205493942,750,1,0,congruent,0.1,3142.51145970811,644.488152563455
14,104,3,338,0.5,-0.5,0,4,NaN,0.6,4,627,1,1,627,1,0,1.2,NaN,-0.584155130999194,-0.584155130999194,750,0,0,neutral,1,3767.44263308026,2297.55119032551
14,104,3,339,-0.5,0.5,0.5,2,4,0.6,3,956,0,0,NaN,0,0,1.6,1,2.06326454697352,NaN,750,0,1,incongruent,0,1572.8898941955,1983.17166850747
14,104,3,340,0.5,0.5,-0.5,1,1,0.6,1,596,1,1,596,1,0,1.4,NaN,-0.833608048984465,-0.833608048984465,750,1,0,congruent,1,1517.33430041125,2204.63455581713
14,104,3,341,-0.5,-0.5,0.5,3,4,0.8,3,633,1,1,633,0,0,1.4,0.4,-0.535873921066561,-0.535873921066561,750,0,0,incongruent,0,3720.76777467373,204.948418316187
14,104,3,342,-0.5,0.5,0,4,NaN,0.8,4,480,1,1,480,1,0,1,0.8,-1.7670447743487,-1.7670447743487,750,0,0,neutral,0.1,1996.38215122123,2421.42242125462
14,104,3,343,-0.5,0.5,-0.5,1,1,0.8,1,421,1,1,421,1,0,1,0.8,-2.24181000535293,-2.24181000535293,750,1,0,congruent,0.1,1220.55029728707,2361.02003656933
14,104,3,344,0.5,0.5,-0.5,3,3,0.8,3,816,1,0,816,0,0,0.8,NaN,0.936702981878746,0.936702981878746,750,1,0,congruent,0,2779.36911975201,460.94135028926
14,104,3,345,-0.5,-0.5,0.5,1,4,0.6,4,711,0,1,NaN,0,0,0.8,0.4,0.0917818080576685,NaN,750,1,0,incongruent,0,594.103671263627,1961.40751004048
14,104,3,346,-0.5,0.5,-0.5,3,3,0.6,3,564,1,1,564,1,0,0.4,0.8,-1.09110783529184,-1.09110783529184,750,1,0,congruent,0.1,1325.44681138915,2407.6291945453
14,104,3,347,0.5,-0.5,-0.5,1,1,0.8,1,739,1,1,739,1,0,0.6,NaN,0.317094121076623,0.317094121076623,750,1,0,congruent,1,1568.44722856317,2176.15253151029
14,104,3,348,-0.5,-0.5,-0.5,4,4,0.8,3,598,0,1,NaN,1,0,0.8,0.4,-0.817514312340254,NaN,750,0,1,congruent,0.1,3485.61792223025,613.99826649437
14,104,3,349,0.5,0.5,-0.5,1,1,0.8,1,698,1,1,698,1,0,0.8,NaN,-0.0128274801297031,-0.0128274801297031,750,1,0,congruent,1,2996.45820124171,1734.28169118379
14,104,3,350,-0.5,-0.5,0.5,4,2,0.8,4,810,1,0,810,0,0,1.2,0.4,0.888421771946113,0.888421771946113,750,0,0,incongruent,0,1767.72197747134,5540.58056048584
14,104,3,352,-0.5,0.5,0.5,4,2,0.8,4,685,1,1,685,1,0,1.4,0.8,-0.117436768317075,-0.117436768317075,750,0,0,incongruent,0.1,2022.87506368443,3145.38141751267
14,104,3,353,0.5,0.5,-0.5,3,3,0.8,3,598,1,1,598,1,0,1.2,NaN,-0.817514312340254,-0.817514312340254,750,1,0,congruent,1,19065.9273810153,3522.44576201066
14,104,3,355,0.5,0.5,-0.5,1,1,0.8,1,883,1,0,883,0,0,1.4,NaN,1.47584315945982,1.47584315945982,750,1,0,congruent,0,856.02512545971,1062.02416442074
14,104,3,357,-0.5,0.5,0.5,3,1,0.8,3,790,1,0,790,0,0,1.4,0.8,0.727484405504003,0.727484405504003,750,0,0,incongruent,0,1575.50317827655,1378.65639460492
14,104,3,358,0.5,0.5,0.5,1,4,0.6,1,833,1,0,833,0,0,1.2,NaN,1.07349974335454,1.07349974335454,750,0,0,incongruent,0,3205.45534442625,1644.21273188012
14,104,3,359,-0.5,-0.5,-0.5,2,2,0.4,2,733,1,1,733,1,0,0.8,0.2,0.26881291114399,0.26881291114399,750,1,0,congruent,0.1,942.000352372906,6897.43482747982
14,104,3,360,-0.5,-0.5,0.5,1,4,0.4,1,750,1,1,750,1,0,0.6,0.4,0.405609672619783,0.405609672619783,750,0,0,incongruent,0.1,3021.30770765326,1916.44545563974
14,104,3,361,-0.5,-0.5,0,2,NaN,0.4,2,882,1,0,882,1,0,0.8,0.6,1.46779629113771,1.46779629113771,750,0,0,neutral,0.1,2428.93853943649,1207.58629666828
14,104,3,362,0.5,0.5,0.5,1,3,0.4,1,747,1,1,747,1,0,0.6,NaN,0.381469067653467,0.381469067653467,750,0,0,incongruent,1,3096.9586368078,6246.26293648993
14,104,3,364,-0.5,-0.5,0,4,NaN,0.2,4,983,1,0,983,1,0,1,0.8,2.28052999167037,2.28052999167037,750,0,0,neutral,0.1,1589.74027074548,1437.9316081514
14,104,3,365,0.5,0.5,-0.5,1,1,0.2,1,960,1,0,960,0,0,1,NaN,2.09545202026194,2.09545202026194,750,1,0,congruent,0,1104.89645675802,1236.48944424742
14,104,3,366,-0.5,0.5,-0.5,4,4,0.2,4,658,1,1,658,1,0,0.8,0.8,-0.334702213013923,-0.334702213013923,750,1,0,congruent,0.1,6763.56157071701,2365.12319258389
14,104,3,367,0.5,0.5,-0.5,2,2,0.4,2,721,1,1,721,1,0,0.8,NaN,0.172250491278723,0.172250491278723,750,1,0,congruent,1,502.93082722155,1365.80589780917
14,104,3,368,-0.5,-0.5,0.5,4,1,0.6,4,836,1,0,836,1,0,0.8,0.8,1.09764034832086,1.09764034832086,750,0,0,incongruent,0.1,1046.17443099076,1060.63735405684
14,104,3,369,-0.5,0.5,-0.5,3,3,0.6,3,572,1,1,572,1,0,1,0.8,-1.026732888715,-1.026732888715,750,1,0,congruent,0.1,1353.16967931835,5322.19778469586
14,104,3,370,0.5,-0.5,0.5,2,1,0.6,2,837,1,0,837,0,0,1,NaN,1.10568721664296,1.10568721664296,750,0,0,incongruent,0,979.40234221124,1828.23147243224
14,104,3,371,0.5,0.5,-0.5,3,3,0.6,3,704,1,1,704,1,0,1,NaN,0.0354537298029299,0.0354537298029299,750,1,0,congruent,1,2520.9473107464,773.649137995208
14,104,3,372,0.5,-0.5,-0.5,1,1,0.8,1,935,1,0,935,1,0,1.2,NaN,1.8942803122093,1.8942803122093,750,1,0,congruent,1,3362.68867122729,1234.68596936865
14,104,3,373,0.5,0.5,0,2,NaN,0.8,2,811,1,0,811,0,0,1.2,NaN,0.896468640268219,0.896468640268219,750,0,0,neutral,0,1468.74037577706,1433.48099697833
14,104,3,375,-0.5,0.5,-0.5,1,1,0.8,1,724,1,1,724,1,0,1.2,0.8,0.19639109624504,0.19639109624504,750,1,0,congruent,0.1,2308.07707781194,1177.77747084269
14,104,3,376,0.5,0.5,0,3,NaN,0.8,3,813,1,0,813,0,0,1.4,NaN,0.91256237691243,0.91256237691243,750,0,0,neutral,0,1185.87334500832,1461.10110404593
14,104,3,377,-0.5,-0.5,-0.5,4,4,0.6,4,351,1,1,351,1,0,1,1,-2.80509078790031,-2.80509078790031,750,1,0,congruent,0.1,2027.40472877692,779.434910052839
14,104,3,378,-0.5,-0.5,0,2,NaN,0.6,2,711,1,1,711,0,0,0.8,1,0.0917818080576685,0.0917818080576685,750,0,0,neutral,0,1592.1390302583,2628.59996955351
14,104,3,379,0.5,-0.5,-0.5,3,3,0.6,3,553,1,1,553,0,0,0.8,NaN,-1.179623386835,-1.179623386835,750,1,0,congruent,0,3775.9133797589,8913.97481927806
14,104,3,380,0.5,0.5,0.5,4,1,0.6,4,754,1,0,754,0,0,0.4,NaN,0.437797145908205,0.437797145908205,750,0,0,incongruent,0,1921.85731285659,459.762423657187
14,104,3,381,-0.5,-0.5,0,2,NaN,0.4,2,635,1,1,635,0,0,0.2,0.8,-0.51978018442235,-0.51978018442235,750,0,0,neutral,0,906.713736028555,1005.7031594032
14,104,3,382,-0.5,-0.5,-0.5,1,1,0.4,1,548,1,1,548,0,0,0.2,0.6,-1.21985772844553,-1.21985772844553,750,1,0,congruent,0,4350.42631246503,943.74787140306
14,104,3,383,-0.5,0.5,0,4,NaN,0.4,4,557,1,1,557,1,0,0,0.8,-1.14743591354658,-1.14743591354658,750,0,0,neutral,0.1,1777.22909789838,879.658582135108
14,104,3,385,0.5,0.5,0,2,NaN,0.4,2,676,1,1,676,1,0,0.2,NaN,-0.189858583216024,-0.189858583216024,750,0,0,neutral,1,4509.7600336652,6187.54369708029
14,104,3,386,-0.5,0.5,0.5,3,1,0.4,3,796,1,0,796,0,0,0.6,0.8,0.775765615436636,0.775765615436636,750,0,0,incongruent,0,9530.23128243954,1203.85929127078
14,104,3,387,-0.5,0.5,-0.5,4,4,0.4,4,551,1,1,551,1,0,0.6,0.6,-1.19571712347921,-1.19571712347921,750,1,0,congruent,0.1,4948.39519197377,962.466012625314
14,104,3,388,0.5,-0.5,0.5,2,3,0.6,2,691,1,1,691,1,0,0.8,NaN,-0.0691555583844416,-0.0691555583844416,750,0,0,incongruent,1,8723.91125962461,11551.6953666991
14,104,3,389,-0.5,-0.5,0.5,4,2,0.6,4,664,1,1,664,1,0,1,0.4,-0.28642100308129,-0.28642100308129,750,0,0,incongruent,0.1,2348.21781798468,1427.08055173239
14,104,3,390,-0.5,0.5,0,3,NaN,0.6,3,619,1,1,619,1,0,1.2,0.6,-0.648530077576038,-0.648530077576038,750,0,0,neutral,0.1,1847.07286707498,2581.61377506824
14,104,3,391,-0.5,0.5,-0.5,4,4,0.6,4,609,1,1,609,1,0,1,0.6,-0.728998760797093,-0.728998760797093,750,1,0,congruent,0.1,1735.83476285893,961.737857720322
14,104,3,392,0.5,0.5,0,2,NaN,0.8,2,635,1,1,635,1,0,1.2,NaN,-0.51978018442235,-0.51978018442235,750,0,0,neutral,1,1651.97049410103,4277.08155897082
14,104,3,393,-0.5,0.5,0.5,4,1,0.8,4,665,1,1,665,1,0,1.4,0.6,-0.278374134759185,-0.278374134759185,750,0,0,incongruent,0.1,433.370935823731,1035.28193062203
14,104,3,394,-0.5,-0.5,0,1,NaN,1,1,855,1,0,855,1,0,1.2,0.4,1.25053084644086,1.25053084644086,750,0,0,neutral,0.1,322.247441943329,1240.53882970652
14,104,3,395,0.5,0.5,-0.5,2,2,1,2,623,1,1,623,1,0,1.2,NaN,-0.616342604287616,-0.616342604287616,750,1,0,congruent,1,932.360030207756,7423.53671290072
14,104,3,397,0.5,-0.5,0.5,3,1,1,3,897,1,0,897,1,0,1.4,NaN,1.58849931596929,1.58849931596929,750,0,0,incongruent,1,758.316117839212,1255.80404729843
14,104,3,399,0.5,-0.5,-0.5,3,3,0.8,3,791,1,0,791,1,0,1.2,NaN,0.735531273826109,0.735531273826109,750,1,0,congruent,1,2241.13323269484,1072.74380661371
14,104,3,402,0.5,-0.5,0.5,2,4,0.6,2,761,1,0,761,1,0,1.2,NaN,0.494125224162944,0.494125224162944,750,0,0,incongruent,1,7358.18023499193,4835.67554250047
14,104,3,403,0.5,-0.5,0,4,NaN,0.6,4,961,1,0,961,1,0,1.2,NaN,2.10349888858404,2.10349888858404,750,0,0,neutral,1,2162.78170534097,2767.79829741342
14,104,3,404,-0.5,0.5,-0.5,1,1,0.6,1,621,1,1,621,1,0,1.6,0.8,-0.632436340931827,-0.632436340931827,750,1,0,congruent,0.1,1898.83653358331,662.543856755805
14,104,3,405,0.5,0.5,0.5,2,4,0.6,2,729,1,1,729,1,0,1.4,NaN,0.236625437855568,0.236625437855568,750,0,0,incongruent,1,2967.57107316586,6365.68381661771
14,104,3,407,-0.5,0.5,-0.5,4,4,0.6,4,634,1,1,634,1,0,1.4,0.8,-0.527827052744455,-0.527827052744455,750,1,0,congruent,0.1,1875.54122871048,4787.52756115395
14,104,3,410,0.5,0.5,-0.5,1,1,0.6,4,841,0,0,NaN,0,0,0.6,NaN,1.13787468993138,NaN,750,0,1,congruent,0,1076.49574969994,756.918232699718
14,104,3,411,0.5,0.5,0.5,2,4,0.6,2,791,1,0,791,0,0,0.2,NaN,0.735531273826109,0.735531273826109,750,0,0,incongruent,0,1908.41940289257,1306.76567711482
14,104,3,412,-0.5,-0.5,0.5,3,1,0.4,3,691,1,1,691,0,0,0.2,0.6,-0.0691555583844416,-0.0691555583844416,750,0,0,incongruent,0,4216.15814997141,8655.00593632126
14,104,3,413,-0.5,-0.5,0,4,NaN,0.4,4,637,1,1,637,0,0,0,0.6,-0.503686447778139,-0.503686447778139,750,0,0,neutral,0,799.248917523968,1196.4845530011
14,104,3,414,0.5,-0.5,-0.5,2,2,0.4,2,668,1,1,668,0,0,0,NaN,-0.254233529792868,-0.254233529792868,750,1,0,congruent,0,2132.81779226108,2003.40712908195
14,104,3,416,0.5,0.5,-0.5,4,4,0.4,4,860,1,0,860,0,0,0.4,NaN,1.29076518805139,1.29076518805139,750,1,0,congruent,0,2265.7415866483,6597.67590758298
14,104,3,417,-0.5,0.5,-0.5,2,2,0.2,2,884,1,0,884,0,0,0.4,0.8,1.48389002778192,1.48389002778192,750,1,0,congruent,0,649.177461371845,1485.5880913324
14,104,3,418,0.5,-0.5,-0.5,1,1,0,1,691,1,1,691,0,0,0.4,NaN,-0.0691555583844416,-0.0691555583844416,750,1,0,congruent,0,2183.01368303198,3958.6413497417
14,104,3,420,-0.5,-0.5,-0.5,3,3,0,3,634,1,1,634,0,0,0.4,0.6,-0.527827052744455,-0.527827052744455,750,1,0,congruent,0,1443.59196023285,3654.61312390898
14,104,3,421,-0.5,-0.5,0,2,NaN,0,2,718,1,1,718,0,0,0,0.4,0.148109886312407,0.148109886312407,750,0,0,neutral,0,5950.92872785736,3882.66217069178
14,104,3,422,0.5,-0.5,-0.5,1,1,0,1,556,1,1,556,0,0,0,NaN,-1.15548278186868,-1.15548278186868,750,1,0,congruent,0,5146.15988461813,1476.33994125736
14,104,3,423,-0.5,0.5,0.5,4,2,0,4,877,1,0,877,0,0,0,0.4,1.42756194952718,1.42756194952718,750,0,0,incongruent,0,956.540044208945,3069.45007328805
14,104,3,426,-0.5,0.5,-0.5,4,4,0,4,898,1,0,898,0,0,0,0.4,1.5965461842914,1.5965461842914,750,1,0,congruent,0,1036.7624212096,2632.90600959737
14,104,3,428,-0.5,0.5,-0.5,1,1,0,1,788,1,0,788,0,0,0,0.2,0.711390668859792,0.711390668859792,750,1,0,congruent,0,1351.98521737783,2528.64539375545
14,104,3,429,0.5,0.5,0,3,NaN,0,3,654,1,1,654,1,0,0,NaN,-0.366889686302345,-0.366889686302345,750,0,0,neutral,1,4267.2673530326,5561.53270712092
14,104,3,430,-0.5,0.5,-0.5,1,1,0.2,1,675,1,1,675,1,0,0.4,0,-0.19790545153813,-0.19790545153813,750,1,0,congruent,0.1,3379.65305992153,8789.62215642539
14,104,3,431,0.5,-0.5,0,2,NaN,0.4,2,636,1,1,636,0,0,0.6,NaN,-0.511733316100244,-0.511733316100244,750,0,0,neutral,0,2197.70821307198,9294.64384799244
14,104,3,432,0.5,-0.5,-0.5,1,1,0.4,1,798,1,0,798,1,0,0.6,NaN,0.791859352080847,0.791859352080847,750,1,0,congruent,1,4426.41030867367,3707.01040753571
14,104,3,434,-0.5,0.5,0.5,1,3,0.4,1,643,1,1,643,1,0,1,0.2,-0.455405237845506,-0.455405237845506,750,0,0,incongruent,0.1,2651.41440292673,2088.12149139465
14,104,3,435,0.5,-0.5,0.5,3,4,0.6,3,701,1,1,701,1,0,0.8,NaN,0.0113131248366134,0.0113131248366134,750,0,0,incongruent,1,6373.0170203153,7719.32794834633
14,104,3,436,-0.5,-0.5,0.5,2,1,0.6,2,868,1,0,868,0,0,1,0,1.35514013462823,1.35514013462823,750,0,0,incongruent,0,3715.4515003659,4088.15197162599
14,104,3,437,-0.5,0.5,-0.5,4,4,0.6,4,707,1,1,707,1,0,1,0.4,0.0595943347692464,0.0595943347692464,750,1,0,congruent,0.1,963.746040812419,704.678746806435
14,104,3,438,-0.5,-0.5,0.5,3,2,0.8,3,768,1,0,768,1,0,0.8,0,0.550453302417682,0.550453302417682,750,0,0,incongruent,0.1,4467.92485678516,1286.9780977859
14,104,3,441,-0.5,-0.5,0.5,2,3,0.8,2,793,1,0,793,1,0,0.8,0.6,0.75162501047032,0.75162501047032,750,0,0,incongruent,0.1,2343.46446854772,1700.04627914209
14,104,3,442,-0.5,-0.5,0.5,4,1,0.8,4,770,1,0,770,0,0,1,0.8,0.566547039061893,0.566547039061893,750,0,0,incongruent,0,1438.42054041745,3249.04041720144
14,104,3,443,-0.5,-0.5,0,3,NaN,0.8,3,827,1,0,827,1,0,0.8,0.8,1.02521853342191,1.02521853342191,750,0,0,neutral,0.1,388.172741166127,1342.69250308499
14,104,3,444,0.5,-0.5,-0.5,1,1,0.8,1,805,1,0,805,1,0,0.8,NaN,0.848187430335586,0.848187430335586,750,1,0,congruent,1,1029.27981436754,891.851858393931
14,104,3,445,0.5,0.5,0.5,3,2,0.8,3,748,1,1,748,1,0,1,NaN,0.389515935975572,0.389515935975572,750,0,0,incongruent,1,2580.21175484575,3964.76790723832
14,104,3,446,-0.5,-0.5,0.5,4,3,0.8,4,661,1,1,661,0,0,1.2,0.8,-0.310561608047607,-0.310561608047607,750,0,0,incongruent,0,2700.43775012976,2209.02524079493
14,104,3,447,0.5,-0.5,0.5,3,4,0.8,3,578,1,1,578,1,0,1,NaN,-0.978451678782364,-0.978451678782364,750,0,0,incongruent,1,3123.4442506182,3209.00975913036
14,104,3,449,0.5,0.5,0.5,4,2,0.8,4,815,1,0,815,0,0,1.4,NaN,0.928656113556641,0.928656113556641,750,0,0,incongruent,0,3408.40666275573,794.391082357719
14,104,3,450,-0.5,0.5,0,3,NaN,0.6,3,607,1,1,607,1,0,1,0.6,-0.745092497441304,-0.745092497441304,750,0,0,neutral,0.1,1142.55175648733,222.380085260896
14,104,4,451,-0.5,0.5,0.5,1,2,0.8,1,799,1,0,799,0,0,0.8,0.8,0.799906220402953,0.799906220402953,750,0,0,incongruent,0,422.749074809341,2805.34361895964
14,104,4,452,0.5,-0.5,0.5,2,4,0.6,2,687,1,1,687,1,0,0.8,NaN,-0.101343031672864,-0.101343031672864,750,0,0,incongruent,1,597.364878346596,2273.12301867207
14,104,4,453,0.5,0.5,-0.5,1,1,0.6,2,910,0,0,NaN,0,0,0.8,NaN,1.69310860415666,NaN,750,0,1,congruent,0,1432.9433116101,1488.93288781937
14,104,4,454,0.5,0.5,-0.5,2,2,0.4,2,825,1,0,825,0,0,0.6,NaN,1.0091247967777,1.0091247967777,750,1,0,congruent,0,1942.69436287616,397.713969883339
14,104,4,455,0.5,0.5,-0.5,4,4,0.2,4,681,1,1,681,1,0,0.6,NaN,-0.149624241605497,-0.149624241605497,750,1,0,congruent,1,2456.39524552935,1615.77825909281
14,104,4,456,-0.5,0.5,-0.5,2,2,0.4,2,746,1,1,746,1,0,0.8,0.8,0.373422199331361,0.373422199331361,750,1,0,congruent,0.1,1212.12964494157,1248.12538531544
14,104,4,457,0.5,0.5,0,4,NaN,0.4,4,689,1,1,689,1,0,1,NaN,-0.0852492950286526,-0.0852492950286526,750,0,0,neutral,1,2990.6175256873,1975.36506222114
14,104,4,458,0.5,0.5,0.5,3,4,0.6,3,805,1,0,805,0,0,1,NaN,0.848187430335586,0.848187430335586,750,0,0,incongruent,0,1990.4322631514,3155.36330352069
14,104,4,459,-0.5,-0.5,0.5,1,2,0.6,1,667,1,1,667,1,0,1,0.6,-0.262280398114974,-0.262280398114974,750,0,0,incongruent,0.1,1214.08437349429,1830.50691181127
14,104,4,460,-0.5,0.5,0.5,3,4,0.6,3,737,1,1,737,1,0,1.2,0.8,0.301000384432412,0.301000384432412,750,0,0,incongruent,0.1,1339.51198911131,795.363611894242
14,104,4,461,-0.5,0.5,-0.5,2,2,0.8,2,786,1,0,786,0,0,1,0.8,0.695296932215581,0.695296932215581,750,1,0,congruent,0,2053.32251593197,2702.39130173394
14,104,4,462,-0.5,0.5,0,4,NaN,0.6,4,808,1,0,808,0,0,0.8,0.6,0.872328035301902,0.872328035301902,750,0,0,neutral,0,4733.11222377573,1690.99737466576
14,104,4,463,0.5,-0.5,-0.5,3,3,0.4,3,915,1,0,915,1,0,0.4,NaN,1.73334294576719,1.73334294576719,750,1,0,congruent,1,5288.3527183328,1106.61921493014
14,104,4,465,0.5,0.5,-0.5,4,4,0.2,4,807,1,0,807,0,0,0.6,NaN,0.864281166979797,0.864281166979797,750,1,0,congruent,0,4499.59568839985,2017.10325467695
14,104,4,466,0.5,0.5,0,3,NaN,0.2,3,465,1,1,465,1,0,0.4,NaN,-1.88774779918029,-1.88774779918029,750,0,0,neutral,1,2483.75859553974,3565.01017034532
14,104,4,468,0.5,0.5,0,3,NaN,0.2,3,651,1,1,651,1,0,0.8,NaN,-0.391030291268662,-0.391030291268662,750,0,0,neutral,1,2376.3077592582,620.442238182907
14,104,4,469,-0.5,-0.5,0.5,2,3,0.4,2,929,1,0,929,0,0,0.8,0.6,1.84599910227667,1.84599910227667,750,0,0,incongruent,0,3389.3853398729,4965.89860104295
14,104,4,470,-0.5,0.5,0,1,NaN,0.4,1,910,1,0,910,0,0,0.8,0.4,1.69310860415666,1.69310860415666,750,0,0,neutral,0,1680.48313863266,2898.29647517834
14,104,4,471,-0.5,0.5,-0.5,4,4,0.4,4,959,1,0,959,0,0,0.8,0.2,2.08740515193983,2.08740515193983,750,1,0,congruent,0,1422.48192541632,929.643499277382
14,104,4,472,-0.5,0.5,0,1,NaN,0.4,1,747,1,1,747,1,0,0.4,0,0.381469067653467,0.381469067653467,750,0,0,neutral,0.1,2435.85464996035,1643.93817611534
14,104,4,473,-0.5,-0.5,-0.5,2,2,0.6,2,783,1,0,783,1,0,0.6,0.6,0.671156327249265,0.671156327249265,750,1,0,congruent,0.1,3775.0775945887,313.92402907979
14,104,4,474,0.5,0.5,0.5,3,1,0.6,3,937,1,0,937,0,0,0.4,NaN,1.91037404885351,1.91037404885351,750,0,0,incongruent,0,1019.5459063415,1261.32835255459
14,104,4,477,-0.5,0.5,0.5,3,2,0.2,3,891,1,0,891,0,0,0.4,0.2,1.54021810603666,1.54021810603666,750,0,0,incongruent,0,2242.41017211139,3010.56540750853
14,104,4,478,0.5,0.5,-0.5,1,1,0.2,1,727,1,1,727,1,0,0.2,NaN,0.220531701211357,0.220531701211357,750,1,0,congruent,1,5767.91722027554,2010.76306286009
14,104,4,479,-0.5,-0.5,-0.5,2,2,0.4,2,950,1,0,950,0,0,0.4,0.6,2.01498333704088,2.01498333704088,750,1,0,congruent,0,2153.8530575613,4542.5151307025
14,104,4,480,0.5,-0.5,0,1,NaN,0.4,1,810,1,0,810,0,0,0.4,NaN,0.888421771946113,0.888421771946113,750,0,0,neutral,0,1466.6615696811,3990.056226064
14,104,4,482,-0.5,0.5,0,3,NaN,0.2,3,810,1,0,810,0,0,0.4,0.2,0.888421771946113,0.888421771946113,750,0,0,neutral,0,1657.37618264786,619.050640812502
14,104,4,484,0.5,0.5,0,3,NaN,0.2,3,949,1,0,949,0,0,0,NaN,2.00693646871878,2.00693646871878,750,0,0,neutral,0,2898.5172067634,2073.79488145944
14,104,4,485,0.5,-0.5,-0.5,1,1,0.2,1,967,1,0,967,0,0,0,NaN,2.15178009851668,2.15178009851668,750,1,0,congruent,0,940.62264463497,6800.90093900922
14,104,4,487,-0.5,0.5,0.5,4,1,0.2,4,891,1,0,891,0,0,0,0.2,1.54021810603666,1.54021810603666,750,0,0,incongruent,0,2627.33692076429,2592.55629991859
14,104,4,488,0.5,-0.5,0.5,2,3,0,2,763,1,0,763,0,0,0,NaN,0.510218960807155,0.510218960807155,750,0,0,incongruent,0,592.076660436547,1592.1813555392
14,104,4,489,0.5,-0.5,-0.5,1,1,0,1,969,1,0,969,0,0,0,NaN,2.16787383516089,2.16787383516089,750,1,0,congruent,0,1331.01387981692,4643.84716811657
14,104,4,491,-0.5,0.5,0.5,3,1,0,3,656,1,1,656,1,0,0,0.2,-0.350795949658134,-0.350795949658134,750,0,0,incongruent,0.1,3929.74501034635,2827.48302370321
14,104,4,493,0.5,0.5,0,4,NaN,0.2,4,682,1,1,682,1,0,0.2,NaN,-0.141577373283391,-0.141577373283391,750,0,0,neutral,1,997.966032894657,888.411447174252
14,104,4,494,-0.5,-0.5,-0.5,2,2,0.4,2,751,1,0,751,0,0,0.6,0.4,0.413656540941889,0.413656540941889,750,1,0,congruent,0,719.827122509454,616.511183744635
14,104,4,495,-0.5,0.5,0,1,NaN,0.4,1,690,1,1,690,1,0,0.6,0.2,-0.0772024267065471,-0.0772024267065471,750,0,0,neutral,0.1,923.120680585531,2784.86217090277
14,104,4,496,0.5,0.5,-0.5,3,3,0.6,4,869,0,0,NaN,0,0,0.8,NaN,1.36318700295034,NaN,750,0,1,congruent,0,2805.21761913467,3430.50114090801
14,104,4,497,-0.5,0.5,0,2,NaN,0.6,2,875,1,0,875,0,0,0.6,0.4,1.41146821288297,1.41146821288297,750,0,0,neutral,0,2045.50155087037,1494.2715549446
14,104,4,498,0.5,0.5,-0.5,4,4,0.4,4,692,1,1,692,1,0,0.6,NaN,-0.0611086900623361,-0.0611086900623361,750,1,0,congruent,1,1859.50300812458,1827.25402277501
14,104,4,499,0.5,0.5,-0.5,1,1,0.6,2,927,0,0,NaN,0,0,0.6,NaN,1.82990536563246,NaN,750,0,1,congruent,0,1205.30036108776,867.165790041768
14,104,4,500,0.5,-0.5,0,3,NaN,0.4,3,708,1,1,708,0,0,0.6,NaN,0.067641203091352,0.067641203091352,750,0,0,neutral,0,2031.64637228237,1083.20766566983
14,104,4,501,0.5,-0.5,-0.5,4,4,0.4,4,575,1,1,575,0,0,0.4,NaN,-1.00259228374868,-1.00259228374868,750,1,0,congruent,0,340.702586652091,602.86056845351
14,104,4,502,-0.5,-0.5,0,1,NaN,0.4,1,613,1,1,613,1,0,0.4,0.2,-0.696811287508671,-0.696811287508671,750,0,0,neutral,0.1,937.676983137136,1439.39310680031
14,104,4,503,-0.5,0.5,0.5,4,1,0.4,4,680,1,1,680,1,0,0.6,0.4,-0.157671109927602,-0.157671109927602,750,0,0,incongruent,0.1,2162.05501861069,5478.52907936851
14,104,4,504,0.5,0.5,-0.5,3,3,0.4,3,613,1,1,613,1,0,0.4,NaN,-0.696811287508671,-0.696811287508671,750,1,0,congruent,1,674.776396284647,1744.96287694327
14,104,4,505,-0.5,-0.5,-0.5,2,2,0.6,2,887,1,0,887,1,0,0.8,0.4,1.50803063274824,1.50803063274824,750,1,0,congruent,0.1,2129.44046681832,579.074979909115
14,104,4,506,0.5,0.5,0,4,NaN,0.6,4,669,1,1,669,1,0,1,NaN,-0.246186661470763,-0.246186661470763,750,0,0,neutral,1,854.60873815535,2003.82426409624
14,104,4,507,-0.5,-0.5,-0.5,2,2,0.8,2,778,1,0,778,1,0,1.4,0.4,0.630921985638737,0.630921985638737,750,1,0,congruent,0.1,906.537742818581,2732.6278855724
14,104,4,508,0.5,0.5,0,3,NaN,0.8,3,682,1,1,682,1,0,1.4,NaN,-0.141577373283391,-0.141577373283391,750,0,0,neutral,1,1496.4445616455,2721.30473516529
14,104,4,509,-0.5,0.5,-0.5,1,1,0.8,1,722,1,1,722,1,0,1.6,0.6,0.180297359600829,0.180297359600829,750,1,0,congruent,0.1,1623.13099065432,1396.12127056096
14,104,4,510,0.5,0.5,-0.5,3,3,1,3,589,1,1,589,1,0,1.4,NaN,-0.889936127239203,-0.889936127239203,750,1,0,congruent,1,1024.17312042369,544.653500706159
14,104,4,511,-0.5,0.5,0,2,NaN,1,4,963,0,0,NaN,0,0,1.6,0.6,2.11959262522826,NaN,750,0,1,neutral,0,401.730809074644,1019.71298369441
14,104,4,512,-0.5,-0.5,0.5,4,2,0.8,4,934,1,0,934,1,0,1.2,0.6,1.8862334438872,1.8862334438872,750,0,0,incongruent,0.1,8747.80756606507,3130.19924205935
14,104,4,513,0.5,-0.5,0,3,NaN,0.8,3,563,1,1,563,1,0,1.2,NaN,-1.09915470361395,-1.09915470361395,750,0,0,neutral,1,1902.96020045961,389.289439102373
14,104,4,514,0.5,-0.5,-0.5,4,4,0.8,4,980,1,0,980,1,0,1.2,NaN,2.25638938670405,2.25638938670405,750,1,0,congruent,1,6924.83738194074,2309.36060138612
14,104,4,515,-0.5,0.5,0.5,1,3,0.8,1,683,1,1,683,1,0,1.4,0.6,-0.133530504961286,-0.133530504961286,750,0,0,incongruent,0.1,2753.4733920848,2952.29654487224
14,104,4,516,0.5,-0.5,0,4,NaN,0.8,4,706,1,1,706,0,0,1.2,NaN,0.0515474664471409,0.0515474664471409,750,0,0,neutral,0,1441.64210101158,3724.12235252153
14,104,4,518,0.5,0.5,0.5,1,3,0.8,1,968,1,0,968,0,0,1.4,NaN,2.15982696683878,2.15982696683878,750,0,0,incongruent,0,1051.15796688436,437.201103581087
14,104,4,519,0.5,-0.5,-0.5,4,4,0.6,4,631,1,1,631,1,0,1,NaN,-0.551967657710772,-0.551967657710772,750,1,0,congruent,1,2291.66298199728,1988.97203483049
14,104,4,520,0.5,0.5,-0.5,1,1,0.6,1,629,1,1,629,1,0,1,NaN,-0.568061394354983,-0.568061394354983,750,1,0,congruent,1,1402.48059915191,152.193507154896
14,104,4,521,0.5,0.5,-0.5,4,4,0.6,4,710,1,1,710,1,0,1.2,NaN,0.083734939735563,0.083734939735563,750,1,0,congruent,1,1899.17340792053,439.997764762021
14,104,4,522,0.5,-0.5,0.5,1,2,0.6,1,669,1,1,669,0,0,1.6,NaN,-0.246186661470763,-0.246186661470763,750,0,0,incongruent,0,1667.19286816246,1422.13492702922
14,104,4,523,0.5,0.5,0.5,4,1,0.6,4,866,1,0,866,0,0,1.2,NaN,1.33904639798402,1.33904639798402,750,0,0,incongruent,0,941.388670514384,772.277912057468
14,104,4,524,-0.5,0.5,-0.5,3,3,0.6,3,671,1,1,671,1,0,1.2,0.6,-0.230092924826552,-0.230092924826552,750,1,0,congruent,0.1,1501.17727232501,1616.66552192221
14,104,4,525,-0.5,0.5,-0.5,2,2,0.6,2,583,1,1,583,1,0,1,0.8,-0.938217337171836,-0.938217337171836,750,1,0,congruent,0.1,2076.11738143693,1016.01318523437
14,104,4,526,-0.5,0.5,0,3,NaN,0.8,3,649,1,1,649,1,0,0.8,0.8,-0.407124027912873,-0.407124027912873,750,0,0,neutral,0.1,1019.22045878646,512.717606082643
14,104,4,527,-0.5,0.5,-0.5,4,4,0.8,4,692,1,1,692,1,0,0.6,0.8,-0.0611086900623361,-0.0611086900623361,750,1,0,congruent,0.1,3149.30391507513,268.035160071333
14,104,4,528,0.5,0.5,0.5,1,2,0.8,1,818,1,0,818,0,0,0.8,NaN,0.952796718522957,0.952796718522957,750,0,0,incongruent,0,2238.51392290554,851.815982461066
14,104,4,529,-0.5,-0.5,0,3,NaN,0.8,3,724,1,1,724,1,0,0.8,0.8,0.19639109624504,0.19639109624504,750,0,0,neutral,0.1,962.867808080703,1250.42642706865
14,104,4,530,0.5,-0.5,0.5,1,4,0.8,1,701,1,1,701,1,0,0.8,NaN,0.0113131248366134,0.0113131248366134,750,0,0,incongruent,1,1270.15450873061,1445.94225392309
14,104,4,531,-0.5,-0.5,0.5,2,1,0.8,2,806,1,0,806,1,0,1,1,0.856234298657691,0.856234298657691,750,0,0,incongruent,0.1,1152.74344847394,1307.83423114504
14,104,4,532,-0.5,0.5,-0.5,3,3,0.8,3,584,1,1,584,1,0,1,1,-0.930170468849731,-0.930170468849731,750,1,0,congruent,0.1,947.134723300527,1041.70102160485
14,104,4,533,0.5,-0.5,0,2,NaN,0.8,2,757,1,0,757,1,0,1,NaN,0.461937750874522,0.461937750874522,750,0,0,neutral,1,1521.81619855306,1552.05656236183
14,104,4,534,-0.5,0.5,-0.5,4,4,0.8,4,812,1,0,812,0,0,1.4,1,0.904515508590324,0.904515508590324,750,1,0,congruent,0,1129.15300585142,2772.24884237348
14,104,4,535,0.5,-0.5,0.5,1,3,0.6,1,503,1,1,503,1,0,1.2,NaN,-1.58196680294028,-1.58196680294028,750,0,0,incongruent,1,774.380403283229,1117.6713057777
14,104,4,537,-0.5,0.5,-0.5,3,3,0.6,3,508,1,1,508,1,0,1,0.8,-1.54173246132975,-1.54173246132975,750,1,0,congruent,0.1,1266.43994211324,1115.18021890301
14,104,4,538,-0.5,0.5,-0.5,2,2,0.6,2,587,1,1,587,1,0,1,0.8,-0.906029863883414,-0.906029863883414,750,1,0,congruent,0.1,804.995932670308,1945.42058376667
14,104,4,539,-0.5,0.5,0.5,3,4,0.6,3,624,1,1,624,1,0,0.8,0.8,-0.60829573596551,-0.60829573596551,750,0,0,incongruent,0.1,8991.38635943158,2217.44645615962
14,104,4,540,0.5,-0.5,-0.5,1,1,0.8,1,581,1,1,581,1,0,1,NaN,-0.954311073816047,-0.954311073816047,750,1,0,congruent,1,4318.94205613006,7454.67976677636
14,104,4,541,0.5,0.5,-0.5,2,2,0.8,2,581,1,1,581,1,0,1,NaN,-0.954311073816047,-0.954311073816047,750,1,0,congruent,1,1196.7237927559,2668.6821840404
14,104,4,542,0.5,0.5,0.5,4,3,0.8,4,579,1,1,579,1,0,1.4,NaN,-0.970404810460258,-0.970404810460258,750,0,0,incongruent,1,2457.40246609951,1617.42091876976
14,104,4,543,-0.5,0.5,0,1,NaN,1,1,770,1,0,770,0,0,1.6,0.8,0.566547039061893,0.566547039061893,750,0,0,neutral,0,143.320174311424,1352.47832682629
14,104,4,544,0.5,-0.5,0.5,4,1,0.8,4,609,1,1,609,1,0,1.4,NaN,-0.728998760797093,-0.728998760797093,750,0,0,incongruent,1,2072.20093401349,956.393328603676
14,104,4,545,0.5,0.5,0,1,NaN,0.8,1,688,1,1,688,1,0,1.6,NaN,-0.0932961633507581,-0.0932961633507581,750,0,0,neutral,1,973.741348188643,529.822837925397
14,104,4,546,-0.5,0.5,-0.5,2,2,0.8,2,525,1,1,525,1,0,1.6,0.6,-1.40493569985396,-1.40493569985396,750,1,0,congruent,0.1,2883.07514170728,1115.72531963125
14,104,4,548,-0.5,-0.5,-0.5,2,2,0.6,4,683,0,1,NaN,1,0,1,0.8,-0.133530504961286,NaN,750,0,1,congruent,0.1,1617.10286203963,524.446153251842
14,104,4,549,-0.5,-0.5,0,3,NaN,0.6,3,673,1,1,673,0,0,1.2,0.8,-0.213999188182341,-0.213999188182341,750,0,0,neutral,0,996.218887481551,1334.27735886294
14,104,4,550,0.5,-0.5,-0.5,2,2,0.6,2,771,1,0,771,1,0,0.8,NaN,0.574593907383999,0.574593907383999,750,1,0,congruent,1,2209.93303817758,1395.04590322192
14,104,4,553,-0.5,0.5,-0.5,1,1,0.4,1,745,1,1,745,1,0,1,0.4,0.365375331009256,0.365375331009256,750,1,0,congruent,0.1,385.678895521674,219.776623301916
14,104,4,554,-0.5,-0.5,-0.5,4,4,0.6,4,682,1,1,682,0,0,1,0.6,-0.141577373283391,-0.141577373283391,750,1,0,congruent,0,826.270359284582,660.422622999891
14,104,4,555,0.5,0.5,0.5,2,1,0.6,2,742,1,1,742,1,0,1,NaN,0.341234726042939,0.341234726042939,750,0,0,incongruent,1,1417.08493006337,1125.92466942467
14,104,4,556,0.5,0.5,0,3,NaN,0.6,3,817,1,0,817,0,0,1,NaN,0.944749850200852,0.944749850200852,750,0,0,neutral,0,1131.40789765405,2288.28228038425
14,104,4,557,-0.5,0.5,0.5,4,1,0.4,4,703,1,1,703,1,0,1,0.4,0.0274068614808244,0.0274068614808244,750,0,0,incongruent,0.1,2150.99991353976,598.155402576324
14,104,4,558,-0.5,-0.5,0,3,NaN,0.6,3,622,1,1,622,0,0,0.8,0.4,-0.624389472609721,-0.624389472609721,750,0,0,neutral,0,1678.18215537009,2405.73624821699
14,104,4,559,0.5,0.5,0.5,1,2,0.6,1,667,1,1,667,1,0,0.6,NaN,-0.262280398114974,-0.262280398114974,750,0,0,incongruent,1,1902.96004766066,998.722579067552
14,104,4,560,0.5,-0.5,0.5,4,3,0.8,4,805,1,0,805,1,0,1,NaN,0.848187430335586,0.848187430335586,750,0,0,incongruent,1,998.320542424725,1872.58491819258
14,104,4,561,0.5,-0.5,0.5,2,1,0.8,2,801,1,0,801,1,0,1,NaN,0.815999957047164,0.815999957047164,750,0,0,incongruent,1,2308.07390614611,647.92168788381
14,104,4,562,0.5,-0.5,0.5,1,4,0.8,1,692,1,1,692,0,0,1.4,NaN,-0.0611086900623361,-0.0611086900623361,750,0,0,incongruent,0,6542.04037863411,5372.58421848325
14,104,4,565,-0.5,-0.5,-0.5,2,2,0.8,2,615,1,1,615,1,0,1.4,0.4,-0.68071755086446,-0.68071755086446,750,1,0,congruent,0.1,957.443224909699,4353.01354615495
14,104,4,566,-0.5,-0.5,0.5,3,1,0.8,3,686,1,1,686,1,0,1.2,0.4,-0.109389899994969,-0.109389899994969,750,0,0,incongruent,0.1,2263.63395935672,491.8074099646
14,104,4,567,-0.5,-0.5,0,4,NaN,0.8,4,768,1,0,768,1,0,1,0.6,0.550453302417682,0.550453302417682,750,0,0,neutral,0.1,1260.69687545911,670.892138229016
14,104,4,568,-0.5,0.5,-0.5,2,2,0.8,2,961,1,0,961,0,0,1.2,0.6,2.10349888858404,2.10349888858404,750,1,0,congruent,0,744.77079327106,1550.42017353741
14,104,4,569,0.5,0.5,0,3,NaN,0.6,3,758,1,0,758,0,0,0.8,NaN,0.469984619196627,0.469984619196627,750,0,0,neutral,0,3784.2883047263,1058.00667741406
14,104,4,570,0.5,-0.5,-0.5,1,1,0.4,1,564,1,1,564,1,0,0.6,NaN,-1.09110783529184,-1.09110783529184,750,1,0,congruent,1,2740.05950518255,4832.00251859084
14,104,4,571,0.5,-0.5,0.5,3,4,0.4,3,744,1,1,744,1,0,0.8,NaN,0.35732846268715,0.35732846268715,750,0,0,incongruent,1,4072.96483027356,1277.19771537008
14,104,4,572,0.5,0.5,0.5,1,2,0.4,1,954,1,0,954,0,0,1,NaN,2.04717081032931,2.04717081032931,750,0,0,incongruent,0,4007.67710325427,2222.74255337849
14,104,4,573,0.5,0.5,0.5,4,3,0.4,4,948,1,0,948,0,0,0.8,NaN,1.99888960039667,1.99888960039667,750,0,0,incongruent,0,1126.70522257665,674.541956952993
14,104,4,574,0.5,-0.5,-0.5,1,1,0.2,1,662,1,1,662,1,0,0.8,NaN,-0.302514739725501,-0.302514739725501,750,1,0,congruent,1,1542.73308315597,624.163428357305
14,104,4,575,-0.5,0.5,0,3,NaN,0.2,3,616,1,1,616,1,0,1.2,0.4,-0.672670682542354,-0.672670682542354,750,0,0,neutral,0.1,1658.59141355604,1488.36735129685
14,104,4,576,0.5,0.5,0.5,1,4,0.2,1,746,1,1,746,1,0,1,NaN,0.373422199331361,0.373422199331361,750,0,0,incongruent,1,5311.89518420159,2967.87575740519
14,104,4,577,0.5,0.5,-0.5,3,3,0.4,3,560,1,1,560,1,0,1,NaN,-1.12329530858026,-1.12329530858026,750,1,0,congruent,1,1423.34601928363,633.845341125487
14,104,4,578,-0.5,-0.5,0.5,1,4,0.6,1,727,1,1,727,0,0,1.4,0.8,0.220531701211357,0.220531701211357,750,0,0,incongruent,0,3236.98669848201,5126.43056075994
14,104,4,579,0.5,-0.5,-0.5,3,3,0.6,3,583,1,1,583,0,0,1.4,NaN,-0.938217337171836,-0.938217337171836,750,1,0,congruent,0,1728.00475187253,2048.71611752591
14,104,4,581,-0.5,-0.5,-0.5,3,3,0.6,3,639,1,1,639,0,0,0.8,0.8,-0.487592711133928,-0.487592711133928,750,1,0,congruent,0,575.940119615929,674.018403001002
14,104,4,582,0.5,0.5,0,2,NaN,0.6,2,818,1,0,818,0,0,0.4,NaN,0.952796718522957,0.952796718522957,750,0,0,neutral,0,1944.25311713801,1312.59571996249
14,104,4,583,0.5,0.5,0.5,3,1,0.6,3,752,1,0,752,0,0,0,NaN,0.421703409263994,0.421703409263994,750,0,0,incongruent,0,2611.12053333991,1467.74120249019
14,104,4,584,-0.5,0.5,0,2,NaN,0.4,2,686,1,1,686,1,0,0,0.6,-0.109389899994969,-0.109389899994969,750,0,0,neutral,0.1,1026.56484540669,647.98055638401
14,104,4,585,-0.5,0.5,-0.5,3,3,0.4,3,776,1,0,776,0,0,0.2,0.8,0.614828248994526,0.614828248994526,750,1,0,congruent,0,1837.56822097177,713.019036465342
14,104,4,587,-0.5,0.5,-0.5,3,3,0.2,3,578,1,1,578,1,0,0.2,0.4,-0.978451678782364,-0.978451678782364,750,1,0,congruent,0.1,2249.41115298052,3269.01508875045
14,104,4,588,0.5,-0.5,0,4,NaN,0.4,4,799,1,0,799,0,0,0.4,NaN,0.799906220402953,0.799906220402953,750,0,0,neutral,0,1638.97671326683,4196.04325355267
14,104,4,589,-0.5,-0.5,-0.5,2,2,0.4,4,528,0,1,NaN,0,0,0.4,0.6,-1.38079509488764,NaN,750,0,1,congruent,0,3685.72981680213,2116.78411898953
14,104,4,590,-0.5,-0.5,0,4,NaN,0.4,4,637,1,1,637,0,0,0.2,0.4,-0.503686447778139,-0.503686447778139,750,0,0,neutral,0,1122.13237842547,1080.81920838978
14,104,4,591,-0.5,0.5,-0.5,2,2,0.4,2,553,1,1,553,1,0,0.2,0.6,-1.179623386835,-1.179623386835,750,1,0,congruent,0.1,2018.5379093602,339.606409092494
14,104,4,592,-0.5,-0.5,0.5,3,1,0.6,3,623,1,1,623,0,0,0.4,0.2,-0.616342604287616,-0.616342604287616,750,0,0,incongruent,0,1011.50106101299,810.983282518174
14,104,4,593,-0.5,0.5,0,1,NaN,0.6,1,628,1,1,628,1,0,0.2,0.6,-0.576108262677088,-0.576108262677088,750,0,0,neutral,0.1,337.505069971222,1080.95824331893
14,104,4,594,0.5,-0.5,-0.5,3,3,0.6,3,556,1,1,556,1,0,0.4,NaN,-1.15548278186868,-1.15548278186868,750,1,0,congruent,1,990.868883392201,1395.00145271083
14,104,4,595,-0.5,-0.5,-0.5,2,2,0.6,2,525,1,1,525,1,0,0.8,0,-1.40493569985396,-1.40493569985396,750,1,0,congruent,0.1,2960.20610007966,2306.61076569847
14,104,4,596,0.5,0.5,0,1,NaN,0.6,1,654,1,1,654,1,0,1,NaN,-0.366889686302345,-0.366889686302345,750,0,0,neutral,1,670.147743356079,3716.27824121826
14,104,4,597,0.5,0.5,0.5,4,2,0.8,4,764,1,0,764,0,0,1.2,NaN,0.51826582912926,0.51826582912926,750,0,0,incongruent,0,2587.04540122547,2994.79047596869
14,104,4,598,0.5,-0.5,0.5,2,4,0.8,2,821,1,0,821,1,0,1.2,NaN,0.976937323489274,0.976937323489274,750,0,0,incongruent,1,3937.22228359192,382.425002087485
14,104,4,599,-0.5,-0.5,0,1,NaN,0.8,1,613,1,1,613,1,0,1.4,0.2,-0.696811287508671,-0.696811287508671,750,0,0,neutral,0.1,4034.26946684925,3761.26846832076
14,104,4,600,0.5,0.5,0.5,2,1,0.8,2,639,1,1,639,1,0,1.2,NaN,-0.487592711133928,-0.487592711133928,750,0,0,incongruent,1,3032.12430773719,673.846138348443
