subid,vers,block,trial,rewlvl,efflvl,congruency,targetresp,distractorresp,rollingefflvl,resp,rt,acc,fast,accrt,isrewarded,ismiss,runavgrrgen,runavgrrcond,zrt,acczrt,rtthreshold,isdisterror,isranderror,congruence,feedback,fcz_resp_theta,fcz_resp_theta_baseline
17,104,1,1,0.5,0.5,-0.5,2,2,0.4,1,752,0,0,NaN,0,0,0,NaN,0.535536130269142,NaN,750,0,1,congruent,0,4018.91119087389,4850.83537512581
17,104,1,2,0.5,0.5,0,4,NaN,0.4,3,597,0,1,NaN,0,0,0,NaN,-0.567202371887036,NaN,750,0,1,neutral,0,2681.55552556194,6429.02357328758
17,104,1,3,-0.5,0.5,-0.5,1,1,0.4,2,859,0,0,NaN,0,0,0,0,1.29678141885437,NaN,750,0,1,congruent,0,2496.08340610664,7222.65070002986
17,104,1,4,0.5,-0.5,-0.5,3,3,0.3,3,649,1,1,649,1,0,0,NaN,-0.197251390518512,-0.197251390518512,750,1,0,congruent,1,1724.77418230479,1448.2564060634
17,104,1,5,0.5,-0.5,0.5,4,2,0.3,4,925,1,0,925,0,0,0.4,NaN,1.76633458751442,1.76633458751442,750,0,0,incongruent,0,5585.38108572183,18877.2685991084
17,104,1,6,0.5,-0.5,0,3,NaN,0.3,2,666,0,1,NaN,0,0,0.4,NaN,-0.0763058773788021,NaN,750,0,1,neutral,0,2330.17148437198,1339.78066438502
17,104,1,7,0.5,0.5,0.5,4,3,0.3,4,547,1,1,547,1,0,0.4,NaN,-0.922924469356771,-0.922924469356771,750,0,0,incongruent,1,4341.76481002218,3072.73515804224
17,104,1,8,0.5,0.5,0.5,3,4,0.3,3,927,1,0,927,0,0,0.8,NaN,1.78056347141321,1.78056347141321,750,0,0,incongruent,0,3533.63140682305,4426.33241859479
17,104,1,9,0.5,-0.5,0.5,2,3,0.2,2,948,1,0,948,1,0,0.8,NaN,1.9299667523505,1.9299667523505,750,0,0,incongruent,1,5855.33846729395,5420.94529675504
17,104,1,10,-0.5,0.5,-0.5,4,4,0.2,4,371,1,1,371,1,0,0.8,0,-2.17506625245024,-2.17506625245024,750,1,0,congruent,0.1,9881.24678647181,927.653742817675
17,104,1,11,0.5,-0.5,0,2,NaN,0.4,2,549,1,1,549,1,0,1,NaN,-0.908695585457982,-0.908695585457982,750,0,0,neutral,1,6950.21137677164,1098.13565907198
17,104,1,12,0.5,0.5,-0.5,1,1,0.4,1,831,1,0,831,0,0,1.4,NaN,1.09757704427132,1.09757704427132,750,1,0,congruent,0,3993.04614622006,2788.26979966461
17,104,1,14,0.5,-0.5,0,1,NaN,0.4,1,825,1,0,825,1,0,1,NaN,1.05489039257495,1.05489039257495,750,0,0,neutral,1,4208.37872454439,11530.282437367
17,104,1,15,-0.5,0.5,-0.5,4,4,0.4,4,604,1,1,604,1,0,1,0.2,-0.517401278241273,-0.517401278241273,750,1,0,congruent,0.1,10651.3211515013,2799.34899367531
17,104,1,16,-0.5,0.5,-0.5,2,2,0.6,3,769,0,0,NaN,0,0,1,0.4,0.656481643408852,NaN,750,0,1,congruent,0,7023.58973354397,2855.9760542279
17,104,1,18,0.5,0.5,-0.5,4,4,0.4,2,583,0,1,NaN,0,0,0.6,NaN,-0.666804559178562,NaN,750,0,1,congruent,0,2334.60363672553,4971.06918013389
17,104,1,19,0.5,0.5,0.5,3,1,0.4,3,871,1,0,871,0,0,0.6,NaN,1.38215472224711,1.38215472224711,750,0,0,incongruent,0,7199.21762200705,4735.19458368005
17,104,1,20,0.5,-0.5,0.5,1,2,0.2,1,831,1,0,831,0,0,0.2,NaN,1.09757704427132,1.09757704427132,750,0,0,incongruent,0,1716.31697787331,2057.09081416017
17,104,1,21,0.5,-0.5,0.5,3,4,0.2,3,991,1,0,991,1,0,0,NaN,2.23588775617447,2.23588775617447,750,0,0,incongruent,1,4509.74641505858,7630.45175794077
17,104,1,22,-0.5,-0.5,0,4,NaN,0.2,4,611,1,1,611,1,0,0.4,0,-0.467600184595511,-0.467600184595511,750,0,0,neutral,0.1,1946.40531789906,2315.21116910585
17,104,1,23,-0.5,0.5,-0.5,1,1,0.2,1,852,1,0,852,0,0,0.6,0.4,1.24698032520861,1.24698032520861,750,1,0,congruent,0,3579.82595671272,7859.71773242975
17,104,1,24,-0.5,0.5,0.5,3,4,0.2,3,797,1,0,797,0,0,0.6,0.4,0.855686017991903,0.855686017991903,750,0,0,incongruent,0,2480.16058158675,4004.15781560925
17,104,1,25,-0.5,0.5,0.5,4,3,0,4,425,1,1,425,1,0,0.6,0.4,-1.79088638718292,-1.79088638718292,750,0,0,incongruent,0.1,3968.04260315667,1542.24574899556
17,104,1,26,0.5,-0.5,0.5,2,1,0.2,2,908,1,0,908,0,0,0.8,NaN,1.64538907437471,1.64538907437471,750,0,0,incongruent,0,5693.85984236593,9642.75233816745
17,104,1,27,-0.5,-0.5,0,1,NaN,0.2,3,752,0,0,NaN,0,0,0.4,0.2,0.535536130269142,NaN,750,0,1,neutral,0,4665.57946389324,3417.27585487695
17,104,1,28,-0.5,-0.5,-0.5,4,4,0.2,4,720,1,1,720,0,0,0.2,0.2,0.307873987888512,0.307873987888512,750,1,0,congruent,0,12590.767254221,815.766626193399
17,104,1,29,-0.5,0.5,0,2,NaN,0.2,2,866,1,0,866,0,0,0.2,0.4,1.34658251250014,1.34658251250014,750,0,0,neutral,0,932.628202883912,5478.72308215735
17,104,1,30,0.5,0.5,-0.5,1,1,0.2,1,943,1,0,943,0,0,0.2,NaN,1.89439454260353,1.89439454260353,750,1,0,congruent,0,3255.82103302383,5318.79187348836
17,104,1,32,-0.5,-0.5,-0.5,4,4,0.2,4,626,1,1,626,1,0,0,0.2,-0.36088355535459,-0.36088355535459,750,1,0,congruent,0.1,5611.67414390922,4035.0060548582
17,104,1,33,-0.5,0.5,0.5,3,2,0.2,3,928,1,0,928,0,0,0.2,0.2,1.78767791336261,1.78767791336261,750,0,0,incongruent,0,6449.18978574608,17268.2659791781
17,104,1,34,-0.5,0.5,0.5,4,3,0.2,4,701,1,1,701,1,0,0.2,0.2,0.172699590850012,0.172699590850012,750,0,0,incongruent,0.1,8293.23390855208,3416.52029675872
17,104,1,36,-0.5,-0.5,0.5,2,4,0.4,2,863,1,0,863,1,0,0.4,0.4,1.32523918665195,1.32523918665195,750,0,0,incongruent,0.1,14860.3203354852,8315.83401204034
17,104,1,37,-0.5,0.5,-0.5,3,3,0.4,3,493,1,1,493,1,0,0.6,0.4,-1.30710433462408,-1.30710433462408,750,1,0,congruent,0.1,7489.61062573716,2297.96900311971
17,104,1,38,-0.5,-0.5,-0.5,1,1,0.4,1,830,1,0,830,1,0,0.6,0.6,1.09046260232193,1.09046260232193,750,1,0,congruent,0.1,1130.89322713585,5800.78608916981
17,104,1,41,-0.5,0.5,-0.5,4,4,0.4,4,629,1,1,629,1,0,0.6,0.6,-0.339540229506406,-0.339540229506406,750,1,0,congruent,0.1,3756.03131644553,770.548325058604
17,104,1,42,-0.5,0.5,0,3,NaN,0.6,3,385,1,1,385,1,0,0.6,0.6,-2.07546406515871,-2.07546406515871,750,0,0,neutral,0.1,5200.67814742453,2089.14173581954
17,104,1,43,-0.5,-0.5,0.5,1,2,0.8,1,916,1,0,916,0,0,0.6,0.6,1.70230460996987,1.70230460996987,750,0,0,incongruent,0,3165.50302566104,1651.76589725898
17,104,1,44,0.5,-0.5,-0.5,4,4,0.8,4,679,1,1,679,0,0,0.4,NaN,0.016181867963329,0.016181867963329,750,1,0,congruent,0,2802.144261912,7827.84800550232
17,104,1,45,0.5,-0.5,-0.5,3,3,0.8,3,589,1,1,589,1,0,0.4,NaN,-0.624117907482194,-0.624117907482194,750,1,0,congruent,1,5303.7804773479,1841.15251782041
17,104,1,46,-0.5,0.5,0,2,NaN,0.8,2,754,1,0,754,0,0,0.8,0.8,0.549765014167931,0.549765014167931,750,0,0,neutral,0,5397.50742331848,2111.48056195666
17,104,1,47,-0.5,-0.5,-0.5,4,4,0.6,3,587,0,1,NaN,1,0,0.6,0.6,-0.638346791380983,NaN,750,0,1,congruent,0.1,5916.12729597243,2529.3960339548
17,104,1,48,-0.5,-0.5,0,1,NaN,0.6,1,821,1,0,821,1,0,0.6,0.8,1.02643262477738,1.02643262477738,750,0,0,neutral,0.1,4200.865897342,8827.78274286786
17,104,1,49,0.5,0.5,0.5,3,4,0.6,3,725,1,1,725,1,0,0.8,NaN,0.343446197635485,0.343446197635485,750,0,0,incongruent,1,5614.53530587518,978.677694577459
17,104,1,50,0.5,0.5,0,4,NaN,0.6,4,596,1,1,596,1,0,1.2,NaN,-0.574316813836431,-0.574316813836431,750,0,0,neutral,1,1384.08224777749,1704.95721036519
17,104,1,53,-0.5,-0.5,0.5,4,1,0.4,2,719,0,1,NaN,0,0,1,0.8,0.300759545939117,NaN,750,0,1,incongruent,0,2645.32265890507,2175.88484920868
17,104,1,55,0.5,0.5,-0.5,4,4,0.4,4,610,1,1,610,1,0,0.8,NaN,-0.474714626544905,-0.474714626544905,750,1,0,congruent,1,2323.92141881442,6113.8413167283
17,104,1,56,-0.5,0.5,-0.5,2,2,0.6,2,848,1,0,848,0,0,0.8,0.8,1.21852255741103,1.21852255741103,750,1,0,congruent,0,9370.92567851202,1533.49461521222
17,104,1,57,0.5,0.5,-0.5,4,4,0.4,4,540,1,1,540,1,0,0.8,NaN,-0.972725563002534,-0.972725563002534,750,1,0,congruent,1,6779.10274234721,3534.0850006125
17,104,1,59,0.5,-0.5,0,1,NaN,0.4,1,764,1,0,764,1,0,1.2,NaN,0.620909433661878,0.620909433661878,750,0,0,neutral,1,10974.1281067144,2339.63423173619
17,104,1,60,0.5,0.5,-0.5,4,4,0.4,4,576,1,1,576,1,0,1.2,NaN,-0.716605652824325,-0.716605652824325,750,1,0,congruent,1,5871.16529482771,4019.23279523602
17,104,1,61,-0.5,-0.5,0.5,2,1,0.6,2,680,1,1,680,0,0,1.2,0.6,0.0232963099127237,0.0232963099127237,750,0,0,incongruent,0,7885.22646499927,5021.09807265726
17,104,1,62,-0.5,0.5,0,3,NaN,0.6,3,606,1,1,606,1,0,1.2,0.4,-0.503172394342484,-0.503172394342484,750,0,0,neutral,0.1,4178.41158212183,929.588325518155
17,104,1,64,0.5,0.5,0.5,1,2,0.6,2,651,0,1,NaN,0,0,1,NaN,-0.183022506619723,NaN,750,1,0,incongruent,0,2049.67634154951,1208.77738560179
17,104,1,65,0.5,-0.5,0,2,NaN,0.4,2,664,1,1,664,0,0,0.6,NaN,-0.0905347612775915,-0.0905347612775915,750,0,0,neutral,0,3409.77640159504,5052.27615702801
17,104,1,66,-0.5,0.5,0.5,3,1,0.4,3,640,1,1,640,1,0,0.2,0.2,-0.261281368063064,-0.261281368063064,750,0,0,incongruent,0.1,6813.9785812981,3925.82907127651
17,104,1,67,0.5,-0.5,0,1,NaN,0.6,2,670,0,1,NaN,0,0,0.4,NaN,-0.0478481095812233,NaN,750,0,1,neutral,0,5510.32646297186,2366.10768714939
17,104,1,68,-0.5,-0.5,-0.5,4,4,0.6,4,990,1,0,990,1,0,0.2,0.4,2.22877331422508,2.22877331422508,750,1,0,congruent,0.1,1786.78793389633,5248.67235585885
17,104,1,69,0.5,0.5,0,2,NaN,0.6,2,615,1,1,615,1,0,0.4,NaN,-0.439142416797932,-0.439142416797932,750,0,0,neutral,1,6221.03394868809,2387.05280399372
17,104,1,70,-0.5,0.5,-0.5,3,3,0.6,2,548,0,1,NaN,0,0,0.8,0.4,-0.915810027407376,NaN,750,0,1,congruent,0,2032.77625198699,3777.97544725701
17,104,1,71,-0.5,-0.5,0.5,2,4,0.4,2,758,1,0,758,1,0,0.8,0.6,0.57822278196551,0.57822278196551,750,0,0,incongruent,0.1,2874.1255423705,1656.42490078061
17,104,1,72,0.5,-0.5,0,1,NaN,0.4,4,539,0,1,NaN,0,0,0.8,NaN,-0.979840004951929,NaN,750,0,1,neutral,0,14820.9118999575,4612.59656883219
17,104,1,73,-0.5,0.5,-0.5,3,3,0.4,2,485,0,1,NaN,0,0,0.8,0.4,-1.36401987021924,NaN,750,0,1,congruent,0,2330.39303813012,1001.19178155278
17,104,1,74,0.5,-0.5,0.5,2,1,0.4,2,859,1,0,859,0,0,0.6,NaN,1.29678141885437,1.29678141885437,750,0,0,incongruent,0,931.420741788628,1668.13577377239
17,104,1,76,-0.5,0.5,-0.5,1,1,0.4,1,602,1,1,602,1,0,0.2,0.4,-0.531630162140063,-0.531630162140063,750,1,0,congruent,0.1,989.237493964493,5640.19736827775
17,104,1,77,-0.5,-0.5,0.5,4,2,0.6,4,525,1,1,525,0,0,0.2,0.4,-1.07944219224345,-1.07944219224345,750,0,0,incongruent,0,5633.98708978385,2145.9611112449
17,104,1,78,0.5,-0.5,0.5,1,4,0.6,1,566,1,1,566,1,0,0.2,NaN,-0.787750072318272,-0.787750072318272,750,0,0,incongruent,1,7656.55869304287,3820.33860845267
17,104,1,79,0.5,-0.5,0,4,NaN,0.6,4,560,1,1,560,1,0,0.6,NaN,-0.83043672401464,-0.83043672401464,750,0,0,neutral,1,7426.11416570635,2576.51788947299
17,104,1,80,0.5,-0.5,0.5,1,2,0.6,1,735,1,1,735,1,0,1,NaN,0.414590617129432,0.414590617129432,750,0,0,incongruent,1,4203.19726952596,718.30621307988
17,104,1,81,0.5,-0.5,0,2,NaN,0.6,2,563,1,1,563,0,0,1.4,NaN,-0.809093398166456,-0.809093398166456,750,0,0,neutral,0,5197.75316479769,1263.20038868009
17,104,1,82,-0.5,-0.5,-0.5,4,4,0.6,4,416,1,1,416,1,0,1.2,0.4,-1.85491636472748,-1.85491636472748,750,1,0,congruent,0.1,10351.6483948811,1002.34310961726
17,104,1,84,0.5,0.5,-0.5,4,4,0.4,4,549,1,1,549,1,0,1,NaN,-0.908695585457982,-0.908695585457982,750,1,0,congruent,1,2597.11775363586,1997.34055584375
17,104,1,85,0.5,-0.5,0,1,NaN,0.4,1,553,1,1,553,0,0,1,NaN,-0.880237817660403,-0.880237817660403,750,0,0,neutral,0,2770.35009505659,6012.93695216902
17,104,1,86,-0.5,0.5,0.5,2,4,0.4,2,690,1,1,690,1,0,0.6,0.4,0.0944407294066706,0.0944407294066706,750,0,0,incongruent,0.1,2816.1794448679,2605.81494424047
17,104,1,87,0.5,-0.5,0.5,4,1,0.6,4,495,1,1,495,1,0,0.8,NaN,-1.2928754507253,-1.2928754507253,750,0,0,incongruent,1,8901.2580577201,2472.02891104956
17,104,1,89,0.5,0.5,-0.5,4,4,0.6,4,348,1,1,348,1,0,1.2,NaN,-2.33869841728632,-2.33869841728632,750,1,0,congruent,1,4414.10080835493,1384.6369714291
17,104,1,90,-0.5,0.5,0,2,NaN,0.8,2,796,1,0,796,0,0,1.2,0.4,0.848571576042509,0.848571576042509,750,0,0,neutral,0,6863.75444758912,1206.63006728726
17,104,1,91,-0.5,0.5,-0.5,3,3,0.6,2,619,0,1,NaN,0,0,1.2,0.4,-0.410684649000353,NaN,750,0,1,congruent,0,14603.2929745634,2070.9741206306
17,104,1,92,0.5,-0.5,0,4,NaN,0.6,4,530,1,1,530,1,0,1,NaN,-1.04386998249648,-1.04386998249648,750,0,0,neutral,1,5755.53908775253,3091.75206077192
17,104,1,93,-0.5,0.5,0.5,3,4,0.6,3,832,1,0,832,0,0,1,0.4,1.10469148622072,1.10469148622072,750,0,0,incongruent,0,6910.75813979124,3360.7778941854
17,104,1,94,-0.5,-0.5,0.5,2,1,0.4,2,727,1,1,727,1,0,0.8,0.6,0.357675081534274,0.357675081534274,750,0,0,incongruent,0.1,2095.54038919438,3048.14794291594
17,104,1,96,-0.5,-0.5,0,3,NaN,0.4,3,641,1,1,641,0,0,0.6,0.6,-0.25416692611367,-0.25416692611367,750,0,0,neutral,0,6451.5605413989,852.976343934234
17,104,1,97,0.5,-0.5,-0.5,2,2,0.4,2,426,1,1,426,0,0,0.6,NaN,-1.78377194523353,-1.78377194523353,750,1,0,congruent,0,3851.08491671785,1580.06456306794
17,104,1,98,-0.5,-0.5,-0.5,3,3,0.4,3,733,1,1,733,1,0,0.2,0.6,0.400361733230643,0.400361733230643,750,1,0,congruent,0.1,22768.3112248473,6155.08319346225
17,104,1,99,-0.5,-0.5,-0.5,1,1,0.4,1,358,1,1,358,0,0,0.4,0.8,-2.26755399779237,-2.26755399779237,750,1,0,congruent,0,2726.824162357,1804.74977645728
17,104,1,100,0.5,0.5,0,4,NaN,0.4,4,417,1,1,417,1,0,0.2,NaN,-1.84780192277808,-1.84780192277808,750,0,0,neutral,1,1534.93757225318,4777.6396138495
17,104,1,101,0.5,-0.5,-0.5,2,2,0.4,2,495,1,1,495,0,0,0.6,NaN,-1.2928754507253,-1.2928754507253,750,1,0,congruent,0,6092.51578199231,9032.54071536151
17,104,1,103,0.5,0.5,-0.5,2,2,0.4,2,497,1,1,497,1,0,0.6,NaN,-1.27864656682651,-1.27864656682651,750,1,0,congruent,1,3475.29589377736,4295.87158692663
17,104,1,104,-0.5,0.5,-0.5,3,3,0.4,3,943,1,0,943,0,0,0.8,0.2,1.89439454260353,1.89439454260353,750,1,0,congruent,0,2404.95096585691,2831.77607928833
17,104,1,105,0.5,-0.5,0.5,4,2,0.4,4,525,1,1,525,0,0,0.8,NaN,-1.07944219224345,-1.07944219224345,750,0,0,incongruent,0,4468.45812638606,2379.28455664628
17,104,1,106,-0.5,-0.5,0.5,2,3,0.4,3,664,0,1,NaN,1,0,0.4,0.4,-0.0905347612775915,NaN,750,1,0,incongruent,0.1,7870.2602217394,4088.56973284618
17,104,1,107,-0.5,-0.5,0,3,NaN,0.4,3,543,1,1,543,0,0,0.6,0.4,-0.95138223715435,-0.95138223715435,750,0,0,neutral,0,6372.80853226729,735.639001417623
17,104,1,108,-0.5,0.5,-0.5,4,4,0.4,4,400,1,1,400,1,0,0.6,0.2,-1.96874743591779,-1.96874743591779,750,1,0,congruent,0.1,3152.59344979121,1921.2717138406
17,104,1,109,0.5,-0.5,-0.5,1,1,0.6,1,389,1,1,389,0,0,0.4,NaN,-2.04700629736113,-2.04700629736113,750,1,0,congruent,0,1484.9249181363,379.028421042204
17,104,1,110,-0.5,-0.5,0,4,NaN,0.6,3,710,0,1,NaN,1,0,0.4,0.4,0.236729568394565,NaN,750,0,1,neutral,0.1,22871.1254498515,3190.53930129218
17,104,1,112,0.5,0.5,0,4,NaN,0.6,4,563,1,1,563,1,0,0.4,NaN,-0.809093398166456,-0.809093398166456,750,0,0,neutral,1,4264.60397320841,2073.99546112615
17,104,1,113,-0.5,-0.5,0.5,1,2,0.8,1,949,1,0,949,0,0,0.8,0.4,1.9370811942999,1.9370811942999,750,0,0,incongruent,0,951.091765784202,3271.42433320835
17,104,1,114,0.5,-0.5,0.5,3,1,0.8,4,949,0,0,NaN,1,0,0.6,NaN,1.9370811942999,NaN,750,0,1,incongruent,1,1658.69702416013,3427.66901612995
17,104,1,115,0.5,-0.5,0,2,NaN,0.8,2,917,1,0,917,1,0,1,NaN,1.70941905191927,1.70941905191927,750,0,0,neutral,1,1523.77285355223,4805.92594126002
17,104,1,116,0.5,-0.5,-0.5,1,1,0.8,1,705,1,1,705,1,0,1.2,NaN,0.201157358647591,0.201157358647591,750,1,0,congruent,1,5103.50928583528,835.489697781607
17,104,1,117,0.5,-0.5,0.5,3,2,0.8,3,436,1,1,436,1,0,1.6,NaN,-1.71262752573958,-1.71262752573958,750,0,0,incongruent,1,6816.43419949942,4504.22619826664
17,104,1,118,0.5,0.5,0,4,NaN,0.8,4,496,1,1,496,1,0,1.6,NaN,-1.2857610087759,-1.2857610087759,750,0,0,neutral,1,810.133060722037,7644.45122207157
17,104,1,119,0.5,-0.5,-0.5,3,3,0.8,3,877,1,0,877,1,0,2,NaN,1.42484137394348,1.42484137394348,750,1,0,congruent,1,16198.530674861,1565.74665025387
17,104,1,120,-0.5,0.5,0,4,NaN,0.8,4,753,1,0,753,0,0,2,0.2,0.542650572218537,0.542650572218537,750,0,0,neutral,0,2606.74955395049,3709.1237206458
17,104,1,121,-0.5,-0.5,-0.5,3,3,0.6,2,564,0,1,NaN,0,0,1.6,0.4,-0.801978956217061,NaN,750,0,1,congruent,0,4281.76689898434,3120.41324625295
17,104,1,123,0.5,0.5,-0.5,1,1,0.6,1,742,1,1,742,1,0,0.8,NaN,0.464391710775195,0.464391710775195,750,1,0,congruent,1,1414.66664187499,5669.62610767771
17,104,1,124,-0.5,0.5,0,3,NaN,0.6,3,687,1,1,687,1,0,0.8,0.2,0.0730974035584866,0.0730974035584866,750,0,0,neutral,0.1,4129.02268730374,4412.30647891021
17,104,1,125,0.5,0.5,-0.5,1,1,0.6,1,582,1,1,582,1,0,0.6,NaN,-0.673919001127957,-0.673919001127957,750,1,0,congruent,1,1340.65350170929,3104.88185223172
17,104,1,126,0.5,0.5,0.5,3,2,0.6,2,852,0,0,NaN,0,0,1,NaN,1.24698032520861,NaN,750,1,0,incongruent,0,4013.7742297636,1265.48593016882
17,104,1,127,0.5,-0.5,0,2,NaN,0.6,3,790,0,0,NaN,0,0,1,NaN,0.80588492434614,NaN,750,0,1,neutral,0,3826.32965952498,1820.32828856172
17,104,1,128,-0.5,0.5,-0.5,1,1,0.6,1,598,1,1,598,1,0,1,0.4,-0.560087929937642,-0.560087929937642,750,1,0,congruent,0.1,1075.78136384036,926.739336305827
17,104,1,129,0.5,0.5,0,3,NaN,0.8,3,565,1,1,565,1,0,0.8,NaN,-0.794864514267667,-0.794864514267667,750,0,0,neutral,1,2251.22117440667,2331.06863541621
17,104,1,131,0.5,0.5,0,3,NaN,0.8,3,655,1,1,655,1,0,1,NaN,-0.154564738822144,-0.154564738822144,750,0,0,neutral,1,4917.30202521569,4555.56270679032
17,104,1,134,0.5,0.5,-0.5,4,4,0.6,4,783,1,0,783,0,0,1.2,NaN,0.756083830700378,0.756083830700378,750,1,0,congruent,0,2516.94948673488,6113.14020337353
17,104,1,135,-0.5,0.5,0.5,1,2,0.4,2,897,0,0,NaN,0,0,0.8,0.4,1.56713021293137,NaN,750,1,0,incongruent,0,8263.01044000183,4994.99890784433
17,104,1,136,0.5,0.5,0.5,4,3,0.2,4,890,1,0,890,0,0,0.4,NaN,1.51732911928561,1.51732911928561,750,0,0,incongruent,0,4521.49553610596,5479.97230511896
17,104,1,137,0.5,-0.5,-0.5,2,2,0,2,795,1,0,795,0,0,0,NaN,0.841457134093114,0.841457134093114,750,1,0,congruent,0,6529.58057015644,2615.33787110154
17,104,1,138,-0.5,0.5,0,3,NaN,0,3,638,1,1,638,1,0,0,0.4,-0.275510251961854,-0.275510251961854,750,0,0,neutral,0.1,2177.84298033934,886.180297825607
17,104,1,139,0.5,-0.5,-0.5,4,4,0.2,4,801,1,0,801,0,0,0.2,NaN,0.884143785789482,0.884143785789482,750,1,0,congruent,0,7497.66920409175,10213.0676039524
17,104,1,140,-0.5,0.5,-0.5,2,2,0.2,2,659,1,1,659,1,0,0.2,0.6,-0.126106971024565,-0.126106971024565,750,1,0,congruent,0.1,2503.0281244859,680.653133402081
17,104,1,141,-0.5,-0.5,-0.5,3,3,0.4,3,805,1,0,805,0,0,0.4,0.2,0.912601553587061,0.912601553587061,750,1,0,congruent,0,19474.9851056059,2458.55137118636
17,104,1,142,-0.5,-0.5,0.5,1,4,0.4,1,769,1,0,769,1,0,0.4,0.2,0.656481643408852,0.656481643408852,750,0,0,incongruent,0.1,3128.56097358778,4259.26106155041
17,104,1,143,-0.5,-0.5,-0.5,3,3,0.4,3,501,1,1,501,0,0,0.6,0.2,-1.25018879902893,-1.25018879902893,750,1,0,congruent,0,8448.23255855284,330.43636364581
17,104,1,144,-0.5,0.5,0.5,1,4,0.4,1,702,1,1,702,1,0,0.4,0.6,0.179814032799407,0.179814032799407,750,0,0,incongruent,0.1,2915.83834973376,3105.28369112388
17,104,1,145,0.5,-0.5,-0.5,3,3,0.6,3,696,1,1,696,1,0,0.6,NaN,0.137127381103039,0.137127381103039,750,1,0,congruent,1,15925.4854970987,3613.14651792132
17,104,1,146,-0.5,-0.5,0,2,NaN,0.6,2,750,1,1,750,1,0,0.8,0.2,0.521307246370353,0.521307246370353,750,0,0,neutral,0.1,3056.66437627016,9733.42826149713
17,104,1,147,-0.5,0.5,0.5,3,1,0.6,3,854,1,0,854,0,0,1,0.6,1.2612092091074,1.2612092091074,750,0,0,incongruent,0,3309.20679248556,4514.70424969588
17,104,1,148,0.5,-0.5,-0.5,4,4,0.6,4,559,1,1,559,1,0,0.8,NaN,-0.837551165964035,-0.837551165964035,750,1,0,congruent,1,1789.0923091182,1788.31500202854
17,104,1,149,0.5,-0.5,0.5,3,1,0.6,3,586,1,1,586,0,0,1.2,NaN,-0.645461233330378,-0.645461233330378,750,0,0,incongruent,0,5244.08972982006,3227.33241442052
17,104,1,150,-0.5,0.5,0.5,1,2,0.6,1,885,1,0,885,0,0,1,0.6,1.48175690953864,1.48175690953864,750,0,0,incongruent,0,7280.53940660678,1687.17779363071
17,104,2,151,0.5,0.5,0.5,3,4,0.6,3,697,1,1,697,1,0,0.6,NaN,0.144241823052434,0.144241823052434,750,0,0,incongruent,1,1276.71623897026,1002.10299872198
17,104,2,152,0.5,0.5,0,1,NaN,0.6,1,369,1,1,369,1,0,0.8,NaN,-2.18929513634903,-2.18929513634903,750,0,0,neutral,1,3577.70186141867,1365.42847824611
17,104,2,153,-0.5,-0.5,-0.5,3,3,0.6,3,467,1,1,467,1,0,1.2,0.4,-1.49207982530835,-1.49207982530835,750,1,0,congruent,0.1,3283.49733975794,986.776728885904
17,104,2,154,-0.5,-0.5,-0.5,4,4,0.6,4,583,1,1,583,1,0,1,0.6,-0.666804559178562,-0.666804559178562,750,1,0,congruent,0.1,1638.73725570934,2606.03334059277
17,104,2,155,0.5,-0.5,-0.5,2,2,0.6,2,809,1,0,809,1,0,1.2,NaN,0.94105932138464,0.94105932138464,750,1,0,congruent,1,7441.84730897709,2672.73026166117
17,104,2,156,-0.5,-0.5,0.5,3,4,0.6,3,649,1,1,649,0,0,1.6,0.8,-0.197251390518512,-0.197251390518512,750,0,0,incongruent,0,4441.39310322534,4549.64713882887
17,104,2,157,0.5,-0.5,0.5,1,2,0.6,2,554,0,1,NaN,1,0,1.2,NaN,-0.873123375711008,NaN,750,1,0,incongruent,1,12301.4869216166,2563.42638558966
17,104,2,158,0.5,-0.5,-0.5,3,3,0.6,3,515,1,1,515,1,0,1.2,NaN,-1.1505866117374,-1.1505866117374,750,1,0,congruent,1,2377.84056014056,3424.29795932654
17,104,2,159,-0.5,-0.5,0,1,NaN,0.6,4,678,0,1,NaN,1,0,1.4,0.6,0.00906742601393426,NaN,750,0,1,neutral,0.1,5020.49797421448,2556.41021768372
17,104,2,161,0.5,0.5,-0.5,2,2,0.6,2,543,1,1,543,1,0,1,NaN,-0.95138223715435,-0.95138223715435,750,1,0,congruent,1,8091.36984502239,3885.8199836699
17,104,2,163,0.5,-0.5,0.5,4,3,0.6,3,529,0,1,NaN,0,0,1,NaN,-1.05098442444588,NaN,750,1,0,incongruent,0,18955.1446942161,2808.68069122029
17,104,2,164,0.5,0.5,-0.5,2,2,0.6,3,763,0,0,NaN,0,0,0.6,NaN,0.613794991712484,NaN,750,0,1,congruent,0,1988.63427750435,8403.31766569951
17,104,2,165,-0.5,0.5,0,4,NaN,0.6,1,688,0,1,NaN,0,0,0.4,0.4,0.0802118455078812,NaN,750,0,1,neutral,0,14929.9270672796,1438.33422208382
17,104,2,167,-0.5,-0.5,-0.5,4,4,0.4,4,751,1,0,751,1,0,0.4,0.6,0.528421688319747,0.528421688319747,750,1,0,congruent,0.1,13864.1830716202,2881.25121666836
17,104,2,168,0.5,0.5,0.5,2,1,0.4,2,735,1,1,735,1,0,0.6,NaN,0.414590617129432,0.414590617129432,750,0,0,incongruent,1,5683.59223529916,941.761757519932
17,104,2,169,0.5,0.5,0,3,NaN,0.4,4,662,0,1,NaN,0,0,1,NaN,-0.104763645176381,NaN,750,0,1,neutral,0,7064.84308421561,1862.39883341449
17,104,2,170,0.5,0.5,-0.5,1,1,0.2,1,744,1,1,744,1,0,1,NaN,0.478620594673984,0.478620594673984,750,1,0,congruent,1,12406.7343423459,3911.06462246113
17,104,2,171,0.5,0.5,0.5,4,3,0.4,4,450,1,1,450,1,0,1.4,NaN,-1.61302533844806,-1.61302533844806,750,0,0,incongruent,1,2137.08558521618,3059.42987868252
17,104,2,172,0.5,0.5,-0.5,1,1,0.6,1,909,1,0,909,0,0,1.4,NaN,1.65250351632411,1.65250351632411,750,1,0,congruent,0,14733.3163143839,5903.09744730674
17,104,2,173,-0.5,-0.5,-0.5,4,4,0.6,2,616,0,1,NaN,0,0,1.2,0.6,-0.432027974848537,NaN,750,0,1,congruent,0,4041.44324731252,3446.21787500613
17,104,2,174,0.5,-0.5,-0.5,3,3,0.6,3,668,1,1,668,1,0,0.8,NaN,-0.0620769934800127,-0.0620769934800127,750,1,0,congruent,1,4346.25544775291,4194.4418298537
17,104,2,175,-0.5,0.5,0,2,NaN,0.6,2,573,1,1,573,1,0,1.2,0.2,-0.737948978672509,-0.737948978672509,750,0,0,neutral,0.1,4573.32508786209,2352.1123622129
17,104,2,176,-0.5,0.5,0.5,3,2,0.6,3,743,1,1,743,1,0,1,0.2,0.47150615272459,0.47150615272459,750,0,0,incongruent,0.1,7577.18830463254,2792.25308862228
17,104,2,177,0.5,0.5,-0.5,4,4,0.8,4,724,1,1,724,1,0,0.8,NaN,0.33633175568609,0.33633175568609,750,1,0,congruent,1,4005.36186480774,5202.97450455153
17,104,2,178,-0.5,-0.5,0,2,NaN,0.8,3,611,0,1,NaN,1,0,1.2,0.4,-0.467600184595511,NaN,750,0,1,neutral,0.1,16771.0251882421,4425.43854074944
17,104,2,179,0.5,-0.5,-0.5,4,4,0.8,4,922,1,0,922,1,0,1.4,NaN,1.74499126166624,1.74499126166624,750,1,0,congruent,1,1799.57259611573,6981.7961946305
17,104,2,180,-0.5,-0.5,0.5,3,1,0.8,3,773,1,0,773,1,0,1.4,0.6,0.684939411206431,0.684939411206431,750,0,0,incongruent,0.1,5364.75048580016,5063.17298196156
17,104,2,181,-0.5,0.5,0.5,2,4,0.8,3,791,0,0,NaN,0,0,1.4,0.4,0.812999366295535,NaN,750,0,1,incongruent,0,6320.7724534008,2033.41918664596
17,104,2,182,0.5,0.5,0,1,NaN,0.6,1,907,1,0,907,0,0,1.2,NaN,1.63827463242532,1.63827463242532,750,0,0,neutral,0,3732.52440604948,6732.72694679655
17,104,2,183,0.5,-0.5,0.5,4,1,0.6,4,841,1,0,841,1,0,0.8,NaN,1.16872146376527,1.16872146376527,750,0,0,incongruent,1,3804.55583507303,733.72321020421
17,104,2,184,-0.5,0.5,0,2,NaN,0.6,2,710,1,1,710,1,0,1,0.4,0.236729568394565,0.236729568394565,750,0,0,neutral,0.1,2864.44421020413,2574.09486749181
17,104,2,185,0.5,-0.5,-0.5,1,1,0.6,3,953,0,0,NaN,0,0,0.8,NaN,1.96553896209748,NaN,750,0,1,congruent,0,1349.75620005216,2982.97019007131
17,104,2,186,0.5,0.5,0,3,NaN,0.6,3,660,1,1,660,1,0,0.6,NaN,-0.11899252907517,-0.11899252907517,750,0,0,neutral,1,2155.35805168253,1260.57441998257
17,104,2,188,-0.5,0.5,0,1,NaN,0.4,1,707,1,1,707,1,0,1,0.6,0.215386242546381,0.215386242546381,750,0,0,neutral,0.1,3891.45415877497,2605.36482602007
17,104,2,190,-0.5,-0.5,-0.5,3,3,0.6,3,390,1,1,390,1,0,0.6,0.6,-2.03989185541174,-2.03989185541174,750,1,0,congruent,0.1,3355.21584412396,1255.17244867334
17,104,2,191,0.5,-0.5,-0.5,1,1,0.6,1,696,1,1,696,0,0,0.8,NaN,0.137127381103039,0.137127381103039,750,1,0,congruent,0,2884.36939119621,3338.99574329624
17,104,2,193,0.5,-0.5,0,4,NaN,0.6,4,726,1,1,726,1,0,0.4,NaN,0.35056063958488,0.35056063958488,750,0,0,neutral,1,13097.1404799589,2767.86238682713
17,104,2,194,-0.5,-0.5,-0.5,1,1,0.6,3,655,0,1,NaN,0,0,0.6,0.8,-0.154564738822144,NaN,750,0,1,congruent,0,1473.90764930083,5382.84467932081
17,104,2,195,0.5,0.5,0,4,NaN,0.6,4,710,1,1,710,1,0,0.6,NaN,0.236729568394565,0.236729568394565,750,0,0,neutral,1,4582.64623223468,2675.37868156441
17,104,2,196,0.5,-0.5,-0.5,3,3,0.8,3,657,1,1,657,1,0,0.8,NaN,-0.140335854923354,-0.140335854923354,750,1,0,congruent,1,2927.01462110691,8194.3258033203
17,104,2,197,0.5,0.5,-0.5,1,1,0.8,1,782,1,0,782,0,0,1.2,NaN,0.748969388750983,0.748969388750983,750,1,0,congruent,0,2728.87188273637,977.974536014108
17,104,2,198,0.5,-0.5,0,4,NaN,0.6,4,811,1,0,811,0,0,1.2,NaN,0.955288205283429,0.955288205283429,750,0,0,neutral,0,5889.44285591727,4286.25844892295
17,104,2,200,0.5,0.5,0.5,4,1,0.4,3,631,0,1,NaN,0,0,0.8,NaN,-0.325311345607617,NaN,750,0,1,incongruent,0,9784.77184185577,5039.03853738231
17,104,2,201,0.5,0.5,-0.5,3,3,0.4,3,411,1,1,411,1,0,0.4,NaN,-1.89048857447445,-1.89048857447445,750,1,0,congruent,1,3936.51525190394,1281.55531246548
17,104,2,202,-0.5,-0.5,-0.5,4,4,0.4,4,692,1,1,692,0,0,0.4,0.6,0.10866961330546,0.10866961330546,750,1,0,congruent,0,1913.53243153027,4534.2917137048
17,104,2,203,-0.5,-0.5,-0.5,3,3,0.4,3,499,1,1,499,0,0,0.4,0.6,-1.26441768292772,-1.26441768292772,750,1,0,congruent,0,3002.66411528612,2072.444013824
17,104,2,204,0.5,0.5,0.5,2,1,0.4,2,542,1,1,542,1,0,0.4,NaN,-0.958496679103745,-0.958496679103745,750,0,0,incongruent,1,4430.96036381594,1355.96350760558
17,104,2,205,-0.5,0.5,0,4,NaN,0.4,4,655,1,1,655,1,0,0.8,0.4,-0.154564738822144,-0.154564738822144,750,0,0,neutral,0.1,2321.49778589365,1642.72495641364
17,104,2,206,0.5,-0.5,-0.5,2,2,0.6,1,475,0,1,NaN,0,0,1,NaN,-1.43516428971319,NaN,750,0,1,congruent,0,12196.7741676451,2331.00636039195
17,104,2,207,0.5,-0.5,0,4,NaN,0.6,4,572,1,1,572,1,0,0.6,NaN,-0.745063420621904,-0.745063420621904,750,0,0,neutral,1,1298.91681994593,3331.79476273529
17,104,2,208,-0.5,0.5,-0.5,2,2,0.6,3,649,0,1,NaN,0,0,1,0.6,-0.197251390518512,NaN,750,0,1,congruent,0,1358.01706913282,3141.78865630073
17,104,2,209,-0.5,0.5,-0.5,1,1,0.6,3,675,0,1,NaN,0,0,1,0.4,-0.0122758998342498,NaN,750,0,1,congruent,0,13208.7444080881,462.75066186705
17,104,2,210,0.5,0.5,0.5,4,3,0.6,4,674,1,1,674,1,0,0.6,NaN,-0.0193903417836445,-0.0193903417836445,750,0,0,incongruent,1,2106.97106912596,8299.90291129036
17,104,2,211,-0.5,-0.5,0.5,2,4,0.6,4,626,0,1,NaN,1,0,0.8,0.4,-0.36088355535459,NaN,750,1,0,incongruent,0.1,14432.4914409343,2026.94014830663
17,104,2,212,-0.5,0.5,0,4,NaN,0.6,4,784,1,0,784,0,0,1,0.4,0.763198272649772,0.763198272649772,750,0,0,neutral,0,3281.22561754504,4457.00345913852
17,104,2,213,-0.5,-0.5,0.5,3,4,0.4,3,495,1,1,495,0,0,0.6,0.4,-1.2928754507253,-1.2928754507253,750,0,0,incongruent,0,8303.27095488514,2358.4196415173
17,104,2,214,0.5,0.5,-0.5,1,1,0.4,1,724,1,1,724,1,0,0.6,NaN,0.33633175568609,0.33633175568609,750,1,0,congruent,1,4966.26516999361,2125.96457408982
17,104,2,215,0.5,0.5,0,3,NaN,0.4,3,524,1,1,524,1,0,1,NaN,-1.08655663419285,-1.08655663419285,750,0,0,neutral,1,991.57234851376,1069.98056125556
17,104,2,216,0.5,-0.5,0.5,4,3,0.6,4,748,1,1,748,1,0,1,NaN,0.507078362471563,0.507078362471563,750,0,0,incongruent,1,3858.64683852747,3450.41801044101
17,104,2,217,0.5,0.5,-0.5,2,2,0.6,4,875,0,0,NaN,0,0,1.2,NaN,1.41061249004469,NaN,750,0,1,congruent,0,6967.11585220309,3640.80601735421
17,104,2,218,0.5,-0.5,0,4,NaN,0.6,4,763,1,0,763,1,0,1.2,NaN,0.613794991712484,0.613794991712484,750,0,0,neutral,1,7825.35113371619,5190.31283938203
17,104,2,219,-0.5,0.5,-0.5,1,1,0.6,4,714,0,1,NaN,0,0,1.6,0.2,0.265187336192143,NaN,750,0,1,congruent,0,14264.003371085,3694.55547440335
17,104,2,220,0.5,0.5,0.5,2,3,0.4,2,667,1,1,667,1,0,1.2,NaN,-0.0691914354294074,-0.0691914354294074,750,0,0,incongruent,1,4073.29313503405,6295.40627797616
17,104,2,221,0.5,0.5,0.5,4,1,0.6,3,546,0,1,NaN,0,0,1.2,NaN,-0.930038911306166,NaN,750,0,1,incongruent,0,7435.79214888304,9788.14437607588
17,104,2,222,-0.5,-0.5,0.5,2,3,0.4,2,429,1,1,429,0,0,0.8,0.2,-1.76242861938535,-1.76242861938535,750,0,0,incongruent,0,6001.18921864104,9268.84300759364
17,104,2,224,0.5,0.5,0.5,2,3,0.4,4,558,0,1,NaN,0,0,0.4,NaN,-0.84466560791343,NaN,750,0,1,incongruent,0,9888.50222263966,977.269914536538
17,104,2,225,0.5,0.5,0.5,1,4,0.2,1,807,1,0,807,0,0,0.4,NaN,0.92683043748585,0.92683043748585,750,0,0,incongruent,0,4182.69645236805,952.133060952122
17,104,2,226,-0.5,-0.5,0,4,NaN,0.2,4,641,1,1,641,1,0,0,0.2,-0.25416692611367,-0.25416692611367,750,0,0,neutral,0.1,3380.5168868142,1735.19111387764
17,104,2,227,-0.5,0.5,-0.5,2,2,0.2,2,461,1,1,461,1,0,0.2,0.2,-1.53476647700472,-1.53476647700472,750,1,0,congruent,0.1,1287.94581585063,894.894178696735
17,104,2,228,-0.5,0.5,-0.5,4,4,0.4,4,537,1,1,537,1,0,0.4,0.2,-0.994068888850718,-0.994068888850718,750,1,0,congruent,0.1,2873.1992774314,804.855097708913
17,104,2,229,-0.5,-0.5,0.5,2,1,0.4,2,884,1,0,884,1,0,0.6,0.4,1.47464246758924,1.47464246758924,750,0,0,incongruent,0.1,4006.16635673066,3996.11099347471
17,104,2,230,-0.5,0.5,-0.5,4,4,0.4,4,578,1,1,578,1,0,0.8,0.4,-0.702376768925536,-0.702376768925536,750,1,0,congruent,0.1,4476.04512420273,1342.38642740861
17,104,2,231,0.5,0.5,0.5,2,3,0.6,2,539,1,1,539,1,0,1,NaN,-0.979840004951929,-0.979840004951929,750,0,0,incongruent,1,3031.38429268536,1138.88350139421
17,104,2,232,-0.5,-0.5,0,4,NaN,0.8,4,560,1,1,560,1,0,1.2,0.6,-0.83043672401464,-0.83043672401464,750,0,0,neutral,0.1,16130.8384686788,1395.49532647464
17,104,2,233,0.5,0.5,-0.5,1,1,0.8,1,814,1,0,814,0,0,1.2,NaN,0.976631531131613,0.976631531131613,750,1,0,congruent,0,6735.16579007052,5944.16416232857
17,104,2,234,0.5,0.5,0.5,3,2,0.8,3,636,1,1,636,1,0,1,NaN,-0.289739135860643,-0.289739135860643,750,0,0,incongruent,1,2869.59930944893,1383.50870895252
17,104,2,235,0.5,-0.5,0,4,NaN,0.8,4,772,1,0,772,1,0,1.2,NaN,0.677824969257036,0.677824969257036,750,0,0,neutral,1,9089.96368513773,9373.3503209816
17,104,2,236,-0.5,0.5,0.5,3,1,0.8,3,557,1,1,557,1,0,1.4,0.6,-0.851780049862824,-0.851780049862824,750,0,0,incongruent,0.1,1980.23831253055,1733.34155045618
17,104,2,238,0.5,0.5,0.5,2,1,0.8,2,512,1,1,512,1,0,1.4,NaN,-1.17192993758559,-1.17192993758559,750,0,0,incongruent,1,3356.85594835457,1034.92177335027
17,104,2,239,0.5,-0.5,0.5,3,2,0.8,3,498,1,1,498,0,0,1.8,NaN,-1.27153212487711,-1.27153212487711,750,0,0,incongruent,0,5779.98142706648,1525.83852073252
17,104,2,240,0.5,0.5,-0.5,4,4,0.8,4,834,1,0,834,0,0,1.4,NaN,1.11892037011951,1.11892037011951,750,1,0,congruent,0,3878.75147115099,3518.79535959216
17,104,2,241,-0.5,-0.5,-0.5,2,2,0.6,2,656,1,1,656,0,0,1,0.6,-0.147450296872749,-0.147450296872749,750,1,0,congruent,0,9971.29433140812,4374.05712478537
17,104,2,242,0.5,0.5,0,4,NaN,0.6,3,580,0,1,NaN,0,0,0.8,NaN,-0.688147885026746,NaN,750,0,1,neutral,0,5023.1309925222,2591.7195242101
17,104,2,243,0.5,-0.5,-0.5,2,2,0.6,2,426,1,1,426,1,0,0.4,NaN,-1.78377194523353,-1.78377194523353,750,1,0,congruent,1,11525.4977185499,2447.79464136529
17,104,2,244,0.5,0.5,0,1,NaN,0.6,1,930,1,0,930,0,0,0.4,NaN,1.8019067972614,1.8019067972614,750,0,0,neutral,0,5235.08829903108,2087.21382506608
17,104,2,245,-0.5,-0.5,-0.5,3,3,0.4,3,542,1,1,542,1,0,0.4,0.6,-0.958496679103745,-0.958496679103745,750,1,0,congruent,0.1,6409.72239994051,1510.50717360249
17,104,2,247,-0.5,0.5,-0.5,1,1,0.4,1,944,1,0,944,0,0,0.8,0.8,1.90150898455292,1.90150898455292,750,1,0,congruent,0,14121.0984534283,2617.78298162476
17,104,2,248,-0.5,-0.5,0,4,NaN,0.2,3,531,0,1,NaN,0,0,0.8,0.8,-1.03675554054709,NaN,750,0,1,neutral,0,5865.75279175072,3468.37455649603
17,104,2,250,-0.5,0.5,0.5,3,2,0.2,3,755,1,0,755,0,0,0.8,0.8,0.556879456117326,0.556879456117326,750,0,0,incongruent,0,1894.87356431861,2244.43303374736
17,104,2,251,-0.5,-0.5,-0.5,1,1,0.2,1,764,1,0,764,1,0,0.6,0.6,0.620909433661878,0.620909433661878,750,1,0,congruent,0.1,2079.00126430882,2074.02013811214
17,104,2,253,0.5,0.5,-0.5,3,3,0.2,3,411,1,1,411,1,0,0.6,NaN,-1.89048857447445,-1.89048857447445,750,1,0,congruent,1,2769.04284533419,719.008193936388
17,104,2,254,0.5,-0.5,0.5,4,1,0.4,4,979,1,0,979,1,0,1,NaN,2.15051445278174,2.15051445278174,750,0,0,incongruent,1,923.240311941351,4969.11978933501
17,104,2,255,-0.5,0.5,0.5,1,2,0.4,1,761,1,0,761,0,0,1,0.6,0.599566107813694,0.599566107813694,750,0,0,incongruent,0,6172.02028598611,3427.97137961258
17,104,2,257,-0.5,-0.5,0,1,NaN,0.4,1,841,1,0,841,0,0,1,0.6,1.16872146376527,1.16872146376527,750,0,0,neutral,0,9403.4319387976,4834.76563206666
17,104,2,258,0.5,-0.5,-0.5,4,4,0.4,4,809,1,0,809,0,0,1,NaN,0.94105932138464,0.94105932138464,750,1,0,congruent,0,3526.55803006486,6363.07490625479
17,104,2,259,0.5,-0.5,0.5,2,3,0.4,3,692,0,1,NaN,0,0,0.6,NaN,0.10866961330546,NaN,750,1,0,incongruent,0,12438.7257490366,3966.00574574399
17,104,2,260,-0.5,0.5,0.5,4,1,0.4,4,567,1,1,567,1,0,0.2,0.4,-0.780635630368877,-0.780635630368877,750,0,0,incongruent,0.1,4882.63761566347,1928.27043346872
17,104,2,261,-0.5,0.5,0.5,3,2,0.6,3,629,1,1,629,1,0,0.4,0.4,-0.339540229506406,-0.339540229506406,750,0,0,incongruent,0.1,18003.9937306272,3651.62529341719
17,104,2,262,-0.5,-0.5,-0.5,1,1,0.6,1,799,1,0,799,1,0,0.4,0.4,0.869914901890693,0.869914901890693,750,1,0,congruent,0.1,5783.89013369688,1161.99696197102
17,104,2,263,-0.5,-0.5,0,3,NaN,0.6,3,846,1,0,846,1,0,0.6,0.6,1.20429367351224,1.20429367351224,750,0,0,neutral,0.1,675.960133070499,2865.75486076376
17,104,2,264,-0.5,-0.5,-0.5,2,2,0.6,3,629,0,1,NaN,0,0,0.8,0.6,-0.339540229506406,NaN,750,0,1,congruent,0,16287.1653071844,2719.50065205251
17,104,2,265,0.5,-0.5,0.5,3,4,0.6,3,793,1,0,793,1,0,0.8,NaN,0.827228250194325,0.827228250194325,750,0,0,incongruent,1,2713.81030289765,728.804980174823
17,104,2,266,0.5,0.5,0.5,4,2,0.6,4,818,1,0,818,0,0,1,NaN,1.00508929892919,1.00508929892919,750,0,0,incongruent,0,11498.6878694552,2143.63451777994
17,104,2,268,-0.5,0.5,-0.5,4,4,0.4,3,565,0,1,NaN,0,0,0.6,0.4,-0.794864514267667,NaN,750,0,1,congruent,0,2174.31725217401,1485.06502573708
17,104,2,269,-0.5,-0.5,0,2,NaN,0.4,2,592,1,1,592,0,0,0.4,0.6,-0.60277458163401,-0.60277458163401,750,0,0,neutral,0,14697.8458489981,3091.28315802871
17,104,2,270,-0.5,-0.5,-0.5,4,4,0.4,4,578,1,1,578,0,0,0.4,0.4,-0.702376768925536,-0.702376768925536,750,1,0,congruent,0,2399.95550128461,1349.99329397371
17,104,2,271,0.5,0.5,0.5,2,3,0.4,2,644,1,1,644,1,0,0,NaN,-0.232823600265485,-0.232823600265485,750,0,0,incongruent,1,4527.00263581017,4031.96905897271
17,104,2,272,0.5,0.5,0,3,NaN,0.4,3,761,1,0,761,0,0,0.4,NaN,0.599566107813694,0.599566107813694,750,0,0,neutral,0,5636.80986579633,2438.48464158247
17,104,2,273,-0.5,-0.5,0.5,2,3,0.2,2,699,1,1,699,0,0,0.4,0.4,0.158470706951223,0.158470706951223,750,0,0,incongruent,0,7378.77830135237,987.883482679764
17,104,2,275,0.5,-0.5,0.5,1,3,0.2,3,848,0,0,NaN,0,0,0.8,NaN,1.21852255741103,NaN,750,1,0,incongruent,0,2045.05893919955,3946.56814992507
17,104,2,276,0.5,-0.5,0.5,2,4,0.2,2,764,1,0,764,0,0,0.8,NaN,0.620909433661878,0.620909433661878,750,0,0,incongruent,0,15846.0195104085,4799.88092175624
17,104,2,277,-0.5,-0.5,-0.5,3,3,0.2,3,729,1,1,729,0,0,0.4,0.2,0.371903965433064,0.371903965433064,750,1,0,congruent,0,2192.81864652171,4146.15184823902
17,104,2,278,-0.5,0.5,-0.5,4,4,0.2,3,670,0,1,NaN,0,0,0.4,0.4,-0.0478481095812233,NaN,750,0,1,congruent,0,1905.83491472433,1676.10806761351
17,104,2,279,-0.5,0.5,0,2,NaN,0.2,2,597,1,1,597,1,0,0.4,0.4,-0.567202371887036,-0.567202371887036,750,0,0,neutral,0.1,4090.99422329686,3401.26796551053
17,104,2,280,-0.5,-0.5,-0.5,3,3,0.4,3,497,1,1,497,0,0,0.2,0,-1.27864656682651,-1.27864656682651,750,1,0,congruent,0,3035.48712302875,11333.5970877089
17,104,2,281,-0.5,0.5,-0.5,4,4,0.4,4,636,1,1,636,1,0,0.2,0.4,-0.289739135860643,-0.289739135860643,750,1,0,congruent,0.1,4484.06755828051,1926.09690384493
17,104,2,282,0.5,-0.5,0.5,2,1,0.6,2,943,1,0,943,1,0,0.4,NaN,1.89439454260353,1.89439454260353,750,0,0,incongruent,1,2089.25022341632,5657.85120017213
17,104,2,283,-0.5,-0.5,-0.5,4,4,0.6,3,524,0,1,NaN,0,0,0.8,0,-1.08655663419285,NaN,750,0,1,congruent,0,4992.54050739818,4816.83017598385
17,104,2,284,-0.5,-0.5,0.5,2,3,0.6,3,566,0,1,NaN,1,0,0.8,0,-0.787750072318272,NaN,750,1,0,incongruent,0.1,13150.6526332537,5880.34820087992
17,104,2,286,-0.5,0.5,0.5,2,3,0.6,2,505,1,1,505,1,0,0.8,0.4,-1.22173103123135,-1.22173103123135,750,0,0,incongruent,0.1,4503.81970841338,1568.11441049761
17,104,2,287,0.5,-0.5,0.5,4,1,0.6,4,535,1,1,535,1,0,0.8,NaN,-1.00829777274951,-1.00829777274951,750,0,0,incongruent,1,10896.6855498742,9372.74479291364
17,104,2,288,0.5,-0.5,0,2,NaN,0.6,2,832,1,0,832,1,0,0.8,NaN,1.10469148622072,1.10469148622072,750,0,0,neutral,1,3159.02442332094,2059.15311042059
17,104,2,289,0.5,-0.5,-0.5,4,4,0.6,3,388,0,1,NaN,1,0,1.2,NaN,-2.05412073931053,NaN,750,0,1,congruent,1,9962.01315505111,1778.15249720625
17,104,2,290,-0.5,0.5,0,3,NaN,0.6,2,678,0,1,NaN,0,0,1.4,0.6,0.00906742601393426,NaN,750,0,1,neutral,0,29301.3540020136,3990.58090179649
17,104,2,291,0.5,0.5,0.5,4,2,0.6,4,581,1,1,581,1,0,1.4,NaN,-0.681033443077351,-0.681033443077351,750,0,0,incongruent,1,5236.39390344188,2642.2758436379
17,104,2,292,0.5,-0.5,0.5,1,3,0.8,1,863,1,0,863,1,0,1.6,NaN,1.32523918665195,1.32523918665195,750,0,0,incongruent,1,863.035625474778,4552.73176284535
17,104,2,293,0.5,-0.5,0,3,NaN,0.8,3,718,1,1,718,1,0,1.6,NaN,0.293645103989722,0.293645103989722,750,0,0,neutral,1,1839.95684544372,2468.38770676978
17,104,2,295,0.5,-0.5,0,3,NaN,0.8,3,908,1,0,908,1,0,1.6,NaN,1.64538907437471,1.64538907437471,750,0,0,neutral,1,2611.50932985395,15970.6014062863
17,104,2,296,-0.5,-0.5,-0.5,2,2,0.8,2,750,1,1,750,1,0,2,0.2,0.521307246370353,0.521307246370353,750,1,0,congruent,0.1,5422.01297424642,9510.00895188112
17,104,2,297,0.5,-0.5,-0.5,3,3,0.8,3,585,1,1,585,1,0,1.8,NaN,-0.652575675279773,-0.652575675279773,750,1,0,congruent,1,3291.48891984934,3327.57894108299
17,104,2,298,0.5,0.5,-0.5,4,4,0.8,2,674,0,1,NaN,0,0,1.8,NaN,-0.0193903417836445,NaN,750,0,1,congruent,0,2787.23445046499,4177.54661522274
17,104,2,299,-0.5,0.5,0.5,2,1,0.6,2,597,1,1,597,1,0,1.4,0.6,-0.567202371887036,-0.567202371887036,750,0,0,incongruent,0.1,8440.11405163619,15275.2313283067
17,104,2,300,0.5,0.5,-0.5,4,4,0.6,4,882,1,0,882,0,0,1.2,NaN,1.46041358369045,1.46041358369045,750,1,0,congruent,0,2237.71765013468,4334.65984971941
17,104,3,301,0.5,0.5,-0.5,3,3,0.4,3,583,1,1,583,1,0,0.8,NaN,-0.666804559178562,-0.666804559178562,750,1,0,congruent,1,8516.44625010077,2376.36617244213
17,104,3,302,0.5,-0.5,0,4,NaN,0.6,4,560,1,1,560,1,0,1,NaN,-0.83043672401464,-0.83043672401464,750,0,0,neutral,1,1829.67186420966,807.488771654717
17,104,3,303,0.5,0.5,-0.5,3,3,0.6,3,482,1,1,482,1,0,1,NaN,-1.38536319606743,-1.38536319606743,750,1,0,congruent,1,3953.24772281845,949.779195994834
17,104,3,304,0.5,0.5,0.5,4,1,0.6,2,538,0,1,NaN,0,0,1.4,NaN,-0.986954446901324,NaN,750,0,1,incongruent,0,8540.63563005202,1571.5131096958
17,104,3,305,0.5,-0.5,0,3,NaN,0.6,3,672,1,1,672,0,0,1.2,NaN,-0.0336192256824339,-0.0336192256824339,750,0,0,neutral,0,1194.05120790467,3049.87684001919
17,104,3,307,0.5,0.5,0,1,NaN,0.6,1,575,1,1,575,1,0,1.2,NaN,-0.72372009477372,-0.72372009477372,750,0,0,neutral,1,2925.95579378185,1830.10018824085
17,104,3,308,0.5,-0.5,-0.5,2,2,0.6,3,827,0,0,NaN,1,0,1.2,NaN,1.06911927647374,NaN,750,0,1,congruent,1,4087.18048451551,4910.48921638758
17,104,3,309,0.5,0.5,0,1,NaN,0.6,4,678,0,1,NaN,0,0,1.2,NaN,0.00906742601393426,NaN,750,0,1,neutral,0,10115.4506282115,15006.9199992325
17,104,3,310,0.5,0.5,-0.5,2,2,0.6,3,755,0,0,NaN,0,0,1.2,NaN,0.556879456117326,NaN,750,0,1,congruent,0,1991.64407107593,1974.33176843393
17,104,3,311,-0.5,-0.5,-0.5,3,3,0.4,3,511,1,1,511,1,0,1.2,0.4,-1.17904437953498,-1.17904437953498,750,1,0,congruent,0.1,5704.69694341967,2261.45475170292
17,104,3,312,-0.5,0.5,0.5,1,2,0.4,2,629,0,1,NaN,0,0,1,0.8,-0.339540229506406,NaN,750,1,0,incongruent,0,5315.7265587715,3124.912423565
17,104,3,314,-0.5,0.5,0,4,NaN,0.2,4,654,1,1,654,1,0,0.2,0.6,-0.161679180771539,-0.161679180771539,750,0,0,neutral,0.1,6395.87407270966,1207.42601736508
17,104,3,315,0.5,0.5,-0.5,1,1,0.2,2,592,0,1,NaN,0,0,0.4,NaN,-0.60277458163401,NaN,750,0,1,congruent,0,9282.37830320779,2168.81259906872
17,104,3,316,-0.5,0.5,-0.5,3,3,0.2,3,707,1,1,707,1,0,0.4,0.6,0.215386242546381,0.215386242546381,750,1,0,congruent,0.1,4225.80130214103,4102.5609512035
17,104,3,318,0.5,-0.5,-0.5,4,4,0.4,4,779,1,0,779,0,0,0.4,NaN,0.727626062902799,0.727626062902799,750,1,0,congruent,0,4705.64994900711,1773.8649156164
17,104,3,319,-0.5,0.5,-0.5,2,2,0.4,2,643,1,1,643,1,0,0.4,0.6,-0.23993804221488,-0.23993804221488,750,1,0,congruent,0.1,5445.42131203914,1065.19089418867
17,104,3,320,0.5,0.5,0.5,4,3,0.6,4,672,1,1,672,1,0,0.4,NaN,-0.0336192256824339,-0.0336192256824339,750,0,0,incongruent,1,2338.71321205099,3560.44155142692
17,104,3,321,-0.5,-0.5,0.5,3,1,0.8,3,820,1,0,820,1,0,0.8,0.6,1.01931818282798,1.01931818282798,750,0,0,incongruent,0.1,1137.26119660475,3528.88067312888
17,104,3,323,0.5,-0.5,0.5,3,1,0.8,3,773,1,0,773,1,0,0.8,NaN,0.684939411206431,0.684939411206431,750,0,0,incongruent,1,4810.91401648347,3329.39449014596
17,104,3,325,-0.5,0.5,-0.5,3,3,0.6,3,631,1,1,631,1,0,1,0.6,-0.325311345607617,-0.325311345607617,750,1,0,congruent,0.1,2720.07828987019,2458.44065881439
17,104,3,326,-0.5,0.5,0,4,NaN,0.8,1,988,0,0,NaN,0,0,0.8,0.8,2.21454443032629,NaN,750,0,1,neutral,0,2111.90046647058,10816.0142761366
17,104,3,328,0.5,-0.5,0,4,NaN,0.4,4,871,1,0,871,0,0,0.6,NaN,1.38215472224711,1.38215472224711,750,0,0,neutral,0,4163.42970513623,6199.1996411974
17,104,3,329,0.5,0.5,0.5,2,3,0.4,2,440,1,1,440,1,0,0.2,NaN,-1.684169757942,-1.684169757942,750,0,0,incongruent,1,8223.44349871543,1647.20003272502
17,104,3,330,0.5,-0.5,0,1,NaN,0.4,1,900,1,0,900,0,0,0.6,NaN,1.58847353877956,1.58847353877956,750,0,0,neutral,0,6362.98108474866,5145.11193484217
17,104,3,331,0.5,0.5,-0.5,3,3,0.4,3,894,1,0,894,0,0,0.4,NaN,1.54578688708319,1.54578688708319,750,1,0,congruent,0,6281.98365700712,3667.28932604412
17,104,3,333,0.5,0.5,0,1,NaN,0.2,1,678,1,1,678,1,0,0.4,NaN,0.00906742601393426,0.00906742601393426,750,0,0,neutral,1,9342.16865852068,4897.55178146077
17,104,3,335,-0.5,0.5,-0.5,2,2,0.4,3,659,0,1,NaN,0,0,0.8,0.4,-0.126106971024565,NaN,750,0,1,congruent,0,3038.59436950422,3245.68185079433
17,104,3,336,-0.5,-0.5,-0.5,4,4,0.4,2,639,0,1,NaN,0,0,0.8,0.8,-0.268395810012459,NaN,750,0,1,congruent,0,3131.68724441956,3962.70663686435
17,104,3,337,0.5,-0.5,-0.5,3,3,0.4,3,570,1,1,570,1,0,0.8,NaN,-0.759292304520693,-0.759292304520693,750,1,0,congruent,1,4673.63061853282,1773.34975470759
17,104,3,338,0.5,0.5,0.5,2,1,0.4,2,776,1,0,776,0,0,1.2,NaN,0.706282737054615,0.706282737054615,750,0,0,incongruent,0,1690.78589148446,1026.68382914061
17,104,3,339,0.5,-0.5,-0.5,3,3,0.2,3,829,1,0,829,0,0,0.8,NaN,1.08334816037253,1.08334816037253,750,1,0,congruent,0,1221.80092064153,6472.3984939886
17,104,3,340,-0.5,-0.5,-0.5,4,4,0.2,4,511,1,1,511,0,0,0.4,0.6,-1.17904437953498,-1.17904437953498,750,1,0,congruent,0,6134.63060669631,2976.92770235187
17,104,3,341,-0.5,-0.5,-0.5,1,1,0.2,2,498,0,1,NaN,0,0,0.4,0.4,-1.27153212487711,NaN,750,0,1,congruent,0,2492.15461778508,1252.64079561969
17,104,3,342,-0.5,-0.5,0,4,NaN,0.2,4,666,1,1,666,0,0,0.4,0.2,-0.0763058773788021,-0.0763058773788021,750,0,0,neutral,0,3410.78565704401,7449.35003563228
17,104,3,343,-0.5,-0.5,0.5,3,4,0.2,1,799,0,0,NaN,0,0,0,0,0.869914901890693,NaN,750,0,1,incongruent,0,12938.5604023209,8292.96026392575
17,104,3,344,-0.5,0.5,-0.5,2,2,0.2,2,652,1,1,652,1,0,0,0.2,-0.175908064670328,-0.175908064670328,750,1,0,congruent,0.1,6432.98400828629,9470.21424808936
17,104,3,345,0.5,-0.5,0.5,4,1,0.4,3,867,0,0,NaN,0,0,0.2,NaN,1.35369695444953,NaN,750,0,1,incongruent,0,6109.3265464494,7075.51636347031
17,104,3,346,0.5,-0.5,-0.5,3,3,0.4,3,536,1,1,536,0,0,0.2,NaN,-1.00118333080011,-1.00118333080011,750,1,0,congruent,0,5765.41442802278,4456.56398165195
17,104,3,347,-0.5,-0.5,0.5,2,1,0.4,2,756,1,0,756,1,0,0.2,0,0.563993898066721,0.563993898066721,750,0,0,incongruent,0.1,3986.43036843493,3753.90438300656
17,104,3,348,0.5,-0.5,0,3,NaN,0.4,3,613,1,1,613,0,0,0.4,NaN,-0.453371300696721,-0.453371300696721,750,0,0,neutral,0,1192.87109782315,894.122319011149
17,104,3,349,0.5,0.5,0.5,2,3,0.4,2,784,1,0,784,0,0,0.4,NaN,0.763198272649772,0.763198272649772,750,0,0,incongruent,0,1137.0065736428,2748.62803386882
17,104,3,350,-0.5,-0.5,0.5,3,1,0.4,3,619,1,1,619,0,0,0.2,0.2,-0.410684649000353,-0.410684649000353,750,0,0,incongruent,0,1525.33030756927,1278.41084202584
17,104,3,351,-0.5,-0.5,0,1,NaN,0.4,2,798,0,0,NaN,1,0,0.2,0.2,0.862800459941298,NaN,750,0,1,neutral,0.1,3734.29581417328,2711.93550958478
17,104,3,352,-0.5,-0.5,0.5,2,3,0.4,2,725,1,1,725,0,0,0.4,0.4,0.343446197635485,0.343446197635485,750,0,0,incongruent,0,2207.84716618427,1533.50036913464
17,104,3,353,-0.5,-0.5,-0.5,4,4,0.4,3,521,0,1,NaN,0,0,0.2,0.4,-1.10789996004103,NaN,750,0,1,congruent,0,809.0061733295,2837.76234500862
17,104,3,354,0.5,0.5,0.5,2,1,0.4,2,361,1,1,361,1,0,0.2,NaN,-2.24621067194419,-2.24621067194419,750,0,0,incongruent,1,799.045015723283,2245.60296243182
17,104,3,355,0.5,0.5,-0.5,3,3,0.4,3,650,1,1,650,1,0,0.6,NaN,-0.190136948569117,-0.190136948569117,750,1,0,congruent,1,7017.35881485876,3676.25822733446
17,104,3,356,0.5,0.5,0,4,NaN,0.6,4,417,1,1,417,1,0,1,NaN,-1.84780192277808,-1.84780192277808,750,0,0,neutral,1,9718.60845248655,2402.13715439053
17,104,3,357,-0.5,0.5,-0.5,2,2,0.8,2,542,1,1,542,1,0,1.2,0.4,-0.958496679103745,-0.958496679103745,750,1,0,congruent,0.1,1489.75820722954,1291.26972881614
17,104,3,358,0.5,-0.5,-0.5,4,4,0.8,4,788,1,0,788,1,0,1.4,NaN,0.791656040447351,0.791656040447351,750,1,0,congruent,1,3284.14539536674,6781.43174581527
17,104,3,359,0.5,-0.5,0,1,NaN,0.8,1,859,1,0,859,1,0,1.8,NaN,1.29678141885437,1.29678141885437,750,0,0,neutral,1,3131.78111372674,3464.4429929147
17,104,3,360,0.5,-0.5,0.5,4,1,0.8,2,718,0,1,NaN,0,0,1.8,NaN,0.293645103989722,NaN,750,0,1,incongruent,0,8549.93773466075,3108.55220567417
17,104,3,361,-0.5,-0.5,-0.5,2,2,0.8,2,587,1,1,587,1,0,1.4,0.4,-0.638346791380983,-0.638346791380983,750,1,0,congruent,0.1,2935.0215408549,11659.6201105758
17,104,3,362,0.5,0.5,-0.5,1,1,0.8,1,550,1,1,550,1,0,1.2,NaN,-0.901581143508587,-0.901581143508587,750,1,0,congruent,1,1922.75286465375,990.930789770553
17,104,3,363,-0.5,0.5,0,3,NaN,1,3,609,1,1,609,1,0,1.4,0.4,-0.4818290684943,-0.4818290684943,750,0,0,neutral,0.1,5201.77829265856,3503.86521949501
17,104,3,365,0.5,0.5,0,3,NaN,1,3,781,1,0,781,0,0,1,NaN,0.741854946801588,0.741854946801588,750,0,0,neutral,0,7998.93673951583,4983.44019964779
17,104,3,366,0.5,-0.5,0.5,2,1,0.8,2,967,1,0,967,1,0,1,NaN,2.065141149389,2.065141149389,750,0,0,incongruent,1,1484.2666774354,3500.94751151509
17,104,3,367,0.5,-0.5,0,4,NaN,0.8,4,645,1,1,645,1,0,1.2,NaN,-0.225709158316091,-0.225709158316091,750,0,0,neutral,1,6729.34796175628,926.53124985715
17,104,3,368,-0.5,0.5,-0.5,3,3,0.8,3,640,1,1,640,1,0,1.2,0.8,-0.261281368063064,-0.261281368063064,750,1,0,congruent,0.1,4658.76704064524,5269.90238908657
17,104,3,369,-0.5,-0.5,0.5,2,4,0.8,2,697,1,1,697,0,0,1.2,0.4,0.144241823052434,0.144241823052434,750,0,0,incongruent,0,3313.29503663361,7090.1405559347
17,104,3,370,-0.5,-0.5,-0.5,3,3,0.8,3,791,1,0,791,1,0,1,0.4,0.812999366295535,0.812999366295535,750,1,0,congruent,0.1,6621.77026126833,16480.5218731514
17,104,3,371,-0.5,0.5,0.5,1,2,0.8,2,826,0,0,NaN,0,0,1.2,1,1.06200483452435,NaN,750,1,0,incongruent,0,8991.15683585536,3154.12337191965
17,104,3,372,-0.5,0.5,0.5,3,1,0.6,3,642,1,1,642,1,0,0.8,0.8,-0.247052484164275,-0.247052484164275,750,0,0,incongruent,0.1,5706.20601050399,12329.8837660067
17,104,3,373,-0.5,-0.5,-0.5,4,4,0.6,3,603,0,1,NaN,0,0,0.6,0.4,-0.524515720190668,NaN,750,0,1,congruent,0,3509.07726475479,2195.80084579759
17,104,3,375,0.5,0.5,-0.5,4,4,0.4,4,462,1,1,462,1,0,0.4,NaN,-1.52765203505532,-1.52765203505532,750,1,0,congruent,1,1368.58838991428,847.691437481491
17,104,3,376,-0.5,0.5,0,2,NaN,0.6,2,867,1,0,867,0,0,0.6,0.6,1.35369695444953,1.35369695444953,750,0,0,neutral,0,893.134008532015,8514.66273042233
17,104,3,377,0.5,-0.5,-0.5,4,4,0.4,4,499,1,1,499,1,0,0.6,NaN,-1.26441768292772,-1.26441768292772,750,1,0,congruent,1,3562.76061124808,2119.52421668566
17,104,3,378,-0.5,0.5,0.5,1,3,0.4,1,918,1,0,918,0,0,0.8,0.4,1.71653349386866,1.71653349386866,750,0,0,incongruent,0,3129.93900244346,12738.7012646854
17,104,3,379,-0.5,-0.5,0,3,NaN,0.4,3,493,1,1,493,1,0,0.8,0.4,-1.30710433462408,-1.30710433462408,750,0,0,neutral,0.1,4286.74678379204,1274.13230176877
17,104,3,380,0.5,-0.5,-0.5,2,2,0.4,3,901,0,0,NaN,1,0,1,NaN,1.59558798072895,NaN,750,0,1,congruent,1,3834.30519957025,2397.22904479412
17,104,3,381,-0.5,-0.5,0.5,3,4,0.4,3,647,1,1,647,0,0,1,0.6,-0.211480274417301,-0.211480274417301,750,0,0,incongruent,0,974.386453756012,8352.76132433341
17,104,3,382,0.5,-0.5,-0.5,2,2,0.4,2,649,1,1,649,1,0,1,NaN,-0.197251390518512,-0.197251390518512,750,1,0,congruent,1,2361.71927794538,5357.06868554049
17,104,3,383,-0.5,-0.5,-0.5,3,3,0.4,3,535,1,1,535,1,0,1,0.4,-1.00829777274951,-1.00829777274951,750,1,0,congruent,0.1,7410.01594458966,2412.64421988898
17,104,3,384,-0.5,0.5,0,1,NaN,0.4,2,587,0,1,NaN,0,0,1.2,0.2,-0.638346791380983,NaN,750,0,1,neutral,0,1402.01135437225,3026.70421328043
17,104,3,385,0.5,-0.5,-0.5,4,4,0.2,4,440,1,1,440,0,0,1,NaN,-1.684169757942,-1.684169757942,750,1,0,congruent,0,4079.24105019175,4263.7008058975
17,104,3,386,0.5,0.5,-0.5,2,2,0.2,2,698,1,1,698,1,0,0.6,NaN,0.151356265001828,0.151356265001828,750,1,0,congruent,1,2338.92594996781,3535.00037513412
17,104,3,387,-0.5,-0.5,0.5,1,4,0.4,1,906,1,0,906,0,0,1,0.6,1.63116019047593,1.63116019047593,750,0,0,incongruent,0,7745.83868232813,4724.2630462347
17,104,3,388,0.5,-0.5,0,4,NaN,0.4,2,864,0,0,NaN,0,0,0.6,NaN,1.33235362860135,NaN,750,0,1,neutral,0,3141.31226989579,1463.6148556302
17,104,3,389,0.5,0.5,-0.5,1,1,0.4,1,772,1,0,772,0,0,0.4,NaN,0.677824969257036,0.677824969257036,750,1,0,congruent,0,3408.76096784439,2906.79860330918
17,104,3,390,-0.5,-0.5,0.5,3,4,0.2,3,632,1,1,632,0,0,0.4,0.4,-0.318196903658222,-0.318196903658222,750,0,0,incongruent,0,13346.9349822782,4496.51017913809
17,104,3,391,0.5,0.5,0,4,NaN,0.2,2,775,0,0,NaN,0,0,0.4,NaN,0.69916829510522,NaN,750,0,1,neutral,0,12833.4784673494,1889.01677700178
17,104,3,392,0.5,-0.5,-0.5,2,2,0.2,2,649,1,1,649,1,0,0,NaN,-0.197251390518512,-0.197251390518512,750,1,0,congruent,1,1854.42501134094,3256.43965682074
17,104,3,393,0.5,-0.5,0.5,4,3,0.2,4,711,1,1,711,0,0,0.4,NaN,0.243844010343959,0.243844010343959,750,0,0,incongruent,0,3387.59194075102,2538.6780761466
17,104,3,395,-0.5,0.5,-0.5,4,4,0.2,4,471,1,1,471,1,0,0.4,0,-1.46362205751077,-1.46362205751077,750,1,0,congruent,0.1,4823.55546624255,1205.2557335603
17,104,3,396,0.5,0.5,0,2,NaN,0.4,3,634,0,1,NaN,0,0,0.6,NaN,-0.303968019759432,NaN,750,0,1,neutral,0,1122.16006136708,2266.97566352808
17,104,3,397,-0.5,0.5,-0.5,1,1,0.2,1,692,1,1,692,1,0,0.6,0.2,0.10866961330546,0.10866961330546,750,1,0,congruent,0.1,4474.88305974746,2434.55307185164
17,104,3,399,-0.5,0.5,-0.5,3,3,0.4,3,884,1,0,884,0,0,0.8,0.4,1.47464246758924,1.47464246758924,750,1,0,congruent,0,3239.66234017855,3845.97314322007
17,104,3,400,-0.5,-0.5,0,1,NaN,0.4,1,892,1,0,892,1,0,0.8,0.4,1.5315580031844,1.5315580031844,750,0,0,neutral,0.1,2595.14926339512,7225.79009045654
17,104,3,401,0.5,0.5,-0.5,3,3,0.4,3,539,1,1,539,1,0,0.8,NaN,-0.979840004951929,-0.979840004951929,750,1,0,congruent,1,2878.22535253011,2056.36644031343
17,104,3,402,0.5,0.5,0,2,NaN,0.6,2,507,1,1,507,1,0,1.2,NaN,-1.20750214733256,-1.20750214733256,750,0,0,neutral,1,595.934420390546,1936.86043620294
17,104,3,404,0.5,-0.5,0.5,2,3,0.8,3,699,0,1,NaN,0,0,1.4,NaN,0.158470706951223,NaN,750,1,0,incongruent,0,10358.7410869589,5287.06959442922
17,104,3,405,-0.5,-0.5,0.5,3,4,0.8,3,387,1,1,387,1,0,1.4,0.4,-2.06123518125992,-2.06123518125992,750,0,0,incongruent,0.1,3042.45141007946,549.951948289396
17,104,3,406,-0.5,-0.5,-0.5,1,1,0.8,3,497,0,1,NaN,1,0,1.4,0.6,-1.27864656682651,NaN,750,0,1,congruent,0.1,1691.29084848031,892.406430266187
17,104,3,407,-0.5,-0.5,0.5,3,2,0.8,3,535,1,1,535,1,0,1.2,0.6,-1.00829777274951,-1.00829777274951,750,0,0,incongruent,0.1,7028.41649860784,1003.40004211571
17,104,3,408,-0.5,0.5,0.5,2,1,0.8,2,787,1,0,787,0,0,1,0.4,0.784541598497956,0.784541598497956,750,0,0,incongruent,0,6204.99788846401,4985.13670551386
17,104,3,409,-0.5,0.5,0,3,NaN,0.6,3,558,1,1,558,1,0,0.6,0.4,-0.84466560791343,-0.84466560791343,750,0,0,neutral,0.1,10476.6823515568,2848.2103221173
17,104,3,410,-0.5,0.5,0.5,2,3,0.8,3,737,0,1,NaN,0,0,0.8,0.6,0.428819501028221,NaN,750,1,0,incongruent,0,3686.97440240939,8467.68529226552
17,104,3,414,0.5,0.5,-0.5,3,3,0.2,3,538,1,1,538,1,0,0.2,NaN,-0.986954446901324,-0.986954446901324,750,1,0,congruent,1,9708.00771306082,3632.96423968737
17,104,3,415,0.5,-0.5,-0.5,2,2,0.4,3,533,0,1,NaN,1,0,0.4,NaN,-1.0225266566483,NaN,750,0,1,congruent,1,2113.47505044207,5067.15336349111
17,104,3,416,-0.5,-0.5,0.5,1,3,0.4,2,865,0,0,NaN,1,0,0.8,0.8,1.33946807055074,NaN,750,0,1,incongruent,0.1,6425.56263194794,2241.31089541615
17,104,3,418,-0.5,0.5,-0.5,3,3,0.4,3,532,1,1,532,1,0,1,0.2,-1.02964109859769,-1.02964109859769,750,1,0,congruent,0.1,5449.27611532529,2264.73869669024
17,104,3,420,0.5,0.5,0.5,3,1,0.4,3,985,1,0,985,0,0,1,NaN,2.19320110447811,2.19320110447811,750,0,0,incongruent,0,5996.81955610723,1894.83416347093
17,104,3,421,-0.5,-0.5,0.5,2,4,0.4,2,659,1,1,659,0,0,0.6,1,-0.126106971024565,-0.126106971024565,750,0,0,incongruent,0,8644.15502552959,5856.32421068606
17,104,3,422,0.5,0.5,0.5,1,2,0.4,1,910,1,0,910,0,0,0.4,NaN,1.6596179582735,1.6596179582735,750,0,0,incongruent,0,5583.96790098049,2691.56619469697
17,104,3,423,0.5,-0.5,-0.5,4,4,0.4,3,664,0,1,NaN,0,0,0.4,NaN,-0.0905347612775915,NaN,750,0,1,congruent,0,4572.50146272343,3076.17995323808
17,104,3,424,0.5,0.5,-0.5,3,3,0.4,3,588,1,1,588,1,0,0.2,NaN,-0.631232349431589,-0.631232349431589,750,1,0,congruent,1,5964.67811236634,3808.6448980432
17,104,3,427,0.5,-0.5,0.5,4,2,0.6,3,693,0,1,NaN,1,0,1,NaN,0.115784055254855,NaN,750,0,1,incongruent,1,2447.68742563726,4089.26244057203
17,104,3,428,-0.5,0.5,-0.5,1,1,0.6,2,843,0,0,NaN,0,0,1.4,0.4,1.18295034766406,NaN,750,0,1,congruent,0,2477.05929864047,3673.93155063377
17,104,3,430,0.5,0.5,-0.5,4,4,0.4,3,588,0,1,NaN,0,0,1.4,NaN,-0.631232349431589,NaN,750,0,1,congruent,0,14179.2109391156,3198.17166646651
17,104,3,431,-0.5,-0.5,0.5,2,1,0.4,2,862,1,0,862,0,0,1.2,0.8,1.31812474470256,1.31812474470256,750,0,0,incongruent,0,6141.50710653721,3117.1789608717
17,104,3,432,-0.5,0.5,0,1,NaN,0.4,4,847,0,0,NaN,0,0,0.8,0.2,1.21140811546164,NaN,750,0,1,neutral,0,10464.0913731878,1011.59645116492
17,104,3,433,-0.5,-0.5,-0.5,2,2,0.4,2,644,1,1,644,0,0,0.4,0.6,-0.232823600265485,-0.232823600265485,750,1,0,congruent,0,1638.6792681666,2845.45171380979
17,104,3,434,0.5,0.5,0.5,3,4,0.4,2,705,0,1,NaN,0,0,0.4,NaN,0.201157358647591,NaN,750,0,1,incongruent,0,1504.69259911264,1329.30554162261
17,104,3,435,0.5,-0.5,0.5,2,1,0.2,2,863,1,0,863,0,0,0,NaN,1.32523918665195,1.32523918665195,750,0,0,incongruent,0,1305.71831069983,10455.8797307567
17,104,3,436,0.5,-0.5,0.5,1,2,0.2,1,623,1,1,623,0,0,0,NaN,-0.382226881202774,-0.382226881202774,750,0,0,incongruent,0,6536.06990323497,4298.20888418482
17,104,3,437,0.5,0.5,0.5,4,1,0.2,4,753,1,0,753,0,0,0,NaN,0.542650572218537,0.542650572218537,750,0,0,incongruent,0,2462.71154029311,4078.83129765768
17,104,3,438,-0.5,-0.5,-0.5,3,3,0.2,2,621,0,1,NaN,0,0,0,0.4,-0.396455765101564,NaN,750,0,1,congruent,0,3432.79378864713,4345.92096818839
17,104,3,439,0.5,-0.5,0.5,2,4,0.2,2,730,1,1,730,0,0,0,NaN,0.379018407382459,0.379018407382459,750,0,0,incongruent,0,1802.83977733959,4579.20885930161
17,104,3,440,-0.5,-0.5,0,4,NaN,0.2,3,733,0,1,NaN,0,0,0,0.2,0.400361733230643,NaN,750,0,1,neutral,0,3131.82197005876,4621.49284431967
17,104,3,441,0.5,0.5,0.5,2,3,0.2,3,715,0,1,NaN,0,0,0,NaN,0.272301778141538,NaN,750,1,0,incongruent,0,1984.98966085947,4277.17244655238
17,104,3,442,0.5,0.5,-0.5,4,4,0,4,732,1,1,732,1,0,0,NaN,0.393247291281248,0.393247291281248,750,1,0,congruent,1,3341.99455621755,8487.20359536894
17,104,3,443,0.5,-0.5,0.5,3,2,0.2,2,744,0,1,NaN,0,0,0.4,NaN,0.478620594673984,NaN,750,1,0,incongruent,0,5392.06440686463,2214.23064488732
17,104,3,444,-0.5,0.5,-0.5,1,1,0.2,1,945,1,0,945,0,0,0.4,0.2,1.90862342650232,1.90862342650232,750,1,0,congruent,0,12568.2110287827,2939.64482467048
17,104,3,445,0.5,-0.5,0,2,NaN,0.2,2,818,1,0,818,1,0,0.4,NaN,1.00508929892919,1.00508929892919,750,0,0,neutral,1,3470.00166363959,1391.84021177884
17,104,3,446,-0.5,0.5,-0.5,1,1,0.2,1,852,1,0,852,0,0,0.8,0.2,1.24698032520861,1.24698032520861,750,1,0,congruent,0,4830.16099955652,5812.30979218783
17,104,3,450,0.5,-0.5,-0.5,4,4,0.4,4,825,1,0,825,1,0,0.8,NaN,1.05489039257495,1.05489039257495,750,1,0,congruent,1,2430.31521914147,1492.10513511991
17,104,4,451,0.5,0.5,0.5,2,1,0.4,2,666,1,1,666,1,0,0.8,NaN,-0.0763058773788021,-0.0763058773788021,750,0,0,incongruent,1,7605.84768444744,1939.74540106412
17,104,4,452,-0.5,0.5,-0.5,4,4,0.6,4,504,1,1,504,1,0,1.2,0.2,-1.22884547318074,-1.22884547318074,750,1,0,congruent,0.1,5252.48855297669,1981.72901331837
17,104,4,453,-0.5,-0.5,0.5,1,3,0.6,4,771,0,0,NaN,0,0,1.4,0.2,0.670710527307641,NaN,750,0,1,incongruent,0,3911.38363128091,9848.86964508678
17,104,4,454,0.5,0.5,0.5,4,2,0.6,4,637,1,1,637,1,0,1,NaN,-0.282624693911248,-0.282624693911248,750,0,0,incongruent,1,6625.17505884257,1626.93403262895
17,104,4,455,-0.5,0.5,0,1,NaN,0.8,4,706,0,1,NaN,0,0,1.4,0.2,0.208271800596986,NaN,750,0,1,neutral,0,2673.17876012391,4818.50489903064
17,104,4,456,0.5,0.5,-0.5,3,3,0.8,4,692,0,1,NaN,0,0,1,NaN,0.10866961330546,NaN,750,0,1,congruent,0,4116.52976851594,1485.0932537048
17,104,4,457,0.5,0.5,0.5,4,2,0.6,4,785,1,0,785,0,0,0.6,NaN,0.770312714599167,0.770312714599167,750,0,0,incongruent,0,5993.73711085987,1419.30213947027
17,104,4,458,0.5,-0.5,0,3,NaN,0.4,3,602,1,1,602,0,0,0.4,NaN,-0.531630162140063,-0.531630162140063,750,0,0,neutral,0,6617.41620848929,3811.50329875276
17,104,4,460,0.5,0.5,0,3,NaN,0.4,3,486,1,1,486,1,0,0,NaN,-1.35690542826985,-1.35690542826985,750,0,0,neutral,1,2178.67733408351,3737.70653994542
17,104,4,461,-0.5,-0.5,-0.5,2,2,0.4,2,940,1,0,940,1,0,0.4,0,1.87305121675535,1.87305121675535,750,1,0,congruent,0.1,3338.36928548145,3219.35057094281
17,104,4,462,-0.5,0.5,0,4,NaN,0.4,4,707,1,1,707,1,0,0.6,0.2,0.215386242546381,0.215386242546381,750,0,0,neutral,0.1,994.50959540981,5053.3272408589
17,104,4,463,0.5,-0.5,-0.5,2,2,0.4,3,744,0,1,NaN,1,0,0.8,NaN,0.478620594673984,NaN,750,0,1,congruent,1,3056.27325769591,4006.12666082518
17,104,4,464,0.5,-0.5,-0.5,3,3,0.4,2,574,0,1,NaN,0,0,1.2,NaN,-0.730834536723114,NaN,750,0,1,congruent,0,2614.0798399258,681.393859695302
17,104,4,466,0.5,0.5,0,3,NaN,0.6,3,684,1,1,684,1,0,1,NaN,0.0517540777103025,0.0517540777103025,750,0,0,neutral,1,2416.45152107063,2488.08765102551
17,104,4,467,-0.5,0.5,0.5,4,1,0.8,4,540,1,1,540,1,0,1.2,0.6,-0.972725563002534,-0.972725563002534,750,0,0,incongruent,0.1,5960.73371994422,3471.92139356225
17,104,4,468,0.5,0.5,-0.5,3,3,1,3,730,1,1,730,1,0,1.2,NaN,0.379018407382459,0.379018407382459,750,1,0,congruent,1,3612.22283615738,5617.83628258866
17,104,4,469,-0.5,-0.5,-0.5,1,1,1,1,814,1,0,814,1,0,1.2,0.2,0.976631531131613,0.976631531131613,750,1,0,congruent,0.1,2336.6278359995,4079.45762314188
17,104,4,470,0.5,-0.5,0.5,4,2,1,2,647,0,1,NaN,1,0,1.4,NaN,-0.211480274417301,NaN,750,1,0,incongruent,1,8802.53695803847,2395.5369469173
17,104,4,471,0.5,-0.5,0.5,2,1,1,3,738,0,1,NaN,1,0,1.6,NaN,0.435933942977616,NaN,750,0,1,incongruent,1,2249.58104059857,5222.86799853825
17,104,4,472,-0.5,-0.5,0.5,4,3,1,4,858,1,0,858,1,0,1.6,0.4,1.28966697690498,1.28966697690498,750,0,0,incongruent,0.1,2558.82347349616,2692.28824256727
17,104,4,473,0.5,0.5,-0.5,1,1,1,3,645,0,1,NaN,0,0,1.6,NaN,-0.225709158316091,NaN,750,0,1,congruent,0,2902.84374637535,7263.49934800262
17,104,4,474,0.5,0.5,-0.5,3,3,0.8,3,548,1,1,548,1,0,1.2,NaN,-0.915810027407376,-0.915810027407376,750,1,0,congruent,1,4833.38692497516,3932.26773154141
17,104,4,475,-0.5,-0.5,-0.5,4,4,0.8,2,722,0,1,NaN,1,0,1.4,0.6,0.322102871787301,NaN,750,0,1,congruent,0.1,2210.6565463181,4475.60563555561
17,104,4,476,0.5,-0.5,0,3,NaN,0.8,3,823,1,0,823,0,0,1.2,NaN,1.04066150867617,1.04066150867617,750,0,0,neutral,0,6644.07738245891,11361.6019104022
17,104,4,477,-0.5,0.5,-0.5,2,2,0.8,2,714,1,1,714,1,0,0.8,0.8,0.265187336192143,0.265187336192143,750,1,0,congruent,0.1,6454.18553861709,2195.62436714252
17,104,4,480,-0.5,0.5,0.5,2,1,0.6,2,869,1,0,869,0,0,0.6,1,1.36792583834832,1.36792583834832,750,0,0,incongruent,0,1581.78812149808,1413.85962615184
17,104,4,481,0.5,-0.5,-0.5,3,3,0.6,3,711,1,1,711,1,0,0.4,NaN,0.243844010343959,0.243844010343959,750,1,0,congruent,1,4445.45949083728,1708.42795770775
17,104,4,482,0.5,-0.5,0,4,NaN,0.6,4,667,1,1,667,1,0,0.8,NaN,-0.0691914354294074,-0.0691914354294074,750,0,0,neutral,1,4311.29059626576,4429.06963891466
17,104,4,483,-0.5,-0.5,-0.5,3,3,0.6,3,561,1,1,561,1,0,1,0.8,-0.823322282065245,-0.823322282065245,750,1,0,congruent,0.1,3274.77559020021,6894.66495043284
17,104,4,485,0.5,-0.5,-0.5,3,3,0.6,3,805,1,0,805,1,0,1.4,NaN,0.912601553587061,0.912601553587061,750,1,0,congruent,1,4490.39741679193,13926.0916314923
17,104,4,487,-0.5,0.5,0.5,4,3,0.6,3,866,0,0,NaN,0,0,1.8,0.8,1.34658251250014,NaN,750,1,0,incongruent,0,11677.7551857916,4014.28573878207
17,104,4,488,-0.5,-0.5,0,3,NaN,0.4,2,664,0,1,NaN,1,0,1.4,1,-0.0905347612775915,NaN,750,0,1,neutral,0.1,5607.05276978628,3704.17281273214
17,104,4,489,-0.5,0.5,-0.5,4,4,0.4,4,543,1,1,543,1,0,1.4,0.6,-0.95138223715435,-0.95138223715435,750,1,0,congruent,0.1,4897.48120635566,2738.92972834912
17,104,4,490,-0.5,0.5,0.5,1,2,0.4,1,864,1,0,864,0,0,1.2,0.6,1.33235362860135,1.33235362860135,750,0,0,incongruent,0,1723.09846852535,14847.0413035486
17,104,4,491,-0.5,-0.5,0,3,NaN,0.2,3,438,1,1,438,0,0,0.8,1,-1.69839864184079,-1.69839864184079,750,0,0,neutral,0,3473.24987492019,2826.43114525589
17,104,4,492,-0.5,-0.5,0.5,1,2,0.2,1,713,1,1,713,0,0,0.4,0.8,0.258072894242749,0.258072894242749,750,0,0,incongruent,0,1671.81332411179,2696.36639089832
17,104,4,493,-0.5,0.5,-0.5,3,3,0.2,3,603,1,1,603,1,0,0.4,0.4,-0.524515720190668,-0.524515720190668,750,1,0,congruent,0.1,741.369928949278,1326.55845454486
17,104,4,494,-0.5,0.5,0.5,1,2,0.4,1,808,1,0,808,0,0,0.4,0.4,0.933944879435245,0.933944879435245,750,0,0,incongruent,0,2310.11509728604,9799.7947662961
17,104,4,496,0.5,-0.5,0.5,1,4,0.4,1,875,1,0,875,1,0,0.2,NaN,1.41061249004469,1.41061249004469,750,0,0,incongruent,1,7981.42131258646,3763.01863407125
17,104,4,497,-0.5,-0.5,0,3,NaN,0.4,3,782,1,0,782,0,0,0.6,0.6,0.748969388750983,0.748969388750983,750,0,0,neutral,0,1535.84284437048,2959.52725328344
17,104,4,498,-0.5,-0.5,-0.5,1,1,0.4,1,824,1,0,824,1,0,0.6,0.4,1.04777595062556,1.04777595062556,750,1,0,congruent,0.1,762.023864449205,2586.724693661
17,104,4,499,0.5,-0.5,0,3,NaN,0.4,3,559,1,1,559,1,0,0.6,NaN,-0.837551165964035,-0.837551165964035,750,0,0,neutral,1,479.772008371842,6128.30179766551
17,104,4,500,0.5,-0.5,0.5,1,2,0.4,1,804,1,0,804,1,0,1,NaN,0.905487111637666,0.905487111637666,750,0,0,incongruent,1,2780.45112165852,4564.24611682923
17,104,4,501,0.5,-0.5,-0.5,4,4,0.4,4,552,1,1,552,0,0,1.4,NaN,-0.887352259609798,-0.887352259609798,750,1,0,congruent,0,1597.08742332044,1236.32190852149
17,104,4,502,0.5,0.5,-0.5,1,1,0.4,1,589,1,1,589,1,0,1,NaN,-0.624117907482194,-0.624117907482194,750,1,0,congruent,1,6743.35130350988,1575.68876186969
17,104,4,503,-0.5,0.5,-0.5,4,4,0.4,4,427,1,1,427,1,0,1.4,0.4,-1.77665750328413,-1.77665750328413,750,1,0,congruent,0.1,2891.86037858671,403.24863789903
17,104,4,504,-0.5,0.5,0,1,NaN,0.6,1,683,1,1,683,1,0,1.4,0.6,0.0446396357609078,0.0446396357609078,750,0,0,neutral,0.1,1882.40625127472,4635.46998990793
17,104,4,505,0.5,0.5,-0.5,4,4,0.6,2,631,0,1,NaN,0,0,1.2,NaN,-0.325311345607617,NaN,750,0,1,congruent,0,3947.48049518689,4807.0969573088
17,104,4,508,0.5,0.5,0,4,NaN,0.6,3,952,0,0,NaN,0,0,1.2,NaN,1.95842452014808,NaN,750,0,1,neutral,0,1836.67427526538,2258.58776035282
17,104,4,510,0.5,-0.5,0.5,1,2,0.6,1,764,1,0,764,1,0,1,NaN,0.620909433661878,0.620909433661878,750,0,0,incongruent,1,5582.94705526233,4179.36573906058
17,104,4,511,-0.5,-0.5,0.5,2,4,0.6,2,709,1,1,709,1,0,1.4,0.4,0.22961512644517,0.22961512644517,750,0,0,incongruent,0.1,12371.8312459857,5215.60330836506
17,104,4,512,0.5,0.5,0.5,1,3,0.6,2,788,0,0,NaN,0,0,1.2,NaN,0.791656040447351,NaN,750,0,1,incongruent,0,12603.1955805706,6461.13690561093
17,104,4,513,0.5,-0.5,-0.5,4,4,0.4,4,985,1,0,985,1,0,0.8,NaN,2.19320110447811,2.19320110447811,750,1,0,congruent,1,12147.8748107344,5276.81461864394
17,104,4,514,0.5,-0.5,-0.5,3,3,0.4,3,591,1,1,591,1,0,1.2,NaN,-0.609889023583404,-0.609889023583404,750,1,0,congruent,1,8821.66461801631,4823.62618496769
17,104,4,515,0.5,-0.5,0,4,NaN,0.4,4,878,1,0,878,0,0,1.4,NaN,1.43195581589287,1.43195581589287,750,0,0,neutral,0,8469.90551954239,1681.00893534608
17,104,4,516,-0.5,-0.5,-0.5,2,2,0.4,1,768,0,0,NaN,0,0,1,0.6,0.649367201459457,NaN,750,0,1,congruent,0,5133.54990470587,1835.27184758036
17,104,4,517,-0.5,0.5,-0.5,1,1,0.4,1,596,1,1,596,1,0,0.8,0.6,-0.574316813836431,-0.574316813836431,750,1,0,congruent,0.1,8722.88161848784,1287.57014063786
17,104,4,518,-0.5,0.5,0,3,NaN,0.4,3,630,1,1,630,1,0,1,0.8,-0.332425787557011,-0.332425787557011,750,0,0,neutral,0.1,3305.89693300824,2778.33267111617
17,104,4,520,0.5,0.5,0,3,NaN,0.4,3,562,1,1,562,1,0,0.4,NaN,-0.816207840115851,-0.816207840115851,750,0,0,neutral,1,3767.74864757171,2628.21418724825
17,104,4,521,0.5,0.5,-0.5,4,4,0.6,4,661,1,1,661,1,0,0.8,NaN,-0.111878087125776,-0.111878087125776,750,1,0,congruent,1,4482.66503466062,9557.54684317594
17,104,4,523,-0.5,0.5,0.5,2,1,0.8,1,605,0,1,NaN,0,0,1.2,0.8,-0.510286836291879,NaN,750,1,0,incongruent,0,2827.51815989263,3159.8564430863
17,104,4,524,-0.5,-0.5,-0.5,3,3,0.8,3,735,1,1,735,1,0,1,0.6,0.414590617129432,0.414590617129432,750,1,0,congruent,0.1,1301.18175944863,2807.25413502036
17,104,4,525,-0.5,-0.5,-0.5,2,2,0.8,2,846,1,0,846,1,0,1.2,0.6,1.20429367351224,1.20429367351224,750,1,0,congruent,0.1,4724.61269054232,3311.86512023546
17,104,4,526,-0.5,-0.5,0,3,NaN,0.8,3,525,1,1,525,1,0,1,0.6,-1.07944219224345,-1.07944219224345,750,0,0,neutral,0.1,1341.89358698186,1539.06040370849
17,104,4,527,-0.5,0.5,-0.5,4,4,0.8,4,516,1,1,516,1,0,0.8,0.8,-1.14347216978801,-1.14347216978801,750,1,0,congruent,0.1,2208.73543109835,1577.75917630039
17,104,4,528,0.5,-0.5,0.5,3,1,0.8,3,635,1,1,635,0,0,0.8,NaN,-0.296853577810038,-0.296853577810038,750,0,0,incongruent,0,2331.35001132246,2444.10296216258
17,104,4,529,-0.5,0.5,0,2,NaN,0.8,2,562,1,1,562,1,0,0.8,0.8,-0.816207840115851,-0.816207840115851,750,0,0,neutral,0.1,2507.40485559935,1260.25404532667
17,104,4,530,0.5,0.5,-0.5,4,4,0.8,4,577,1,1,577,1,0,0.8,NaN,-0.70949121087493,-0.70949121087493,750,1,0,congruent,1,4719.23344913833,6524.07359920896
17,104,4,532,-0.5,-0.5,0.5,2,4,0.6,2,522,1,1,522,1,0,0.8,0.8,-1.10078551809164,-1.10078551809164,750,0,0,incongruent,0.1,4374.68746502124,1033.5835134902
17,104,4,533,-0.5,0.5,-0.5,3,3,0.6,3,471,1,1,471,1,0,0.8,0.8,-1.46362205751077,-1.46362205751077,750,1,0,congruent,0.1,2517.95287304302,3291.6860077986
17,104,4,534,-0.5,-0.5,0.5,2,4,0.8,2,744,1,1,744,1,0,1,1,0.478620594673984,0.478620594673984,750,0,0,incongruent,0.1,3341.39179618402,5276.22828833756
17,104,4,535,-0.5,0.5,-0.5,3,3,0.8,3,565,1,1,565,1,0,1,0.8,-0.794864514267667,-0.794864514267667,750,1,0,congruent,0.1,2133.4506809131,1372.39889576349
17,104,4,536,-0.5,-0.5,0.5,4,1,0.8,1,686,0,1,NaN,0,0,0.8,1,0.0659829616090919,NaN,750,1,0,incongruent,0,2788.75024932079,1338.36683189422
17,104,4,537,0.5,-0.5,0,2,NaN,0.8,2,836,1,0,836,1,0,0.8,NaN,1.1331492540183,1.1331492540183,750,0,0,neutral,1,4717.99815836184,921.747436023944
17,104,4,538,0.5,0.5,-0.5,3,3,0.8,3,654,1,1,654,1,0,1,NaN,-0.161679180771539,-0.161679180771539,750,1,0,congruent,1,2249.76391626729,3696.50025045295
17,104,4,539,-0.5,-0.5,0.5,2,4,0.8,2,765,1,0,765,1,0,1.2,0.8,0.628023875611273,0.628023875611273,750,0,0,incongruent,0.1,3170.84600472929,7401.4321435195
17,104,4,540,-0.5,-0.5,0.5,1,2,0.8,2,550,0,1,NaN,1,0,1.2,0.8,-0.901581143508587,NaN,750,1,0,incongruent,0.1,5302.81437725069,1434.17585419031
17,104,4,541,0.5,-0.5,0,2,NaN,0.8,2,528,1,1,528,0,0,1.2,NaN,-1.05809886639527,-1.05809886639527,750,0,0,neutral,0,1303.59917498583,2411.23040411561
17,104,4,542,-0.5,0.5,0.5,4,1,0.8,1,858,0,0,NaN,0,0,1.2,0.8,1.28966697690498,NaN,750,1,0,incongruent,0,15663.1080056089,2157.73827734996
17,104,4,544,0.5,0.5,0.5,1,2,0.8,1,843,1,0,843,0,0,0.8,NaN,1.18295034766406,1.18295034766406,750,0,0,incongruent,0,3063.5263686951,1317.55845259985
17,104,4,545,0.5,0.5,-0.5,3,3,0.6,3,579,1,1,579,1,0,0.6,NaN,-0.695262326976141,-0.695262326976141,750,1,0,congruent,1,4081.30489340066,3310.39599811267
17,104,4,546,-0.5,-0.5,0,4,NaN,0.6,4,828,1,0,828,0,0,0.8,0.8,1.07623371842314,1.07623371842314,750,0,0,neutral,0,6680.57169421131,3938.74677646666
17,104,4,547,-0.5,-0.5,0.5,2,3,0.6,2,651,1,1,651,0,0,0.8,0.6,-0.183022506619723,-0.183022506619723,750,0,0,incongruent,0,18363.7956407643,6392.04778153345
17,104,4,548,0.5,-0.5,-0.5,1,1,0.6,2,532,0,1,NaN,1,0,0.8,NaN,-1.02964109859769,NaN,750,0,1,congruent,1,9032.55546612129,4073.96844686503
17,104,4,550,0.5,0.5,-0.5,2,2,0.6,2,497,1,1,497,1,0,1,NaN,-1.27864656682651,-1.27864656682651,750,1,0,congruent,1,10388.4804934498,3174.11919118278
17,104,4,551,0.5,0.5,0.5,4,1,0.8,3,873,0,0,NaN,0,0,1,NaN,1.3963836061459,NaN,750,0,1,incongruent,0,1826.57672546301,4395.26489644369
17,104,4,552,0.5,-0.5,-0.5,3,3,0.6,3,561,1,1,561,1,0,1,NaN,-0.823322282065245,-0.823322282065245,750,1,0,congruent,1,5250.05502850985,1122.43848900228
17,104,4,553,0.5,-0.5,0,1,NaN,0.6,1,979,1,0,979,0,0,1.4,NaN,2.15051445278174,2.15051445278174,750,0,0,neutral,0,1722.18395178258,3465.10779677517
17,104,4,554,0.5,0.5,-0.5,4,4,0.6,3,696,0,1,NaN,0,0,1,NaN,0.137127381103039,NaN,750,0,1,congruent,0,3469.18845278481,2472.54880822785
17,104,4,556,-0.5,-0.5,-0.5,1,1,0.6,1,832,1,0,832,0,0,0.6,0.6,1.10469148622072,1.10469148622072,750,1,0,congruent,0,14920.6650184697,8989.67143523755
17,104,4,557,-0.5,0.5,0.5,2,4,0.6,2,377,1,1,377,1,0,0.6,0.8,-2.13237960075387,-2.13237960075387,750,0,0,incongruent,0.1,2198.49661969402,2870.62391765113
17,104,4,558,0.5,-0.5,0.5,4,2,0.6,3,655,0,1,NaN,1,0,0.4,NaN,-0.154564738822144,NaN,750,0,1,incongruent,1,9805.77047367593,6739.53818925838
17,104,4,559,0.5,0.5,0,3,NaN,0.6,3,700,1,1,700,1,0,0.8,NaN,0.165585148900618,0.165585148900618,750,0,0,neutral,1,1347.07835499699,7142.59093942948
17,104,4,560,0.5,-0.5,-0.5,4,4,0.6,4,794,1,0,794,1,0,1.2,NaN,0.834342692143719,0.834342692143719,750,1,0,congruent,1,2475.97630115147,3910.25164137679
17,104,4,561,0.5,-0.5,-0.5,3,3,0.6,3,833,1,0,833,1,0,1.4,NaN,1.11180592817011,1.11180592817011,750,1,0,congruent,1,2304.08964254515,5720.74493160371
17,104,4,562,-0.5,-0.5,0.5,1,2,0.6,1,688,1,1,688,1,0,1.8,0.4,0.0802118455078812,0.0802118455078812,750,0,0,incongruent,0.1,3566.17493498142,6203.42602797562
17,104,4,564,-0.5,-0.5,-0.5,2,2,0.6,4,799,0,0,NaN,1,0,1.6,0.6,0.869914901890693,NaN,750,0,1,congruent,0.1,1715.32431088511,4285.30112002614
17,104,4,566,0.5,0.5,0.5,4,2,0.6,4,585,1,1,585,1,0,1.2,NaN,-0.652575675279773,-0.652575675279773,750,0,0,incongruent,1,3127.01384193788,1450.51028344057
17,104,4,567,-0.5,0.5,-0.5,1,1,0.6,1,707,1,1,707,1,0,1.2,0.8,0.215386242546381,0.215386242546381,750,1,0,congruent,0.1,2391.51885902323,663.021099551534
17,104,4,568,-0.5,0.5,0.5,4,3,0.8,4,913,1,0,913,0,0,1.2,0.8,1.68096128412169,1.68096128412169,750,0,0,incongruent,0,4155.84652193241,3836.1204989332
17,104,4,569,-0.5,0.5,0.5,3,1,0.8,1,740,0,1,NaN,0,0,1,0.6,0.450162826876406,NaN,750,1,0,incongruent,0,17656.6937805914,3575.41676316781
17,104,4,570,-0.5,0.5,-0.5,2,2,0.6,2,572,1,1,572,1,0,0.8,0.6,-0.745063420621904,-0.745063420621904,750,1,0,congruent,0.1,4280.59267204016,1528.84789770137
17,104,4,571,-0.5,-0.5,0,4,NaN,0.6,4,419,1,1,419,1,0,0.8,0.8,-1.83357303887929,-1.83357303887929,750,0,0,neutral,0.1,2581.16141420792,1077.0386789624
17,104,4,572,0.5,-0.5,0.5,3,1,0.6,3,845,1,0,845,0,0,0.6,NaN,1.19717923156285,1.19717923156285,750,0,0,incongruent,0,2827.16549621576,6872.6566809839
17,104,4,573,0.5,0.5,0,4,NaN,0.6,4,682,1,1,682,1,0,0.4,NaN,0.0375251938115131,0.0375251938115131,750,0,0,neutral,1,3941.86177971671,5919.78613020068
17,104,4,574,-0.5,-0.5,-0.5,2,2,0.6,2,531,1,1,531,1,0,0.8,1,-1.03675554054709,-1.03675554054709,750,1,0,congruent,0.1,2440.52547482765,2332.48623110411
17,104,4,575,-0.5,-0.5,0,3,NaN,0.6,3,604,1,1,604,1,0,1,1,-0.517401278241273,-0.517401278241273,750,0,0,neutral,0.1,5204.30065745906,4228.32966391597
17,104,4,576,-0.5,-0.5,-0.5,2,2,0.6,2,548,1,1,548,0,0,1,1,-0.915810027407376,-0.915810027407376,750,1,0,congruent,0,8119.60693530172,2401.73278434189
17,104,4,577,-0.5,-0.5,0,1,NaN,0.6,1,699,1,1,699,1,0,0.8,0.8,0.158470706951223,0.158470706951223,750,0,0,neutral,0.1,2294.96008780551,1336.42776351832
17,104,4,578,0.5,0.5,0.5,2,3,0.6,2,628,1,1,628,1,0,1,NaN,-0.346654671455801,-0.346654671455801,750,0,0,incongruent,1,1001.51526565576,5297.79953527745
17,104,4,579,0.5,0.5,0.5,1,2,0.6,1,838,1,0,838,0,0,1,NaN,1.14737813791709,1.14737813791709,750,0,0,incongruent,0,8780.98336090574,8144.24156655682
17,104,4,580,0.5,0.5,-0.5,4,4,0.6,4,594,1,1,594,1,0,0.8,NaN,-0.58854569773522,-0.58854569773522,750,1,0,congruent,1,2776.36365854298,2973.92655772522
17,104,4,581,-0.5,0.5,0,2,NaN,0.8,2,469,1,1,469,1,0,1,0.6,-1.47785094140956,-1.47785094140956,750,0,0,neutral,0.1,5067.79551745883,1954.22561321711
17,104,4,582,0.5,-0.5,-0.5,4,4,0.8,1,563,0,1,NaN,1,0,1.2,NaN,-0.809093398166456,NaN,750,0,1,congruent,1,8331.03067128913,1957.1346629936
17,104,4,583,0.5,-0.5,-0.5,3,3,0.8,2,661,0,1,NaN,1,0,1.4,NaN,-0.111878087125776,NaN,750,0,1,congruent,1,3387.98111954882,8721.32102489843
17,104,4,584,0.5,0.5,-0.5,4,4,0.8,4,691,1,1,691,1,0,1.4,NaN,0.101555171356065,0.101555171356065,750,1,0,congruent,1,4397.35021268225,4691.39352559851
17,104,4,585,-0.5,-0.5,0.5,2,1,0.8,2,789,1,0,789,1,0,1.8,0.8,0.798770482396746,0.798770482396746,750,0,0,incongruent,0.1,6059.17294808036,1554.97377288396
17,104,4,586,0.5,-0.5,0.5,1,4,0.8,1,894,1,0,894,1,0,1.6,NaN,1.54578688708319,1.54578688708319,750,0,0,incongruent,1,533.797375975045,4903.96571481551
17,104,4,587,-0.5,0.5,-0.5,3,3,0.8,2,636,0,1,NaN,0,0,1.8,0.6,-0.289739135860643,NaN,750,0,1,congruent,0,5217.77903838498,1355.36467206633
17,104,4,588,-0.5,0.5,0.5,2,4,0.6,3,621,0,1,NaN,0,0,1.4,0.4,-0.396455765101564,NaN,750,0,1,incongruent,0,9442.95861393628,1853.33798803716
17,104,4,589,-0.5,0.5,0,3,NaN,0.6,3,716,1,1,716,1,0,1,0.4,0.279416220090933,0.279416220090933,750,0,0,neutral,0.1,19998.7364260385,1182.56746240311
17,104,4,590,0.5,0.5,-0.5,1,1,0.6,1,845,1,0,845,0,0,0.8,NaN,1.19717923156285,1.19717923156285,750,1,0,congruent,0,4598.99024825214,7261.6244151934
17,104,4,592,0.5,0.5,0,3,NaN,0.4,3,548,1,1,548,1,0,0.6,NaN,-0.915810027407376,-0.915810027407376,750,0,0,neutral,1,539.979245266305,1411.88132515801
17,104,4,594,0.5,-0.5,-0.5,3,3,0.6,3,560,1,1,560,1,0,1,NaN,-0.83043672401464,-0.83043672401464,750,1,0,congruent,1,5862.95629316814,551.229243643901
17,104,4,595,0.5,0.5,0,1,NaN,0.6,4,679,0,1,NaN,0,0,1.2,NaN,0.016181867963329,NaN,750,0,1,neutral,0,5487.68016124694,2231.97353486344
17,104,4,596,0.5,0.5,0.5,3,4,0.6,3,558,1,1,558,1,0,1.2,NaN,-0.84466560791343,-0.84466560791343,750,0,0,incongruent,1,2106.84308850949,6818.46147610843
17,104,4,597,-0.5,-0.5,0,1,NaN,0.6,1,717,1,1,717,1,0,1.2,0.8,0.286530662040328,0.286530662040328,750,0,0,neutral,0.1,2642.73758560664,2812.63742993419
17,104,4,598,-0.5,-0.5,-0.5,3,3,0.6,3,788,1,0,788,1,0,1,0.8,0.791656040447351,0.791656040447351,750,1,0,congruent,0.1,3407.4596555913,5267.48357329591
17,104,4,600,0.5,-0.5,0,2,NaN,0.6,3,753,0,0,NaN,1,0,1.2,NaN,0.542650572218537,NaN,750,0,1,neutral,1,2383.81954239976,7574.09425394976
