subid,vers,block,trial,rewlvl,efflvl,congruency,targetresp,distractorresp,rollingefflvl,resp,rt,acc,fast,accrt,isrewarded,ismiss,runavgrrgen,runavgrrcond,zrt,acczrt,rtthreshold,isdisterror,isranderror,congruence,feedback,fcz_resp_theta,fcz_resp_theta_baseline
18,104,1,1,0.5,-0.5,0,3,NaN,0.3,3,460,1,1,460,0,0,0,NaN,-1.14744797946465,-1.14744797946465,750,0,0,neutral,0,1064.70914176447,200.344137340063
18,104,1,2,-0.5,-0.5,0.5,1,2,0.3,1,535,1,1,535,1,0,0,0,-0.544980856067381,-0.544980856067381,750,0,0,incongruent,0.1,1005.68016026462,511.181938787946
18,104,1,3,0.5,0.5,-0.5,4,4,0.3,4,543,1,1,543,1,0,0.2,NaN,-0.480717696238339,-0.480717696238339,750,1,0,congruent,1,1965.37587800792,1553.07572182988
18,104,1,5,-0.5,-0.5,-0.5,1,1,0.4,1,629,1,1,629,1,0,0.8,0.4,0.210111271923863,0.210111271923863,750,1,0,congruent,0.1,1442.79194779222,2183.83220256849
18,104,1,6,-0.5,-0.5,-0.5,2,2,0.4,2,401,1,1,401,0,0,1,0.6,-1.62138878320383,-1.62138878320383,750,1,0,congruent,0,466.06837957399,2712.29833771348
18,104,1,7,0.5,-0.5,-0.5,3,3,0.4,3,700,1,1,700,0,0,1,NaN,0.780446815406611,0.780446815406611,750,1,0,congruent,0,239.010131639874,521.437221439214
18,104,1,8,-0.5,0.5,0,1,NaN,0.4,1,448,1,1,448,1,0,0.8,0,-1.24384271920821,-1.24384271920821,750,0,0,neutral,0.1,359.494609621146,553.960346165538
18,104,1,9,-0.5,-0.5,-0.5,3,3,0.6,3,557,1,1,557,0,0,0.6,0.6,-0.368257166537515,-0.368257166537515,750,1,0,congruent,0,1206.28972784222,1004.75837947714
18,104,1,10,-0.5,-0.5,0,2,NaN,0.6,2,485,1,1,485,0,0,0.4,0.6,-0.946625604998893,-0.946625604998893,750,0,0,neutral,0,1394.49694711078,1495.61936709166
18,104,1,11,-0.5,0.5,-0.5,4,4,0.6,4,587,1,1,587,1,0,0.2,0.2,-0.127270317178608,-0.127270317178608,750,1,0,congruent,0.1,582.466496236995,1049.3724591983
18,104,1,12,-0.5,-0.5,-0.5,3,3,0.7,3,550,1,1,550,0,0,0.4,0.4,-0.424487431387927,-0.424487431387927,750,1,0,congruent,0,2319.90511905493,1780.5645754348
18,104,1,13,-0.5,0.5,0.5,1,2,0.7,1,540,1,1,540,1,0,0.4,0.4,-0.50481638117423,-0.50481638117423,750,0,0,incongruent,0.1,1276.04155678196,1318.25216953093
18,104,1,14,-0.5,0.5,0.5,2,3,0.8,2,707,1,1,707,1,0,0.4,0.6,0.836677080257022,0.836677080257022,750,0,0,incongruent,0.1,1199.88058767088,1098.28029169213
18,104,1,15,-0.5,0.5,-0.5,1,1,1,1,489,1,1,489,1,0,0.6,0.8,-0.914494025084372,-0.914494025084372,750,1,0,congruent,0.1,515.328265905549,127.124465121006
18,104,1,16,0.5,0.5,0.5,2,4,1,2,541,1,1,541,1,0,0.8,NaN,-0.496783486195599,-0.496783486195599,750,0,0,incongruent,1,1033.47846152546,602.991372416983
18,104,1,17,0.5,0.5,0,3,NaN,1,3,637,1,1,637,1,0,1,NaN,0.274374431752905,0.274374431752905,750,0,0,neutral,1,1748.30297842892,610.366869425025
18,104,1,18,0.5,-0.5,0.5,4,1,1,4,438,1,1,438,1,0,1.4,NaN,-1.32417166899452,-1.32417166899452,750,0,0,incongruent,1,587.334554172814,248.433504976672
18,104,1,19,-0.5,0.5,0,3,NaN,1,3,654,1,1,654,1,0,1.6,1,0.410933646389619,0.410933646389619,750,0,0,neutral,0.1,550.436942345586,396.324402672728
18,104,1,20,0.5,0.5,0.5,4,3,1,4,568,1,1,568,1,0,1.6,NaN,-0.279895321772583,-0.279895321772583,750,0,0,incongruent,1,1007.82159017564,684.120356164259
18,104,1,21,-0.5,0.5,0,2,NaN,1,2,906,1,0,906,0,0,1.8,1,2.43522318100444,2.43522318100444,750,0,0,neutral,0,1362.26131943397,1029.27228531819
18,104,1,22,-0.5,0.5,-0.5,1,1,0.8,1,449,1,1,449,1,0,1.4,0.8,-1.23580982422958,-1.23580982422958,750,1,0,congruent,0.1,3050.16337464158,456.65830207435
18,104,1,23,0.5,0.5,-0.5,4,4,0.8,4,535,1,1,535,1,0,1.2,NaN,-0.544980856067381,-0.544980856067381,750,1,0,congruent,1,954.207542925257,789.424666394074
18,104,1,24,-0.5,-0.5,0.5,3,1,0.8,2,919,0,0,NaN,0,0,1.2,0.2,2.53965081572664,NaN,750,0,1,incongruent,0,3348.06266215804,1607.77890707297
18,104,1,25,0.5,0.5,0,1,NaN,0.8,1,716,1,1,716,1,0,1,NaN,0.908973135064695,0.908973135064695,750,0,0,neutral,1,2188.01895735236,1008.9057107388
18,104,1,26,-0.5,0.5,-0.5,4,4,0.8,4,443,1,1,443,1,0,1,0.8,-1.28400719410136,-1.28400719410136,750,1,0,congruent,0.1,721.396392299953,1087.9463338055
18,104,1,27,0.5,-0.5,-0.5,1,1,0.8,1,675,1,1,675,1,0,1.2,NaN,0.579624440940854,0.579624440940854,750,1,0,congruent,1,1367.60736807464,754.252102115834
18,104,1,28,-0.5,0.5,0,2,NaN,0.8,2,718,1,1,718,1,0,1.4,0.8,0.925038925021955,0.925038925021955,750,0,0,neutral,0.1,603.944158369553,1679.40971393089
18,104,1,30,0.5,0.5,0,2,NaN,0.8,2,736,1,1,736,1,0,1.2,NaN,1.0696310346373,1.0696310346373,750,0,0,neutral,1,1991.66156929973,1525.5938864541
18,104,1,31,0.5,0.5,0.5,3,1,0.8,3,936,1,0,936,0,0,1.2,NaN,2.67621003036335,2.67621003036335,750,0,0,incongruent,0,3386.75635960213,686.937235743411
18,104,1,32,-0.5,-0.5,0.5,4,3,0.6,4,554,1,1,554,1,0,1,0,-0.392355851473406,-0.392355851473406,750,0,0,incongruent,0.1,2781.35763828668,473.978518245945
18,104,1,33,-0.5,0.5,0,2,NaN,0.6,2,632,1,1,632,1,0,0.8,0.8,0.234209956859753,0.234209956859753,750,0,0,neutral,0.1,885.507027246654,784.717842982348
18,104,1,35,0.5,0.5,-0.5,2,2,0.4,2,640,1,1,640,1,0,0.8,NaN,0.298473116688796,0.298473116688796,750,1,0,congruent,1,1699.42263988096,488.993516592004
18,104,1,36,-0.5,0.5,-0.5,3,3,0.6,4,497,0,1,NaN,0,0,0.8,0.8,-0.85023086525533,NaN,750,0,1,congruent,0,8159.47132791431,424.952998944349
18,104,1,37,-0.5,-0.5,0,2,NaN,0.4,2,724,1,1,724,0,0,0.8,0.2,0.973236294893737,0.973236294893737,750,0,0,neutral,0,1063.89842902522,1794.85118860509
18,104,1,38,-0.5,-0.5,-0.5,4,4,0.4,4,474,1,1,474,0,0,0.6,0.2,-1.03498744976383,-1.03498744976383,750,1,0,congruent,0,1913.02792459723,829.053338811615
18,104,1,39,-0.5,0.5,0,1,NaN,0.4,1,634,1,1,634,1,0,0.4,0.8,0.250275746817014,0.250275746817014,750,0,0,neutral,0.1,1551.85819733587,930.487326109578
18,104,1,40,0.5,0.5,-0.5,3,3,0.6,3,819,1,0,819,0,0,0.6,NaN,1.73636131786361,1.73636131786361,750,1,0,congruent,0,609.421835578819,683.446966492368
18,104,1,41,-0.5,0.5,0.5,2,1,0.4,1,771,0,0,NaN,0,0,0.2,0.8,1.35078235888936,NaN,750,1,0,incongruent,0,3571.41919946289,1541.94089960009
18,104,1,42,0.5,-0.5,0.5,4,2,0.4,4,666,1,1,666,1,0,0.2,NaN,0.507328386133182,0.507328386133182,750,0,0,incongruent,1,1617.30106327826,850.543934975434
18,104,1,43,-0.5,0.5,0,2,NaN,0.4,2,773,1,0,773,0,0,0.6,0.6,1.36684814884662,1.36684814884662,750,0,0,neutral,0,921.814118285662,1303.06091621785
18,104,1,44,-0.5,0.5,-0.5,1,1,0.2,1,606,1,1,606,1,0,0.6,0.4,0.025354687415367,0.025354687415367,750,1,0,congruent,0.1,1254.82774750355,292.857144789437
18,104,1,45,0.5,-0.5,0,3,NaN,0.4,3,758,1,0,758,0,0,0.6,NaN,1.24635472416717,1.24635472416717,750,0,0,neutral,0,1830.82113162644,880.218841387001
18,104,1,47,-0.5,-0.5,0.5,3,4,0.2,3,820,1,0,820,0,0,0.6,0.2,1.74439421284224,1.74439421284224,750,0,0,incongruent,0,824.700754783644,1478.64119607881
18,104,1,48,0.5,-0.5,-0.5,1,1,0.2,1,522,1,1,522,0,0,0.2,NaN,-0.649408490789574,-0.649408490789574,750,1,0,congruent,0,1812.86977956862,1250.96768119245
18,104,1,49,0.5,-0.5,0,3,NaN,0.2,3,660,1,1,660,0,0,0.2,NaN,0.459131016261401,0.459131016261401,750,0,0,neutral,0,1193.56479403254,652.160920763351
18,104,1,50,-0.5,0.5,-0.5,4,4,0.2,4,380,1,1,380,1,0,0,0.4,-1.79007957775507,-1.79007957775507,750,1,0,congruent,0.1,566.289132075032,1708.01423169853
18,104,1,51,0.5,-0.5,0,1,NaN,0.4,1,614,1,1,614,0,0,0.2,NaN,0.089617847244409,0.089617847244409,750,0,0,neutral,0,687.665392086947,596.376068199767
18,104,1,52,-0.5,-0.5,0.5,2,3,0.4,2,698,1,1,698,0,0,0.2,0.2,0.76438102544935,0.76438102544935,750,0,0,incongruent,0,4848.23750641416,1008.66685722712
18,104,1,53,-0.5,0.5,-0.5,1,1,0.4,1,609,1,1,609,1,0,0.2,0.6,0.0494533723512577,0.0494533723512577,750,1,0,congruent,0.1,4323.72379656744,599.495175897945
18,104,1,54,-0.5,-0.5,0,2,NaN,0.6,2,639,1,1,639,0,0,0.4,0.2,0.290440221710165,0.290440221710165,750,0,0,neutral,0,1555.51527104602,949.61193495336
18,104,1,55,-0.5,0.5,-0.5,3,3,0.6,3,711,1,1,711,1,0,0.4,0.6,0.868808660171543,0.868808660171543,750,1,0,congruent,0.1,697.085231767332,2409.08238132271
18,104,1,56,-0.5,0.5,-0.5,2,2,0.8,2,711,1,1,711,1,0,0.4,0.8,0.868808660171543,0.868808660171543,750,1,0,congruent,0.1,531.008747659943,1304.81993992081
18,104,1,58,-0.5,-0.5,-0.5,4,4,0.8,4,349,1,1,349,1,0,0.6,0,-2.03909932209261,-2.03909932209261,750,1,0,congruent,0.1,1054.66865486773,288.70141126509
18,104,1,59,0.5,0.5,0.5,1,3,0.8,1,629,1,1,629,1,0,0.6,NaN,0.210111271923863,0.210111271923863,750,0,0,incongruent,1,569.187567018638,1826.30415035948
18,104,1,60,-0.5,0.5,-0.5,2,2,0.8,2,612,1,1,612,1,0,1,1,0.0735520572871485,0.0735520572871485,750,1,0,congruent,0.1,2341.41450134059,1855.13715036803
18,104,1,61,0.5,-0.5,-0.5,4,4,0.8,4,484,1,1,484,1,0,1,NaN,-0.954658499977524,-0.954658499977524,750,1,0,congruent,1,971.597949557775,531.833315600268
18,104,1,62,-0.5,0.5,-0.5,1,1,0.8,1,540,1,1,540,1,0,1.2,1,-0.50481638117423,-0.50481638117423,750,1,0,congruent,0.1,3474.1033133943,695.604927829192
18,104,1,63,0.5,-0.5,0,2,NaN,0.8,2,562,1,1,562,1,0,1.4,NaN,-0.328092691644364,-0.328092691644364,750,0,0,neutral,1,1891.48248333568,833.87850362418
18,104,1,64,-0.5,0.5,-0.5,4,4,0.8,4,681,1,1,681,1,0,1.6,1,0.627821810812636,0.627821810812636,750,1,0,congruent,0.1,1038.80606059985,1583.90477436022
18,104,1,65,-0.5,0.5,0,3,NaN,0.8,3,335,1,1,335,1,0,1.4,1,-2.15155985179343,-2.15155985179343,750,0,0,neutral,0.1,1331.69543794505,1380.06680842254
18,104,1,66,0.5,0.5,-0.5,1,1,1,1,544,1,1,544,1,0,1.4,NaN,-0.472684801259709,-0.472684801259709,750,1,0,congruent,1,2950.42262043391,1601.60904219738
18,104,1,67,0.5,0.5,0.5,3,4,1,3,589,1,1,589,1,0,1.4,NaN,-0.111204527221347,-0.111204527221347,750,0,0,incongruent,1,564.272760187353,1250.55934097434
18,104,1,68,0.5,-0.5,0,1,NaN,1,1,702,1,1,702,1,0,1.6,NaN,0.796512605363871,0.796512605363871,750,0,0,neutral,1,418.769110678773,2628.62369337647
18,104,1,69,-0.5,0.5,-0.5,3,3,1,3,490,1,1,490,1,0,1.6,1,-0.906461130105742,-0.906461130105742,750,1,0,congruent,0.1,931.324833849977,338.426030386722
18,104,1,70,-0.5,0.5,-0.5,2,2,1,2,523,1,1,523,1,0,1.6,1,-0.641375595810944,-0.641375595810944,750,1,0,congruent,0.1,2529.06152960602,854.113807814546
18,104,1,71,0.5,-0.5,0,1,NaN,1,1,550,1,1,550,1,0,1.6,NaN,-0.424487431387927,-0.424487431387927,750,0,0,neutral,1,1017.88602463793,712.361940768378
18,104,1,72,0.5,0.5,-0.5,4,4,1,4,305,1,1,305,1,0,1.6,NaN,-2.39254670115234,-2.39254670115234,750,1,0,congruent,1,278.960965413998,341.539388119494
18,104,1,73,-0.5,0.5,0,3,NaN,1,3,651,1,1,651,1,0,1.6,1,0.386834961453728,0.386834961453728,750,0,0,neutral,0.1,1009.92579819177,1370.05231385354
18,104,1,74,0.5,0.5,-0.5,1,1,1,1,479,1,1,479,1,0,1.4,NaN,-0.994822974870675,-0.994822974870675,750,1,0,congruent,1,1314.41900429861,1776.34179625716
18,104,1,75,-0.5,0.5,-0.5,4,4,1,4,624,1,1,624,1,0,1.6,1,0.169946797030711,0.169946797030711,750,1,0,congruent,0.1,1901.40342639492,952.640661570604
18,104,1,76,-0.5,0.5,0.5,1,3,1,1,741,1,1,741,1,0,1.6,1,1.10979550953045,1.10979550953045,750,0,0,incongruent,0.1,667.436612957612,1207.96147583804
18,104,1,77,-0.5,0.5,-0.5,2,2,1,2,526,1,1,526,1,0,1.4,1,-0.617276910875053,-0.617276910875053,750,1,0,congruent,0.1,2075.51981184236,253.686775980103
18,104,1,78,-0.5,0.5,-0.5,3,3,1,3,494,1,1,494,1,0,1.2,1,-0.874329550191221,-0.874329550191221,750,1,0,congruent,0.1,1325.8466844392,632.096015782227
18,104,1,79,-0.5,0.5,0,1,NaN,1,2,568,0,1,NaN,0,0,1.2,1,-0.279895321772583,NaN,750,0,1,neutral,0,3666.62854422488,1029.70858624873
18,104,1,80,0.5,0.5,-0.5,3,3,0.8,3,701,1,1,701,1,0,0.8,NaN,0.788479710385241,0.788479710385241,750,1,0,congruent,1,2732.37136100114,1397.10430254519
18,104,1,81,0.5,0.5,0.5,1,4,0.8,1,431,1,1,431,1,0,1,NaN,-1.38040193384493,-1.38040193384493,750,0,0,incongruent,1,771.743132526803,450.15117736586
18,104,1,82,-0.5,0.5,0.5,4,3,0.8,4,328,1,1,328,1,0,1.2,0.8,-2.20779011664384,-2.20779011664384,750,0,0,incongruent,0.1,396.997722401612,500.061004773014
18,104,1,83,-0.5,-0.5,0.5,3,1,0.8,1,469,0,1,NaN,1,0,1.2,0.2,-1.07515192465698,NaN,750,1,0,incongruent,0.1,4089.59324737312,1086.15565141335
18,104,1,84,0.5,0.5,0,1,NaN,0.8,1,549,1,1,549,1,0,1.2,NaN,-0.432520326366557,-0.432520326366557,750,0,0,neutral,1,1850.81916556161,963.612984704383
18,104,1,85,0.5,0.5,-0.5,4,4,0.8,4,745,1,1,745,1,0,1.6,NaN,1.14192708944497,1.14192708944497,750,1,0,congruent,1,2238.60725944243,4859.09896274344
18,104,1,86,-0.5,-0.5,0.5,2,1,1,2,752,1,0,752,1,0,1.6,0.4,1.19815735429538,1.19815735429538,750,0,0,incongruent,0.1,1296.92615979939,1418.51030291932
18,104,1,87,0.5,-0.5,-0.5,3,3,1,3,604,1,1,604,1,0,1.4,NaN,0.00928889745810647,0.00928889745810647,750,1,0,congruent,1,354.22791782958,1209.12627407205
18,104,1,88,-0.5,0.5,-0.5,1,1,1,1,561,1,1,561,1,0,1.6,0.8,-0.336125586622994,-0.336125586622994,750,1,0,congruent,0.1,1942.56986947582,1909.12153325768
18,104,1,89,-0.5,0.5,-0.5,4,4,1,4,641,1,1,641,1,0,1.6,0.8,0.306506011667426,0.306506011667426,750,1,0,congruent,0.1,838.582029500549,683.508333173287
18,104,1,90,-0.5,-0.5,-0.5,1,1,1,3,790,0,0,NaN,1,0,1.4,0.6,1.50340736348333,NaN,750,0,1,congruent,0.1,1503.63115808726,970.408754493772
18,104,1,91,-0.5,0.5,0,2,NaN,1,2,576,1,1,576,1,0,1.2,0.8,-0.215632161943541,-0.215632161943541,750,0,0,neutral,0.1,1882.98734610869,699.613551820446
18,104,1,92,0.5,0.5,-0.5,4,4,1,4,467,1,1,467,1,0,1.2,NaN,-1.09121771461424,-1.09121771461424,750,1,0,congruent,1,717.943153888011,1776.37631652387
18,104,1,93,0.5,0.5,-0.5,3,3,1,3,603,1,1,603,1,0,1.2,NaN,0.00125600247947622,0.00125600247947622,750,1,0,congruent,1,3688.49088493451,528.509748884139
18,104,1,94,-0.5,-0.5,0,4,NaN,1,4,527,1,1,527,1,0,1.4,0.8,-0.609244015896423,-0.609244015896423,750,0,0,neutral,0.1,1331.83911449673,1428.24644384253
18,104,1,95,0.5,-0.5,-0.5,1,1,1,1,461,1,1,461,1,0,1.4,NaN,-1.13941508448602,-1.13941508448602,750,1,0,congruent,1,3053.85081567177,864.982062884637
18,104,1,96,0.5,0.5,0,4,NaN,1,4,648,1,1,648,1,0,1.6,NaN,0.362736276517838,0.362736276517838,750,0,0,neutral,1,1601.8282248112,1097.01498715164
18,104,1,97,-0.5,0.5,-0.5,3,3,1,3,609,1,1,609,1,0,1.8,0.8,0.0494533723512577,0.0494533723512577,750,1,0,congruent,0.1,2879.78949363028,2433.47805077109
18,104,1,98,-0.5,0.5,0.5,4,2,1,4,756,1,0,756,0,0,1.6,1,1.2302889342099,1.2302889342099,750,0,0,incongruent,0,3845.19408183716,6162.17093146182
18,104,1,99,-0.5,0.5,0,1,NaN,0.8,1,487,1,1,487,1,0,1.2,0.8,-0.930559815041633,-0.930559815041633,750,0,0,neutral,0.1,5117.13141859085,730.776506887517
18,104,1,100,-0.5,0.5,-0.5,4,4,0.8,4,532,1,1,532,1,0,1.2,0.8,-0.569079541003272,-0.569079541003272,750,1,0,congruent,0.1,1490.60085525581,1551.87281114717
18,104,1,101,-0.5,-0.5,0.5,1,2,0.8,1,544,1,1,544,1,0,1,1,-0.472684801259709,-0.472684801259709,750,0,0,incongruent,0.1,711.109531725079,931.865598784854
18,104,1,102,0.5,0.5,-0.5,4,4,0.8,4,470,1,1,470,1,0,0.8,NaN,-1.06711902967835,-1.06711902967835,750,1,0,congruent,1,1241.58529785914,1955.42063694199
18,104,1,103,-0.5,0.5,0,3,NaN,0.8,3,657,1,1,657,1,0,1,0.8,0.43503233132551,0.43503233132551,750,0,0,neutral,0.1,2561.58191068294,2854.12623790101
18,104,1,104,-0.5,-0.5,-0.5,4,4,0.8,4,557,1,1,557,1,0,1.2,1,-0.368257166537515,-0.368257166537515,750,1,0,congruent,0.1,2087.93819487976,449.778079604161
18,104,1,105,-0.5,-0.5,-0.5,1,1,0.8,1,603,1,1,603,1,0,1.2,1,0.00125600247947622,0.00125600247947622,750,1,0,congruent,0.1,1192.01694847242,844.502044049973
18,104,1,106,-0.5,0.5,-0.5,4,4,0.8,4,567,1,1,567,1,0,1.2,0.8,-0.287928216751213,-0.287928216751213,750,1,0,congruent,0.1,2664.72919593436,3288.98469346934
18,104,1,107,-0.5,-0.5,-0.5,3,3,1,3,418,1,1,418,1,0,1.2,1,-1.48482956856712,-1.48482956856712,750,1,0,congruent,0.1,405.68275901206,746.720427991626
18,104,1,108,-0.5,0.5,0.5,1,4,1,1,540,1,1,540,1,0,1,0.8,-0.50481638117423,-0.50481638117423,750,0,0,incongruent,0.1,1993.02672737475,470.654688922002
18,104,1,109,-0.5,-0.5,0,3,NaN,1,2,513,0,1,NaN,1,0,1,1,-0.721704545597246,NaN,750,0,1,neutral,0.1,8267.76102241171,976.74728285914
18,104,1,110,-0.5,0.5,-0.5,2,2,1,2,620,1,1,620,1,0,1,1,0.13781521711619,0.13781521711619,750,1,0,congruent,0.1,1686.08726292291,763.854379075952
18,104,1,111,0.5,0.5,0.5,3,4,1,3,683,1,1,683,1,0,1,NaN,0.643887600769896,0.643887600769896,750,0,0,incongruent,1,2503.99707879744,2659.7643939236
18,104,1,112,0.5,0.5,0.5,1,3,1,1,606,1,1,606,1,0,1.2,NaN,0.025354687415367,0.025354687415367,750,0,0,incongruent,1,1275.87845963686,384.494671064897
18,104,1,113,-0.5,-0.5,-0.5,2,2,1,2,948,1,0,948,1,0,1.4,1,2.77260477010691,2.77260477010691,750,1,0,congruent,0.1,830.813238006187,1921.15350819803
18,104,1,114,0.5,0.5,0,1,NaN,1,1,613,1,1,613,1,0,1.4,NaN,0.0815849522657787,0.0815849522657787,750,0,0,neutral,1,2063.36746725374,1194.91771777732
18,104,1,115,0.5,-0.5,-0.5,4,4,1,4,489,1,1,489,1,0,1.6,NaN,-0.914494025084372,-0.914494025084372,750,1,0,congruent,1,1103.65779263058,1520.79410908024
18,104,1,116,-0.5,-0.5,0,2,NaN,1,2,754,1,0,754,1,0,1.8,1,1.21422314425264,1.21422314425264,750,0,0,neutral,0.1,1336.70189555155,2565.80316230347
18,104,1,117,-0.5,0.5,-0.5,1,1,1,1,534,1,1,534,1,0,1.6,1,-0.553013751046011,-0.553013751046011,750,1,0,congruent,0.1,2278.03059397006,2965.33405219892
18,104,1,118,-0.5,0.5,-0.5,4,4,1,4,475,1,1,475,1,0,1.4,1,-1.0269545547852,-1.0269545547852,750,1,0,congruent,0.1,778.340112921531,642.442975159058
18,104,1,119,-0.5,-0.5,-0.5,1,1,1,1,792,1,0,792,1,0,1.4,1,1.51947315344059,1.51947315344059,750,1,0,congruent,0.1,1370.77678584353,1827.1132429717
18,104,1,120,-0.5,0.5,0.5,3,2,1,3,899,1,0,899,0,0,1.2,1,2.37899291615403,2.37899291615403,750,0,0,incongruent,0,2445.2126095669,2890.00241636229
18,104,1,122,-0.5,-0.5,-0.5,3,3,0.8,3,478,1,1,478,1,0,0.8,1,-1.00285586984931,-1.00285586984931,750,1,0,congruent,0.1,1139.04216425404,398.188640391073
18,104,1,123,0.5,0.5,0,2,NaN,0.8,2,644,1,1,644,1,0,0.8,NaN,0.330604696603316,0.330604696603316,750,0,0,neutral,1,247.984740386433,1686.15649778474
18,104,1,124,0.5,-0.5,0.5,1,2,0.8,1,661,1,1,661,1,0,1,NaN,0.467163911240031,0.467163911240031,750,0,0,incongruent,1,2362.42207007515,998.748830930289
18,104,1,125,-0.5,-0.5,0.5,2,3,0.8,2,630,1,1,630,1,0,1.2,1,0.218144166902493,0.218144166902493,750,0,0,incongruent,0.1,756.458562629091,1020.10494110906
18,104,1,126,0.5,-0.5,0,3,NaN,0.8,3,566,1,1,566,1,0,1.4,NaN,-0.295961111729843,-0.295961111729843,750,0,0,neutral,1,452.622279145714,519.527375499479
18,104,1,127,0.5,-0.5,0.5,2,4,0.8,4,853,0,0,NaN,1,0,1.6,NaN,2.00947974713704,NaN,750,1,0,incongruent,1,2375.78692501512,2182.21400862195
18,104,1,128,-0.5,-0.5,0.5,1,2,0.8,1,585,1,1,585,0,0,1.8,1,-0.143336107135868,-0.143336107135868,750,0,0,incongruent,0,2140.79790030727,1098.81606761056
18,104,1,129,-0.5,0.5,0.5,2,4,0.8,3,776,0,0,NaN,0,0,1.4,0.8,1.39094683378251,NaN,750,0,1,incongruent,0,1912.94162585305,1666.56670128463
18,104,1,130,-0.5,-0.5,0.5,1,2,0.6,1,626,1,1,626,0,0,1,0.8,0.186012586987972,0.186012586987972,750,0,0,incongruent,0,1570.6431815509,1010.29361585938
18,104,1,131,0.5,0.5,-0.5,4,4,0.6,4,587,1,1,587,1,0,0.8,NaN,-0.127270317178608,-0.127270317178608,750,1,0,congruent,1,2434.01722464875,1332.09336131526
18,104,1,132,-0.5,-0.5,-0.5,1,1,0.6,1,528,1,1,528,1,0,0.8,0.6,-0.601211120917793,-0.601211120917793,750,1,0,congruent,0.1,977.60458044546,1194.51753180788
18,104,1,133,-0.5,0.5,0,2,NaN,0.6,3,670,0,1,NaN,0,0,0.6,0.6,0.539459966047703,NaN,750,0,1,neutral,0,1274.03956471266,1442.92519591852
18,104,1,134,-0.5,-0.5,-0.5,1,1,0.4,1,596,1,1,596,0,0,0.6,0.6,-0.0549742623709355,-0.0549742623709355,750,1,0,congruent,0,3889.84353266006,1747.94913908581
18,104,1,135,0.5,-0.5,-0.5,4,4,0.4,4,528,1,1,528,0,0,0.6,NaN,-0.601211120917793,-0.601211120917793,750,1,0,congruent,0,1602.97343571349,835.969456567874
18,104,1,136,-0.5,-0.5,0.5,1,3,0.4,1,803,1,0,803,0,0,0.6,0.4,1.60783499820553,1.60783499820553,750,0,0,incongruent,0,1752.22612925259,1407.54947258303
18,104,1,137,0.5,0.5,0,2,NaN,0.4,2,803,1,0,803,0,0,0.2,NaN,1.60783499820553,1.60783499820553,750,0,0,neutral,0,1862.86176825066,4862.93995602037
18,104,1,138,-0.5,0.5,0.5,4,2,0.4,4,534,1,1,534,1,0,0,0.4,-0.553013751046011,-0.553013751046011,750,0,0,incongruent,0.1,1898.60299983457,297.906138551685
18,104,1,139,0.5,-0.5,-0.5,3,3,0.4,3,624,1,1,624,0,0,0.2,NaN,0.169946797030711,0.169946797030711,750,1,0,congruent,0,601.29271960963,2733.99772917091
18,104,1,140,0.5,0.5,-0.5,1,1,0.4,1,488,1,1,488,1,0,0.2,NaN,-0.922526920063003,-0.922526920063003,750,1,0,congruent,1,697.872176045483,621.642809957185
18,104,1,141,0.5,-0.5,0,2,NaN,0.6,3,650,0,1,NaN,1,0,0.6,NaN,0.378802066475098,NaN,750,0,1,neutral,1,7882.96422838494,1115.06422543802
18,104,1,142,0.5,0.5,-0.5,3,3,0.6,3,554,1,1,554,1,0,1,NaN,-0.392355851473406,-0.392355851473406,750,1,0,congruent,1,1029.268766603,2042.1080187317
18,104,1,143,0.5,-0.5,0,2,NaN,0.6,2,669,1,1,669,1,0,1.4,NaN,0.531427071069073,0.531427071069073,750,0,0,neutral,1,811.176644309626,2872.52592091157
18,104,1,144,-0.5,-0.5,-0.5,4,4,0.6,4,432,1,1,432,1,0,1.6,0.2,-1.3723690388663,-1.3723690388663,750,1,0,congruent,0.1,2889.50122999145,784.611021830458
18,104,1,145,0.5,0.5,0,1,NaN,0.6,1,567,1,1,567,1,0,1.8,NaN,-0.287928216751213,-0.287928216751213,750,0,0,neutral,1,695.072635320604,1178.3759327964
18,104,1,146,-0.5,0.5,0.5,3,4,0.8,3,746,1,1,746,1,0,1.8,0.4,1.1499599844236,1.1499599844236,750,0,0,incongruent,0.1,3975.74977775958,1088.9892980963
18,104,1,147,0.5,-0.5,0.5,4,1,1,1,585,0,1,NaN,1,0,1.6,NaN,-0.143336107135868,NaN,750,1,0,incongruent,1,5375.18871364536,802.013114561023
18,104,1,148,-0.5,-0.5,-0.5,2,2,1,2,725,1,1,725,1,0,1.6,0.4,0.981269189872367,0.981269189872367,750,1,0,congruent,0.1,3229.24763926812,1549.41625288974
18,104,1,149,0.5,-0.5,0.5,3,1,1,3,836,1,0,836,1,0,1.4,NaN,1.87292053250032,1.87292053250032,750,0,0,incongruent,1,1159.30979444455,1902.50146394327
18,104,1,150,0.5,-0.5,0,1,NaN,1,1,678,1,1,678,1,0,1.6,NaN,0.603723125876745,0.603723125876745,750,0,0,neutral,1,975.824278038717,1077.18408638774
18,104,2,151,-0.5,0.5,-0.5,2,2,1,2,570,1,1,570,1,0,1.6,0.4,-0.263829531815322,-0.263829531815322,750,1,0,congruent,0.1,1824.38565892096,829.187101324187
18,104,2,152,-0.5,-0.5,0,3,NaN,1,3,681,1,1,681,1,0,1.6,0.6,0.627821810812636,0.627821810812636,750,0,0,neutral,0.1,1577.93988384787,1282.19228167096
18,104,2,153,-0.5,0.5,-0.5,1,1,1,1,478,1,1,478,1,0,1.4,0.6,-1.00285586984931,-1.00285586984931,750,1,0,congruent,0.1,1996.17773963068,626.665209790243
18,104,2,154,0.5,0.5,0.5,4,3,1,4,745,1,1,745,1,0,1.4,NaN,1.14192708944497,1.14192708944497,750,0,0,incongruent,1,308.601608991214,875.995874513636
18,104,2,155,0.5,0.5,-0.5,2,2,1,2,594,1,1,594,1,0,1.4,NaN,-0.071040052328196,-0.071040052328196,750,1,0,congruent,1,582.305284226082,3063.88773047178
18,104,2,156,-0.5,-0.5,0,1,NaN,1,1,541,1,1,541,1,0,1.4,0.6,-0.496783486195599,-0.496783486195599,750,0,0,neutral,0.1,1783.87350331053,681.231922449318
18,104,2,157,0.5,-0.5,-0.5,3,3,1,3,652,1,1,652,1,0,1.4,NaN,0.394867856432358,0.394867856432358,750,1,0,congruent,1,1918.76407260556,1468.88492059883
18,104,2,158,0.5,-0.5,-0.5,4,4,1,4,441,1,1,441,1,0,1.6,NaN,-1.30007298405862,-1.30007298405862,750,1,0,congruent,1,1000.06487364989,1581.44790962261
18,104,2,159,0.5,0.5,-0.5,1,1,1,1,549,1,1,549,1,0,1.8,NaN,-0.432520326366557,-0.432520326366557,750,1,0,congruent,1,799.313037963447,1515.28092182379
18,104,2,160,-0.5,0.5,0.5,4,2,1,4,673,1,1,673,1,0,1.8,0.8,0.563558650983594,0.563558650983594,750,0,0,incongruent,0.1,5674.13653832444,720.684367429159
18,104,2,161,-0.5,0.5,0,2,NaN,1,2,705,1,1,705,1,0,1.6,1,0.820611290299762,0.820611290299762,750,0,0,neutral,0.1,999.954814751109,3002.37673526578
18,104,2,162,-0.5,-0.5,0.5,3,2,1,3,629,1,1,629,1,0,1.6,0.8,0.210111271923863,0.210111271923863,750,0,0,incongruent,0.1,1698.75229326943,866.568532391358
18,104,2,163,0.5,0.5,0.5,1,3,1,1,676,1,1,676,1,0,1.4,NaN,0.587657335919485,0.587657335919485,750,0,0,incongruent,1,3459.08251237286,744.067800033624
18,104,2,164,0.5,0.5,-0.5,2,2,1,2,698,1,1,698,1,0,1.4,NaN,0.76438102544935,0.76438102544935,750,1,0,congruent,1,2084.2739361623,2371.1154578081
18,104,2,165,-0.5,0.5,-0.5,1,1,1,1,691,1,1,691,1,0,1.4,1,0.708150760598938,0.708150760598938,750,1,0,congruent,0.1,2566.94428076798,1225.43022900189
18,104,2,166,-0.5,-0.5,0,2,NaN,1,2,732,1,1,732,1,0,1.4,1,1.03749945472278,1.03749945472278,750,0,0,neutral,0.1,533.2524999996,697.837097485228
18,104,2,167,0.5,0.5,-0.5,4,4,1,4,538,1,1,538,1,0,1.4,NaN,-0.52088217113149,-0.52088217113149,750,1,0,congruent,1,694.856112339036,906.415043581566
18,104,2,168,0.5,0.5,0.5,1,2,1,1,530,1,1,530,1,0,1.6,NaN,-0.585145330960532,-0.585145330960532,750,0,0,incongruent,1,901.096867073963,642.339886405699
18,104,2,169,-0.5,-0.5,0.5,2,1,1,1,651,0,1,NaN,1,0,1.6,1,0.386834961453728,NaN,750,1,0,incongruent,0.1,1078.42388969389,823.887425767568
18,104,2,170,0.5,-0.5,-0.5,4,4,1,4,602,1,1,602,1,0,1.4,NaN,-0.00677689249915403,-0.00677689249915403,750,1,0,congruent,1,842.436405750108,355.938966238319
18,104,2,171,0.5,-0.5,0,1,NaN,1,1,532,1,1,532,1,0,1.6,NaN,-0.569079541003272,-0.569079541003272,750,0,0,neutral,1,2786.39228472701,792.379079049996
18,104,2,172,-0.5,0.5,0.5,3,1,1,2,750,0,1,NaN,0,0,1.8,1,1.18209156433812,NaN,750,0,1,incongruent,0,1882.43485096893,2724.70358043372
18,104,2,173,0.5,-0.5,0.5,1,2,0.8,1,608,1,1,608,1,0,1.4,NaN,0.0414204773726275,0.0414204773726275,750,0,0,incongruent,1,798.068460320758,3847.42982821722
18,104,2,174,-0.5,0.5,0.5,2,3,0.8,2,617,1,1,617,1,0,1.4,0.8,0.1137165321803,0.1137165321803,750,0,0,incongruent,0.1,591.114260163025,2151.98363387658
18,104,2,175,0.5,-0.5,0.5,4,1,0.8,3,878,0,0,NaN,1,0,1.4,NaN,2.2103021216028,NaN,750,0,1,incongruent,1,3379.81292385032,263.77394483688
18,104,2,176,-0.5,-0.5,0.5,1,4,0.8,1,604,1,1,604,1,0,1.4,1,0.00928889745810647,0.00928889745810647,750,0,0,incongruent,0.1,6031.32281121749,1262.32352417701
18,104,2,177,-0.5,0.5,0,3,NaN,0.8,3,894,1,0,894,0,0,1.2,0.8,2.33882844126088,2.33882844126088,750,0,0,neutral,0,796.525383581494,1852.79712078115
18,104,2,178,-0.5,-0.5,0.5,4,1,0.6,4,344,1,1,344,1,0,1.2,1,-2.07926379698576,-2.07926379698576,750,0,0,incongruent,0.1,997.146844790278,783.378462998053
18,104,2,179,0.5,0.5,0.5,1,4,0.6,1,663,1,1,663,1,0,1,NaN,0.483229701197291,0.483229701197291,750,0,0,incongruent,1,667.539885688374,649.352787854978
18,104,2,180,-0.5,-0.5,-0.5,2,2,0.6,2,566,1,1,566,1,0,1.2,1,-0.295961111729843,-0.295961111729843,750,1,0,congruent,0.1,2712.51602980721,944.228076935506
18,104,2,181,-0.5,0.5,0.5,3,4,0.6,3,756,1,0,756,0,0,1,0.6,1.2302889342099,1.2302889342099,750,0,0,incongruent,0,516.000054854522,1398.66043926903
18,104,2,182,-0.5,0.5,0.5,1,3,0.4,1,886,1,0,886,0,0,0.8,0.4,2.27456528143184,2.27456528143184,750,0,0,incongruent,0,905.460031485026,1616.08967321615
18,104,2,183,-0.5,0.5,0,2,NaN,0.4,2,665,1,1,665,1,0,0.8,0.2,0.499295491154552,0.499295491154552,750,0,0,neutral,0.1,1952.3484072714,2752.92175137236
18,104,2,186,-0.5,0.5,0,2,NaN,0.4,2,571,1,1,571,1,0,0.2,0.4,-0.255796636836692,-0.255796636836692,750,0,0,neutral,0.1,1437.63309171177,428.301250833071
18,104,2,187,-0.5,0.5,-0.5,3,3,0.6,3,675,1,1,675,1,0,0.4,0.4,0.579624440940854,0.579624440940854,750,1,0,congruent,0.1,797.228191384523,2701.06977116267
18,104,2,188,-0.5,-0.5,0,1,NaN,0.6,1,488,1,1,488,1,0,0.6,0.8,-0.922526920063003,-0.922526920063003,750,0,0,neutral,0.1,413.328120269699,720.42830717707
18,104,2,189,0.5,0.5,-0.5,2,2,0.6,2,472,1,1,472,1,0,0.6,NaN,-1.05105323972109,-1.05105323972109,750,1,0,congruent,1,1339.06349060397,920.102357042488
18,104,2,190,-0.5,-0.5,-0.5,1,1,0.8,1,459,1,1,459,1,0,1,0.8,-1.15548087444328,-1.15548087444328,750,1,0,congruent,0.1,982.472788406959,1804.29908208964
18,104,2,191,-0.5,0.5,-0.5,3,3,0.8,3,765,1,0,765,0,0,1.2,0.6,1.30258498901758,1.30258498901758,750,1,0,congruent,0,1718.53364338827,1562.45353065948
18,104,2,192,-0.5,-0.5,-0.5,2,2,0.8,2,591,1,1,591,1,0,1,0.8,-0.0951387372640868,-0.0951387372640868,750,1,0,congruent,0.1,2235.51910767158,325.132904887466
18,104,2,193,0.5,0.5,0.5,1,4,0.8,1,497,1,1,497,1,0,1,NaN,-0.85023086525533,-0.85023086525533,750,0,0,incongruent,1,2323.7151248662,598.971039081048
18,104,2,194,-0.5,0.5,-0.5,3,3,0.8,3,644,1,1,644,1,0,1.2,0.6,0.330604696603316,0.330604696603316,750,1,0,congruent,0.1,1515.79218438088,1672.06505713584
18,104,2,195,-0.5,-0.5,0.5,1,2,0.8,1,527,1,1,527,1,0,1,0.8,-0.609244015896423,-0.609244015896423,750,0,0,incongruent,0.1,1860.77190709374,306.145133552214
18,104,2,196,0.5,-0.5,0.5,2,3,0.8,2,735,1,1,735,1,0,1,NaN,1.06159813965867,1.06159813965867,750,0,0,incongruent,1,2041.71918337927,1111.7914337931
18,104,2,197,0.5,-0.5,0,3,NaN,0.8,3,861,1,0,861,0,0,1.4,NaN,2.07374290696608,2.07374290696608,750,0,0,neutral,0,1437.95521964983,2682.16402459721
18,104,2,198,0.5,0.5,-0.5,2,2,0.8,2,525,1,1,525,1,0,1.2,NaN,-0.625309805853683,-0.625309805853683,750,1,0,congruent,1,3178.11208363249,423.459158190545
18,104,2,199,-0.5,0.5,0.5,4,1,0.8,4,833,1,0,833,0,0,1.2,0.8,1.84882184756443,1.84882184756443,750,0,0,incongruent,0,1691.36723854883,3032.68989693624
18,104,2,200,0.5,-0.5,0,3,NaN,0.6,3,543,1,1,543,1,0,1,NaN,-0.480717696238339,-0.480717696238339,750,0,0,neutral,1,1168.37929472121,835.062604614048
18,104,2,201,0.5,0.5,-0.5,1,1,0.6,1,579,1,1,579,1,0,1.2,NaN,-0.19153347700765,-0.19153347700765,750,1,0,congruent,1,847.221479083709,1361.16119410997
18,104,2,202,0.5,-0.5,0.5,3,2,0.8,4,975,0,0,NaN,1,0,1.2,NaN,2.98949293452993,NaN,750,0,1,incongruent,1,257.022407884694,2568.2076765283
18,104,2,203,0.5,0.5,0,1,NaN,0.8,1,650,1,1,650,1,0,1.6,NaN,0.378802066475098,0.378802066475098,750,0,0,neutral,1,1008.59537876671,667.862238504127
18,104,2,204,-0.5,0.5,-0.5,4,4,0.8,4,528,1,1,528,1,0,1.6,0.6,-0.601211120917793,-0.601211120917793,750,1,0,congruent,0.1,3476.34702522695,644.056323896211
18,104,2,205,-0.5,0.5,-0.5,2,2,0.8,2,655,1,1,655,1,0,1.8,0.6,0.418966541368249,0.418966541368249,750,1,0,congruent,0.1,681.292256083472,1513.03076103597
18,104,2,206,0.5,0.5,0,1,NaN,0.8,1,603,1,1,603,1,0,1.6,NaN,0.00125600247947622,0.00125600247947622,750,0,0,neutral,1,2518.29359266428,1025.82153343374
18,104,2,207,-0.5,-0.5,-0.5,2,2,1,2,679,1,1,679,1,0,1.6,0.8,0.611756020855375,0.611756020855375,750,1,0,congruent,0.1,4058.10537162748,1640.15390529243
18,104,2,208,-0.5,-0.5,0.5,3,4,1,4,555,0,1,NaN,1,0,1.4,1,-0.384322956494776,NaN,750,1,0,incongruent,0.1,3939.71313684468,1842.79263750181
18,104,2,209,-0.5,0.5,0,4,NaN,1,4,565,1,1,565,1,0,1.2,0.6,-0.303994006708473,-0.303994006708473,750,0,0,neutral,0.1,1294.10708237854,283.769554409006
18,104,2,210,0.5,0.5,-0.5,1,1,1,1,732,1,1,732,1,0,1.2,NaN,1.03749945472278,1.03749945472278,750,1,0,congruent,1,1528.79038167784,2000.39999520836
18,104,2,211,-0.5,-0.5,-0.5,2,2,1,2,609,1,1,609,1,0,1.4,1,0.0494533723512577,0.0494533723512577,750,1,0,congruent,0.1,3000.30874261672,1717.27687683999
18,104,2,212,-0.5,0.5,0.5,1,3,1,4,681,0,1,NaN,0,0,1.2,0.8,0.627821810812636,NaN,750,0,1,incongruent,0,5012.57748042051,2700.16473524514
18,104,2,213,-0.5,-0.5,0.5,4,2,0.8,4,633,1,1,633,1,0,1,1,0.242242851838384,0.242242851838384,750,0,0,incongruent,0.1,1742.22349970928,786.139800017852
18,104,2,214,0.5,0.5,0.5,3,4,0.8,3,701,1,1,701,1,0,1,NaN,0.788479710385241,0.788479710385241,750,0,0,incongruent,1,2415.63416452934,2859.1871508496
18,104,2,215,0.5,0.5,0.5,2,1,0.8,2,787,1,0,787,0,0,1.2,NaN,1.47930867854744,1.47930867854744,750,0,0,incongruent,0,2831.89446087735,2067.51306580627
18,104,2,216,0.5,0.5,0.5,4,2,0.6,4,622,1,1,622,1,0,0.8,NaN,0.153881007073451,0.153881007073451,750,0,0,incongruent,1,647.818564220868,1275.26328318878
18,104,2,217,-0.5,0.5,0.5,2,1,0.6,1,986,0,0,NaN,0,0,1,0.6,3.07785477929486,NaN,750,1,0,incongruent,0,3467.16620393703,1715.75208345389
18,104,2,218,-0.5,-0.5,-0.5,4,4,0.4,4,750,1,1,750,1,0,1,1,1.18209156433812,1.18209156433812,750,1,0,congruent,0.1,1486.84948816957,3699.05898621236
18,104,2,219,0.5,-0.5,0.5,2,3,0.4,3,628,0,1,NaN,0,0,1,NaN,0.202078376945232,NaN,750,1,0,incongruent,0,1874.15508496717,714.411664997524
18,104,2,220,-0.5,0.5,0,4,NaN,0.4,4,750,1,1,750,0,0,0.6,0.6,1.18209156433812,1.18209156433812,750,0,0,neutral,0,1139.09347058306,2118.90071706211
18,104,2,221,-0.5,0.5,-0.5,3,3,0.4,3,689,1,1,689,1,0,0.6,0.4,0.692084970641678,0.692084970641678,750,1,0,congruent,0.1,1376.06226100682,2066.69236221646
18,104,2,222,-0.5,-0.5,0,2,NaN,0.4,2,505,1,1,505,1,0,0.4,1,-0.785967705426288,-0.785967705426288,750,0,0,neutral,0.1,1151.16034451294,683.398422739035
18,104,2,223,-0.5,-0.5,0.5,3,1,0.4,2,643,0,1,NaN,0,0,0.6,1,0.322571801624686,NaN,750,0,1,incongruent,0,1928.06555065593,1967.13620691446
18,104,2,224,0.5,-0.5,-0.5,2,2,0.4,2,497,1,1,497,0,0,0.4,NaN,-0.85023086525533,-0.85023086525533,750,1,0,congruent,0,4431.46000896923,553.261668418494
18,104,2,225,-0.5,-0.5,-0.5,1,1,0.4,1,671,1,1,671,0,0,0.4,0.8,0.547492861026333,0.547492861026333,750,1,0,congruent,0,3935.66817934919,1900.55974126186
18,104,2,226,-0.5,-0.5,-0.5,2,2,0.4,2,634,1,1,634,0,0,0.4,0.6,0.250275746817014,0.250275746817014,750,1,0,congruent,0,2335.85937131042,773.580507303567
18,104,2,227,0.5,0.5,-0.5,3,3,0.4,3,679,1,1,679,1,0,0.2,NaN,0.611756020855375,0.611756020855375,750,1,0,congruent,1,3112.99996761925,1793.78140918313
18,104,2,228,0.5,0.5,0.5,1,4,0.6,1,520,1,1,520,1,0,0.4,NaN,-0.665474280746835,-0.665474280746835,750,0,0,incongruent,1,1102.29417279542,720.727202106964
18,104,2,229,0.5,-0.5,-0.5,3,3,0.6,3,528,1,1,528,0,0,0.8,NaN,-0.601211120917793,-0.601211120917793,750,1,0,congruent,0,1276.55432104074,421.976746772244
18,104,2,230,-0.5,0.5,0,2,NaN,0.6,2,590,1,1,590,1,0,0.8,0.4,-0.103171632242717,-0.103171632242717,750,0,0,neutral,0.1,1893.54608535946,764.71671446036
18,104,2,231,-0.5,0.5,-0.5,4,4,0.8,4,515,1,1,515,1,0,1,0.4,-0.705638755639986,-0.705638755639986,750,1,0,congruent,0.1,1147.97126194265,648.32936305667
18,104,2,232,0.5,-0.5,-0.5,2,2,1,2,864,1,0,864,1,0,1.2,NaN,2.09784159190197,2.09784159190197,750,1,0,congruent,1,1764.58688010872,1820.54797435121
18,104,2,233,0.5,-0.5,-0.5,3,3,1,3,523,1,1,523,1,0,1.2,NaN,-0.641375595810944,-0.641375595810944,750,1,0,congruent,1,537.92304761889,752.893078622794
18,104,2,234,0.5,0.5,0,1,NaN,1,1,714,1,1,714,1,0,1.2,NaN,0.892907345107434,0.892907345107434,750,0,0,neutral,1,2694.53409733168,2445.61836263763
18,104,2,235,0.5,0.5,-0.5,2,2,1,2,698,1,1,698,1,0,1.6,NaN,0.76438102544935,0.76438102544935,750,1,0,congruent,1,3096.54455986003,1482.18819335299
18,104,2,236,-0.5,-0.5,0.5,4,3,1,4,519,1,1,519,1,0,1.8,0.4,-0.673507175725465,-0.673507175725465,750,0,0,incongruent,0.1,1324.1779721968,649.816251169201
18,104,2,237,0.5,-0.5,-0.5,1,1,1,1,492,1,1,492,1,0,1.8,NaN,-0.890395340148482,-0.890395340148482,750,1,0,congruent,1,1321.30079339597,2169.71641668914
18,104,2,238,0.5,-0.5,0,2,NaN,1,2,656,1,1,656,1,0,1.8,NaN,0.42699943634688,0.42699943634688,750,0,0,neutral,1,654.322169959718,1214.86891351315
18,104,2,239,0.5,-0.5,-0.5,4,4,1,4,618,1,1,618,1,0,1.8,NaN,0.12174942715893,0.12174942715893,750,1,0,congruent,1,1959.52996078842,1961.09063667356
18,104,2,240,0.5,-0.5,0,2,NaN,1,2,592,1,1,592,1,0,1.8,NaN,-0.0871058422854565,-0.0871058422854565,750,0,0,neutral,1,3829.74132674799,1019.11742544369
18,104,2,241,0.5,0.5,0.5,4,2,1,4,859,1,0,859,0,0,1.8,NaN,2.05767711700882,2.05767711700882,750,0,0,incongruent,0,929.900499307855,226.071417836036
18,104,2,242,0.5,0.5,-0.5,3,3,0.8,3,589,1,1,589,1,0,1.6,NaN,-0.111204527221347,-0.111204527221347,750,1,0,congruent,1,2254.69308043243,1010.82324621053
18,104,2,243,0.5,0.5,0.5,1,4,0.8,1,580,1,1,580,1,0,1.6,NaN,-0.18350058202902,-0.18350058202902,750,0,0,incongruent,1,2717.457612297,165.638779785937
18,104,2,244,-0.5,-0.5,0.5,4,1,0.8,3,971,0,0,NaN,1,0,1.6,0.4,2.95736135461541,NaN,750,0,1,incongruent,0.1,691.705006376542,849.137467976596
18,104,2,245,-0.5,-0.5,0,2,NaN,0.8,2,608,1,1,608,1,0,1.4,0.4,0.0414204773726275,0.0414204773726275,750,0,0,neutral,0.1,578.324982825203,520.078504299407
18,104,2,246,-0.5,-0.5,0.5,3,4,0.8,3,830,1,0,830,1,0,1.2,0.6,1.82472316262854,1.82472316262854,750,0,0,incongruent,0.1,1614.38843319373,3087.57562852915
18,104,2,247,-0.5,0.5,-0.5,1,1,0.8,1,491,1,1,491,1,0,1.4,0.6,-0.898428235127112,-0.898428235127112,750,1,0,congruent,0.1,985.435799065169,474.604199068944
18,104,2,248,-0.5,-0.5,0,4,NaN,0.8,4,582,1,1,582,1,0,1.2,0.8,-0.167434792071759,-0.167434792071759,750,0,0,neutral,0.1,809.111162321507,313.593659526503
18,104,2,249,0.5,-0.5,0.5,1,3,0.8,1,510,1,1,510,1,0,1,NaN,-0.745803230533137,-0.745803230533137,750,0,0,incongruent,1,2384.8716846984,425.472634001222
18,104,2,250,0.5,-0.5,-0.5,4,4,0.8,4,671,1,1,671,1,0,1.2,NaN,0.547492861026333,0.547492861026333,750,1,0,congruent,1,1535.17930207846,2985.85214899045
18,104,2,251,-0.5,-0.5,-0.5,3,3,0.8,3,646,1,1,646,0,0,1.4,1,0.346670486560577,0.346670486560577,750,1,0,congruent,0,1961.85825744351,1349.87105460037
18,104,2,252,0.5,0.5,-0.5,4,4,0.8,4,698,1,1,698,1,0,1.2,NaN,0.76438102544935,0.76438102544935,750,1,0,congruent,1,4057.11798800477,746.142327502465
18,104,2,253,-0.5,-0.5,-0.5,2,2,0.8,2,592,1,1,592,1,0,1.4,0.8,-0.0871058422854565,-0.0871058422854565,750,1,0,congruent,0.1,5337.7703166948,1554.05542967546
18,104,2,254,0.5,0.5,-0.5,3,3,0.8,3,641,1,1,641,1,0,1.4,NaN,0.306506011667426,0.306506011667426,750,1,0,congruent,1,2217.25820880484,1118.72728355413
18,104,2,255,0.5,-0.5,0,1,NaN,1,1,685,1,1,685,1,0,1.4,NaN,0.659953390727157,0.659953390727157,750,0,0,neutral,1,1422.61833820537,1427.7346974727
18,104,2,256,-0.5,-0.5,-0.5,4,4,1,4,642,1,1,642,1,0,1.4,0.8,0.314538906646056,0.314538906646056,750,1,0,congruent,0.1,772.077537604692,3455.06892898285
18,104,2,257,0.5,0.5,0.5,1,2,1,1,520,1,1,520,1,0,1.6,NaN,-0.665474280746835,-0.665474280746835,750,0,0,incongruent,1,1112.03225542147,388.509445967731
18,104,2,258,-0.5,-0.5,0,4,NaN,1,4,886,1,0,886,1,0,1.6,0.8,2.27456528143184,2.27456528143184,750,0,0,neutral,0.1,961.077014854355,2693.8482826616
18,104,2,259,0.5,0.5,-0.5,1,1,1,1,364,1,1,364,1,0,1.6,NaN,-1.91860589741315,-1.91860589741315,750,1,0,congruent,1,1526.51614915087,462.993130809399
18,104,2,260,-0.5,-0.5,0.5,3,4,1,3,606,1,1,606,1,0,1.6,0.8,0.025354687415367,0.025354687415367,750,0,0,incongruent,0.1,1719.46983414446,459.823929585962
18,104,2,261,-0.5,0.5,0,2,NaN,1,2,674,1,1,674,1,0,1.4,0.8,0.571591545962224,0.571591545962224,750,0,0,neutral,0.1,6522.04152756741,2327.91227457332
18,104,2,262,-0.5,-0.5,-0.5,1,1,1,1,564,1,1,564,1,0,1.4,0.8,-0.312026901687104,-0.312026901687104,750,1,0,congruent,0.1,2068.61927430172,1919.77846893562
18,104,2,263,0.5,0.5,0.5,4,3,1,4,550,1,1,550,1,0,1.2,NaN,-0.424487431387927,-0.424487431387927,750,0,0,incongruent,1,842.403556704287,729.019972948796
18,104,2,264,0.5,-0.5,-0.5,2,2,1,2,594,1,1,594,1,0,1.4,NaN,-0.071040052328196,-0.071040052328196,750,1,0,congruent,1,2509.99293751829,2610.40968931635
18,104,2,265,0.5,0.5,0.5,4,3,1,4,757,1,0,757,0,0,1.4,NaN,1.23832182918853,1.23832182918853,750,0,0,incongruent,0,587.139648483171,377.885568086138
18,104,2,266,-0.5,-0.5,-0.5,1,1,0.8,1,625,1,1,625,1,0,1.2,1,0.177979692009342,0.177979692009342,750,1,0,congruent,0.1,1200.79686531332,1677.39853588107
18,104,2,267,-0.5,0.5,0.5,4,3,0.8,4,478,1,1,478,1,0,1.2,1,-1.00285586984931,-1.00285586984931,750,0,0,incongruent,0.1,846.291529656899,680.651927466718
18,104,2,268,-0.5,-0.5,0,3,NaN,0.8,2,639,0,1,NaN,1,0,1.2,1,0.290440221710165,NaN,750,0,1,neutral,0.1,2775.13100715109,2348.01527315259
18,104,2,269,0.5,-0.5,-0.5,2,2,0.8,2,552,1,1,552,1,0,1,NaN,-0.408421641430667,-0.408421641430667,750,1,0,congruent,1,1029.04146853137,554.037684885855
18,104,2,270,0.5,-0.5,0,1,NaN,0.8,1,616,1,1,616,1,0,1,NaN,0.105683637201669,0.105683637201669,750,0,0,neutral,1,976.138790474124,2590.43710049676
18,104,2,271,0.5,0.5,0.5,2,1,0.8,1,565,0,1,NaN,0,0,1.4,NaN,-0.303994006708473,NaN,750,1,0,incongruent,0,3166.46588448572,655.166303504733
18,104,2,272,-0.5,0.5,0,4,NaN,0.6,4,528,1,1,528,1,0,1.2,1,-0.601211120917793,-0.601211120917793,750,0,0,neutral,0.1,747.161397361258,1576.46228373061
18,104,2,273,-0.5,-0.5,0.5,2,4,0.6,2,980,1,0,980,0,0,1.2,1,3.02965740942308,3.02965740942308,750,0,0,incongruent,0,1715.32615732737,1473.06275716322
18,104,2,274,0.5,-0.5,0,4,NaN,0.6,4,445,1,1,445,1,0,1,NaN,-1.2679414041441,-1.2679414041441,750,0,0,neutral,1,1203.49959037974,934.116671527424
18,104,2,275,-0.5,0.5,-0.5,3,3,0.6,3,700,1,1,700,1,0,1,1,0.780446815406611,0.780446815406611,750,1,0,congruent,0.1,401.275448965851,1011.84002875071
18,104,2,277,-0.5,0.5,0.5,1,2,0.6,1,594,1,1,594,1,0,1,1,-0.071040052328196,-0.071040052328196,750,0,0,incongruent,0.1,1304.35553016253,762.259501208019
18,104,2,278,0.5,-0.5,0.5,2,4,0.8,4,694,0,1,NaN,0,0,1,NaN,0.732249445534829,NaN,750,1,0,incongruent,0,3310.66080628763,964.057922858049
18,104,2,280,-0.5,-0.5,0.5,2,4,0.8,2,908,1,0,908,1,0,1,0.8,2.4512889709617,2.4512889709617,750,0,0,incongruent,0.1,1246.75845320376,226.669258647334
18,104,2,281,-0.5,-0.5,-0.5,3,3,0.8,3,660,1,1,660,1,0,1,0.8,0.459131016261401,0.459131016261401,750,1,0,congruent,0.1,1037.69775301886,1051.87747341825
18,104,2,282,-0.5,-0.5,0.5,4,1,0.8,1,537,0,1,NaN,0,0,1,0.8,-0.52891506611012,NaN,750,1,0,incongruent,0,1587.34530556844,1173.44663582994
18,104,2,283,0.5,0.5,-0.5,2,2,0.8,2,527,1,1,527,1,0,0.8,NaN,-0.609244015896423,-0.609244015896423,750,1,0,congruent,1,2271.32293449921,1062.96447691007
18,104,2,284,0.5,-0.5,0,1,NaN,0.8,1,560,1,1,560,0,0,1.2,NaN,-0.344158481601625,-0.344158481601625,750,0,0,neutral,0,2650.75813514937,1141.83868330801
18,104,2,285,-0.5,0.5,-0.5,2,2,0.8,2,603,1,1,603,1,0,0.8,1,0.00125600247947622,0.00125600247947622,750,1,0,congruent,0.1,600.771606736194,185.88596821566
18,104,2,286,-0.5,-0.5,0,1,NaN,1,1,600,1,1,600,1,0,0.8,0.6,-0.0228426824564145,-0.0228426824564145,750,0,0,neutral,0.1,1668.75181837507,128.300035314333
18,104,2,287,0.5,0.5,-0.5,4,4,1,4,404,1,1,404,1,0,0.8,NaN,-1.59729009826794,-1.59729009826794,750,1,0,congruent,1,832.785889739217,119.499204466484
18,104,2,288,0.5,-0.5,0,3,NaN,1,3,492,1,1,492,1,0,1.2,NaN,-0.890395340148482,-0.890395340148482,750,0,0,neutral,1,667.313116066661,515.983598126088
18,104,2,289,-0.5,-0.5,-0.5,1,1,1,1,557,1,1,557,1,0,1.2,0.8,-0.368257166537515,-0.368257166537515,750,1,0,congruent,0.1,632.235822150546,1101.15705331575
18,104,2,290,-0.5,-0.5,0.5,3,4,1,3,618,1,1,618,1,0,1.4,0.8,0.12174942715893,0.12174942715893,750,0,0,incongruent,0.1,1928.26905472204,2822.61225469944
18,104,2,291,-0.5,0.5,0,1,NaN,1,1,551,1,1,551,1,0,1.4,1,-0.416454536409297,-0.416454536409297,750,0,0,neutral,0.1,2643.02089640295,573.73949295848
18,104,2,292,-0.5,-0.5,-0.5,3,3,1,3,685,1,1,685,1,0,1.4,0.8,0.659953390727157,0.659953390727157,750,1,0,congruent,0.1,1704.59760046232,1114.4534308748
18,104,2,293,-0.5,0.5,0.5,2,4,1,2,373,1,1,373,1,0,1.2,1,-1.84630984260548,-1.84630984260548,750,0,0,incongruent,0.1,3940.86792485752,1053.23871280046
18,104,2,294,-0.5,-0.5,0,4,NaN,1,4,576,1,1,576,1,0,1,0.8,-0.215632161943541,-0.215632161943541,750,0,0,neutral,0.1,1230.10822795711,1407.40810090748
18,104,2,295,-0.5,-0.5,-0.5,2,2,1,2,706,1,1,706,1,0,1,1,0.828644185278392,0.828644185278392,750,1,0,congruent,0.1,742.567217247514,646.933274790376
18,104,2,296,-0.5,-0.5,0,3,NaN,1,3,588,1,1,588,1,0,1,1,-0.119237422199978,-0.119237422199978,750,0,0,neutral,0.1,1009.91275260279,401.432568384795
18,104,2,297,-0.5,-0.5,-0.5,1,1,1,1,455,1,1,455,1,0,1,1,-1.1876124543578,-1.1876124543578,750,1,0,congruent,0.1,443.503908260003,729.830493109588
18,104,2,298,-0.5,-0.5,-0.5,2,2,1,2,612,1,1,612,1,0,1,1,0.0735520572871485,0.0735520572871485,750,1,0,congruent,0.1,2870.80543296188,2272.0969035476
18,104,2,299,0.5,0.5,-0.5,4,4,1,4,379,1,1,379,1,0,1,NaN,-1.7981124727337,-1.7981124727337,750,1,0,congruent,1,1316.53220932975,1037.00641776988
18,104,2,300,-0.5,0.5,-0.5,3,3,1,3,676,1,1,676,1,0,1.2,1,0.587657335919485,0.587657335919485,750,1,0,congruent,0.1,1413.78904390177,1664.99648834887
18,104,3,301,-0.5,0.5,-0.5,4,4,1,4,509,1,1,509,1,0,1.2,1,-0.753836125511767,-0.753836125511767,750,1,0,congruent,0.1,873.146873855064,597.108399733722
18,104,3,302,0.5,-0.5,-0.5,3,3,1,3,536,1,1,536,1,0,1.2,NaN,-0.536947961088751,-0.536947961088751,750,1,0,congruent,1,3476.74473719346,1006.7241942731
18,104,3,303,0.5,-0.5,-0.5,4,4,1,4,606,1,1,606,1,0,1.4,NaN,0.025354687415367,0.025354687415367,750,1,0,congruent,1,2147.30156588565,1731.6276751658
18,104,3,305,-0.5,-0.5,-0.5,2,2,0.8,2,455,1,1,455,0,0,1.2,1,-1.1876124543578,-1.1876124543578,750,1,0,congruent,0,800.277133472289,317.761823104469
18,104,3,306,-0.5,-0.5,-0.5,3,3,0.8,3,447,1,1,447,1,0,1,0.8,-1.25187561418684,-1.25187561418684,750,1,0,congruent,0.1,1947.64669717344,534.763329102187
18,104,3,307,-0.5,-0.5,0,4,NaN,0.8,4,586,1,1,586,1,0,1,0.8,-0.135303212157238,-0.135303212157238,750,0,0,neutral,0.1,3421.42149104904,1188.24805121306
18,104,3,308,0.5,-0.5,-0.5,2,2,0.8,2,556,1,1,556,1,0,0.8,NaN,-0.376290061516146,-0.376290061516146,750,1,0,congruent,1,5217.01021642827,1291.56101902143
18,104,3,309,-0.5,0.5,-0.5,4,4,0.8,4,553,1,1,553,1,0,0.8,1,-0.400388746452036,-0.400388746452036,750,1,0,congruent,0.1,2260.35150440898,827.527964661046
18,104,3,310,-0.5,-0.5,0,3,NaN,0.8,3,628,1,1,628,1,0,1,0.8,0.202078376945232,0.202078376945232,750,0,0,neutral,0.1,762.054174386597,3936.87014944998
18,104,3,311,0.5,-0.5,0.5,4,2,0.8,4,578,1,1,578,1,0,1.2,NaN,-0.19956637198628,-0.19956637198628,750,0,0,incongruent,1,3691.38009445613,1054.9937084941
18,104,3,312,-0.5,0.5,-0.5,1,1,0.8,1,431,1,1,431,1,0,1.4,1,-1.38040193384493,-1.38040193384493,750,1,0,congruent,0.1,1482.81406591878,457.533659189221
18,104,3,313,-0.5,-0.5,0.5,4,3,0.8,4,514,1,1,514,1,0,1.4,0.8,-0.713671650618616,-0.713671650618616,750,0,0,incongruent,0.1,1001.66788469227,662.554565998759
18,104,3,314,0.5,0.5,0,3,NaN,0.8,3,500,1,1,500,1,0,1.2,NaN,-0.82613218031944,-0.82613218031944,750,0,0,neutral,1,366.971616536484,424.549693311866
18,104,3,315,0.5,-0.5,-0.5,2,2,0.8,2,521,1,1,521,1,0,1.4,NaN,-0.657441385768204,-0.657441385768204,750,1,0,congruent,1,1229.08220048177,605.556878377266
18,104,3,316,-0.5,-0.5,-0.5,3,3,0.8,4,542,0,1,NaN,1,0,1.6,0.8,-0.488750591216969,NaN,750,0,1,congruent,0.1,2695.78266513089,1591.26669252638
18,104,3,317,-0.5,-0.5,-0.5,2,2,0.8,2,573,1,1,573,1,0,1.4,1,-0.239730846879431,-0.239730846879431,750,1,0,congruent,0.1,1399.18885566112,1044.38317971599
18,104,3,318,-0.5,0.5,0.5,3,1,0.8,1,755,0,0,NaN,0,0,1.4,1,1.22225603923127,NaN,750,1,0,incongruent,0,1769.07571551128,1041.32798639115
18,104,3,319,-0.5,0.5,0.5,2,3,0.6,2,702,1,1,702,1,0,1.2,0.8,0.796512605363871,0.796512605363871,750,0,0,incongruent,0.1,1863.17962190774,970.875079892212
18,104,3,320,-0.5,-0.5,0.5,4,2,0.8,4,885,1,0,885,1,0,1,1,2.26653238645321,2.26653238645321,750,0,0,incongruent,0.1,2205.46750861939,1600.42808054965
18,104,3,321,0.5,0.5,0,1,NaN,0.8,1,499,1,1,499,1,0,0.8,NaN,-0.83416507529807,-0.83416507529807,750,0,0,neutral,1,309.090596415267,536.76702140834
18,104,3,322,0.5,0.5,-0.5,4,4,0.8,4,745,1,1,745,1,0,1,NaN,1.14192708944497,1.14192708944497,750,1,0,congruent,1,1675.60078453813,1825.17086162817
18,104,3,323,0.5,-0.5,0,1,NaN,0.8,1,541,1,1,541,1,0,1.2,NaN,-0.496783486195599,-0.496783486195599,750,0,0,neutral,1,3155.03817231087,834.297544103068
18,104,3,324,0.5,0.5,-0.5,4,4,0.8,4,506,1,1,506,1,0,1.6,NaN,-0.777934810447658,-0.777934810447658,750,1,0,congruent,1,1594.07013917116,320.086350244382
18,104,3,325,-0.5,-0.5,0.5,1,2,0.8,1,544,1,1,544,1,0,1.8,1,-0.472684801259709,-0.472684801259709,750,0,0,incongruent,0.1,2332.39824877171,2363.41740702485
18,104,3,326,-0.5,0.5,-0.5,3,3,0.8,3,613,1,1,613,1,0,1.8,0.8,0.0815849522657787,0.0815849522657787,750,1,0,congruent,0.1,1251.48541594009,2810.29028664897
18,104,3,327,0.5,-0.5,0.5,4,1,1,1,612,0,1,NaN,1,0,1.6,NaN,0.0735520572871485,NaN,750,1,0,incongruent,1,4333.9923966989,2132.680215685
18,104,3,328,-0.5,0.5,-0.5,2,2,1,2,505,1,1,505,1,0,1.6,0.8,-0.785967705426288,-0.785967705426288,750,1,0,congruent,0.1,1443.8166945044,2088.89648790112
18,104,3,330,0.5,-0.5,0.5,3,4,0.8,3,481,1,1,481,0,0,1,NaN,-0.978757184913414,-0.978757184913414,750,0,0,incongruent,0,905.097479575887,499.037792083332
18,104,3,331,0.5,0.5,0,1,NaN,0.8,1,532,1,1,532,1,0,0.8,NaN,-0.569079541003272,-0.569079541003272,750,0,0,neutral,1,1615.8049293936,807.450430900238
18,104,3,332,-0.5,-0.5,0.5,3,2,0.8,3,988,1,0,988,1,0,1,1,3.09392056925212,3.09392056925212,750,0,0,incongruent,0.1,1867.77287366888,710.960503685948
18,104,3,334,0.5,-0.5,0.5,2,3,0.6,2,509,1,1,509,1,0,0.6,NaN,-0.753836125511767,-0.753836125511767,750,0,0,incongruent,1,2467.06379921978,170.695982199642
18,104,3,335,-0.5,-0.5,0,3,NaN,0.6,3,420,1,1,420,1,0,1,1,-1.46876377860986,-1.46876377860986,750,0,0,neutral,0.1,4456.68388481353,384.724515235657
18,104,3,336,0.5,-0.5,-0.5,2,2,0.6,2,498,1,1,498,1,0,1.2,NaN,-0.8421979702767,-0.8421979702767,750,1,0,congruent,1,556.764278337179,331.253322815297
18,104,3,337,-0.5,-0.5,0,4,NaN,0.6,4,537,1,1,537,1,0,1.2,1,-0.52891506611012,-0.52891506611012,750,0,0,neutral,0.1,957.285082815472,1535.92613331457
18,104,3,338,-0.5,-0.5,-0.5,2,2,0.6,2,465,1,1,465,1,0,1.2,1,-1.1072835045715,-1.1072835045715,750,1,0,congruent,0.1,2317.81178826485,1497.60777494793
18,104,3,339,0.5,-0.5,0.5,1,4,0.6,1,560,1,1,560,1,0,1.4,NaN,-0.344158481601625,-0.344158481601625,750,0,0,incongruent,1,1662.7659660061,2074.20989013066
18,104,3,340,0.5,-0.5,0.5,2,1,0.6,2,630,1,1,630,0,0,1.4,NaN,0.218144166902493,0.218144166902493,750,0,0,incongruent,0,1055.90918902817,1343.61946599499
18,104,3,341,-0.5,0.5,-0.5,3,3,0.6,3,591,1,1,591,1,0,1.2,0.6,-0.0951387372640868,-0.0951387372640868,750,1,0,congruent,0.1,2364.74569136234,3910.2828225983
18,104,3,342,-0.5,-0.5,-0.5,4,4,0.6,4,526,1,1,526,1,0,1,1,-0.617276910875053,-0.617276910875053,750,1,0,congruent,0.1,1403.04203025083,5099.16071490599
18,104,3,343,0.5,0.5,0,2,NaN,0.6,2,574,1,1,574,1,0,1,NaN,-0.231697951900801,-0.231697951900801,750,0,0,neutral,1,953.492042425023,1020.23867179192
18,104,3,344,-0.5,0.5,0.5,4,3,0.6,4,520,1,1,520,1,0,1.2,0.6,-0.665474280746835,-0.665474280746835,750,0,0,incongruent,0.1,1916.95769804797,2351.39591331626
18,104,3,345,-0.5,-0.5,0.5,3,2,0.8,3,839,1,0,839,0,0,1,1,1.89701921743622,1.89701921743622,750,0,0,incongruent,0,902.046068432614,1313.14588242368
18,104,3,346,-0.5,0.5,0.5,2,3,0.8,2,479,1,1,479,1,0,1,0.6,-0.994822974870675,-0.994822974870675,750,0,0,incongruent,0.1,1414.6942867768,3558.63622566765
18,104,3,347,-0.5,-0.5,0.5,4,2,0.8,4,743,1,1,743,1,0,1,0.8,1.12586129948771,1.12586129948771,750,0,0,incongruent,0.1,1689.10030141376,1251.17357732457
18,104,3,348,-0.5,-0.5,-0.5,3,3,0.8,3,606,1,1,606,1,0,1,0.8,0.025354687415367,0.025354687415367,750,1,0,congruent,0.1,3043.54031226001,896.491445599499
18,104,3,349,0.5,0.5,0,4,NaN,0.8,4,781,1,0,781,0,0,0.8,NaN,1.43111130867566,1.43111130867566,750,0,0,neutral,0,2693.52095322105,1768.42427204037
18,104,3,350,-0.5,0.5,-0.5,1,1,0.8,1,589,1,1,589,1,0,0.6,0.6,-0.111204527221347,-0.111204527221347,750,1,0,congruent,0.1,1673.7891052531,2832.3786003804
18,104,3,351,-0.5,0.5,-0.5,3,3,0.8,3,542,1,1,542,1,0,0.8,0.8,-0.488750591216969,-0.488750591216969,750,1,0,congruent,0.1,1118.31594170143,1138.39918071029
18,104,3,352,0.5,0.5,-0.5,4,4,0.8,4,566,1,1,566,1,0,0.8,NaN,-0.295961111729843,-0.295961111729843,750,1,0,congruent,1,1769.31243079897,506.732797485984
18,104,3,353,0.5,-0.5,0,1,NaN,0.8,1,561,1,1,561,0,0,1,NaN,-0.336125586622994,-0.336125586622994,750,0,0,neutral,0,952.81489459443,942.250631475219
18,104,3,354,0.5,0.5,0.5,2,4,0.8,2,765,1,0,765,0,0,0.8,NaN,1.30258498901758,1.30258498901758,750,0,0,incongruent,0,870.666703590638,1415.72655702442
18,104,3,355,-0.5,0.5,0.5,4,2,0.6,4,666,1,1,666,1,0,0.8,1,0.507328386133182,0.507328386133182,750,0,0,incongruent,0.1,1929.99534876282,1744.21191445094
18,104,3,356,-0.5,0.5,0.5,2,1,0.8,2,854,1,0,854,0,0,0.8,1,2.01751264211567,2.01751264211567,750,0,0,incongruent,0,1767.99959829188,2301.52145632137
18,104,3,357,0.5,0.5,-0.5,3,3,0.6,3,535,1,1,535,1,0,0.6,NaN,-0.544980856067381,-0.544980856067381,750,1,0,congruent,1,685.451257696983,685.227813754939
18,104,3,358,0.5,0.5,0,4,NaN,0.6,4,627,1,1,627,1,0,0.6,NaN,0.194045481966602,0.194045481966602,750,0,0,neutral,1,445.15900295273,3589.01950560994
18,104,3,359,0.5,0.5,0.5,2,4,0.6,2,922,1,0,922,0,0,1,NaN,2.56374950066253,2.56374950066253,750,0,0,incongruent,0,416.51628784398,1712.70976834015
18,104,3,360,0.5,-0.5,-0.5,3,3,0.6,3,656,1,1,656,1,0,1,NaN,0.42699943634688,0.42699943634688,750,1,0,congruent,1,2021.48156788752,1753.91666849818
18,104,3,361,0.5,-0.5,0.5,1,2,0.6,1,796,1,0,796,0,0,1.2,NaN,1.55160473335511,1.55160473335511,750,0,0,incongruent,0,1531.64416454404,1595.46058532697
18,104,3,362,-0.5,0.5,0,2,NaN,0.6,2,515,1,1,515,1,0,1.2,0.8,-0.705638755639986,-0.705638755639986,750,0,0,neutral,0.1,1072.73800559711,85.6057968752573
18,104,3,363,0.5,0.5,-0.5,3,3,0.6,3,647,1,1,647,1,0,1,NaN,0.354703381539207,0.354703381539207,750,1,0,congruent,1,3152.33917668641,2449.22694866009
18,104,3,364,-0.5,0.5,-0.5,4,4,0.8,4,473,1,1,473,1,0,1,0.8,-1.04302034474246,-1.04302034474246,750,1,0,congruent,0.1,773.275793837717,1152.74973353854
18,104,3,365,0.5,0.5,0,3,NaN,0.8,3,684,1,1,684,1,0,1.2,NaN,0.651920495748527,0.651920495748527,750,0,0,neutral,1,2146.29662150629,2599.50507289238
18,104,3,366,0.5,-0.5,-0.5,1,1,0.8,1,557,1,1,557,0,0,1.2,NaN,-0.368257166537515,-0.368257166537515,750,1,0,congruent,0,1256.18098961148,2694.47789319308
18,104,3,367,0.5,0.5,0,2,NaN,0.8,2,561,1,1,561,1,0,1.2,NaN,-0.336125586622994,-0.336125586622994,750,0,0,neutral,1,1016.0157245813,719.510748686447
18,104,3,368,-0.5,0.5,0.5,1,2,1,1,522,1,1,522,1,0,1.4,0.8,-0.649408490789574,-0.649408490789574,750,0,0,incongruent,0.1,5723.43674275444,642.018847989272
18,104,3,369,-0.5,-0.5,0,2,NaN,1,2,616,1,1,616,1,0,1.2,0.8,0.105683637201669,0.105683637201669,750,0,0,neutral,0.1,776.656179056518,658.977676009059
18,104,3,370,-0.5,0.5,-0.5,1,1,1,1,465,1,1,465,1,0,1.2,0.8,-1.1072835045715,-1.1072835045715,750,1,0,congruent,0.1,1319.22255923236,510.18342554183
18,104,3,371,-0.5,0.5,0,3,NaN,1,3,485,1,1,485,1,0,1,0.8,-0.946625604998893,-0.946625604998893,750,0,0,neutral,0.1,2224.82891911328,907.370578784501
18,104,3,372,-0.5,0.5,-0.5,4,4,1,4,650,1,1,650,1,0,1.2,1,0.378802066475098,0.378802066475098,750,1,0,congruent,0.1,2716.51607410604,3844.72383396299
18,104,3,373,-0.5,-0.5,0.5,3,2,1,4,546,0,1,NaN,1,0,1,0.8,-0.456619011302448,NaN,750,0,1,incongruent,0.1,7357.55400607129,5683.17214374001
18,104,3,374,-0.5,-0.5,0,2,NaN,1,2,648,1,1,648,1,0,1,0.8,0.362736276517838,0.362736276517838,750,0,0,neutral,0.1,1818.61967818355,2206.93604237428
18,104,3,375,-0.5,0.5,0.5,3,2,1,3,367,1,1,367,1,0,1,1,-1.89450721247726,-1.89450721247726,750,0,0,incongruent,0.1,1681.96934375237,750.420830438096
18,104,3,376,0.5,0.5,-0.5,4,4,1,4,464,1,1,464,1,0,1,NaN,-1.11531639955013,-1.11531639955013,750,1,0,congruent,1,1344.09909531192,874.968191074386
18,104,3,377,0.5,-0.5,0,1,NaN,1,1,504,1,1,504,1,0,1.2,NaN,-0.794000600404919,-0.794000600404919,750,0,0,neutral,1,1553.88751829246,1321.72427874898
18,104,3,378,-0.5,0.5,0.5,3,2,1,3,723,1,1,723,1,0,1.4,1,0.965203399915106,0.965203399915106,750,0,0,incongruent,0.1,1573.30678908094,1884.0262939167
18,104,3,379,0.5,0.5,0.5,2,4,1,2,598,1,1,598,1,0,1.4,NaN,-0.038908472413675,-0.038908472413675,750,0,0,incongruent,1,782.154345163565,493.587177471213
18,104,3,380,-0.5,-0.5,-0.5,1,1,1,1,574,1,1,574,1,0,1.6,1,-0.231697951900801,-0.231697951900801,750,1,0,congruent,0.1,615.358971302595,1352.04398527523
18,104,3,381,-0.5,0.5,0,3,NaN,1,3,573,1,1,573,1,0,1.6,1,-0.239730846879431,-0.239730846879431,750,0,0,neutral,0.1,2285.61577622343,1554.32916473326
18,104,3,382,-0.5,0.5,-0.5,1,1,1,1,641,1,1,641,1,0,1.4,1,0.306506011667426,0.306506011667426,750,1,0,congruent,0.1,1267.34498510293,1183.65304506348
18,104,3,383,0.5,0.5,-0.5,4,4,1,4,517,1,1,517,1,0,1.2,NaN,-0.689572965682725,-0.689572965682725,750,1,0,congruent,1,1938.09277651702,1272.04748513385
18,104,3,385,-0.5,0.5,0.5,2,1,1,2,557,1,1,557,1,0,1.2,1,-0.368257166537515,-0.368257166537515,750,0,0,incongruent,0.1,1740.94509313658,301.079045964531
18,104,3,386,0.5,-0.5,0.5,3,4,1,3,707,1,1,707,1,0,1.2,NaN,0.836677080257022,0.836677080257022,750,0,0,incongruent,1,1423.79669979879,1145.95013864097
18,104,3,387,0.5,0.5,0.5,4,3,1,4,667,1,1,667,1,0,1.4,NaN,0.515361281111812,0.515361281111812,750,0,0,incongruent,1,1607.73817747344,1967.70005628579
18,104,3,388,0.5,-0.5,0,2,NaN,1,2,574,1,1,574,1,0,1.6,NaN,-0.231697951900801,-0.231697951900801,750,0,0,neutral,1,386.620539475376,227.017421644412
18,104,3,389,-0.5,0.5,0.5,3,2,1,3,482,1,1,482,1,0,1.6,1,-0.970724289934784,-0.970724289934784,750,0,0,incongruent,0.1,1913.58208857089,1814.21334423044
18,104,3,390,-0.5,0.5,0.5,4,3,1,4,526,1,1,526,1,0,1.6,1,-0.617276910875053,-0.617276910875053,750,0,0,incongruent,0.1,3873.81872413163,811.150275326854
18,104,3,391,-0.5,-0.5,0,3,NaN,1,3,424,1,1,424,1,0,1.6,1,-1.43663219869534,-1.43663219869534,750,0,0,neutral,0.1,2250.24134949326,306.895717508944
18,104,3,392,0.5,-0.5,-0.5,1,1,1,1,476,1,1,476,1,0,1.4,NaN,-1.01892165980657,-1.01892165980657,750,1,0,congruent,1,439.327621797545,1727.95744807167
18,104,3,393,-0.5,0.5,0.5,2,3,1,3,455,0,1,NaN,0,0,1.4,1,-1.1876124543578,NaN,750,1,0,incongruent,0,5708.60363966045,704.729890726306
18,104,3,394,0.5,0.5,-0.5,4,4,0.8,4,417,1,1,417,1,0,1,NaN,-1.49286246354575,-1.49286246354575,750,1,0,congruent,1,1055.56429723738,480.382352363157
18,104,3,395,-0.5,-0.5,0.5,3,2,0.8,3,925,1,0,925,1,0,1.2,1,2.58784818559842,2.58784818559842,750,0,0,incongruent,0.1,688.412994097261,1359.41101375199
18,104,3,396,-0.5,0.5,0.5,2,3,0.8,3,532,0,1,NaN,0,0,1.2,0.8,-0.569079541003272,NaN,750,1,0,incongruent,0,1056.82684268463,1265.7569703149
18,104,3,397,0.5,0.5,-0.5,4,4,0.6,4,415,1,1,415,1,0,1,NaN,-1.50892825350301,-1.50892825350301,750,1,0,congruent,1,2748.11319154335,1640.06567092571
18,104,3,398,0.5,0.5,-0.5,3,3,0.6,3,519,1,1,519,1,0,1,NaN,-0.673507175725465,-0.673507175725465,750,1,0,congruent,1,2369.05937283093,954.727402094359
18,104,3,399,-0.5,-0.5,-0.5,2,2,0.6,3,471,0,1,NaN,0,0,1.4,1,-1.05908613469972,NaN,750,0,1,congruent,0,7584.9951418886,1334.03801710331
18,104,3,400,0.5,0.5,0.5,1,4,0.6,1,329,1,1,329,1,0,1,NaN,-2.19975722166521,-2.19975722166521,750,0,0,incongruent,1,1838.41550907812,415.514037623464
18,104,3,401,-0.5,0.5,0.5,3,1,0.8,2,524,0,1,NaN,0,0,1.2,0.6,-0.633342700832314,NaN,750,0,1,incongruent,0,1643.27185444459,907.745050965579
18,104,3,402,0.5,0.5,-0.5,4,4,0.6,4,315,1,1,315,1,0,1.2,NaN,-2.31221775136604,-2.31221775136604,750,1,0,congruent,1,451.046831480931,1635.63977588462
18,104,3,403,-0.5,-0.5,-0.5,3,3,0.8,3,351,1,1,351,1,0,1.2,0.8,-2.02303353213535,-2.02303353213535,750,1,0,congruent,0.1,603.243222183292,1448.42479462252
18,104,3,404,0.5,-0.5,0,4,NaN,0.8,3,583,0,1,NaN,0,0,1,NaN,-0.159401897093129,NaN,750,0,1,neutral,0,5490.19252863241,4422.12633226211
18,104,3,405,-0.5,0.5,-0.5,2,2,0.8,2,575,1,1,575,1,0,1,0.4,-0.223665056922171,-0.223665056922171,750,1,0,congruent,0.1,1059.36195448827,746.165449063347
18,104,3,406,0.5,0.5,0.5,4,3,0.8,4,629,1,1,629,1,0,0.8,NaN,0.210111271923863,0.210111271923863,750,0,0,incongruent,1,1848.51125485435,555.256578046616
18,104,3,407,0.5,-0.5,0.5,1,2,0.8,1,416,1,1,416,0,0,1.2,NaN,-1.50089535852438,-1.50089535852438,750,0,0,incongruent,0,1475.89990839624,2371.55490531651
18,104,3,408,-0.5,-0.5,0.5,2,4,0.8,2,704,1,1,704,1,0,0.8,0.8,0.812578395321132,0.812578395321132,750,0,0,incongruent,0.1,3445.03218000847,1426.14993536441
18,104,3,409,-0.5,-0.5,0,3,NaN,0.8,3,581,1,1,581,1,0,0.8,0.8,-0.175467687050389,-0.175467687050389,750,0,0,neutral,0.1,1168.97111118503,519.284478892651
18,104,3,410,0.5,-0.5,0.5,1,3,0.8,1,619,1,1,619,1,0,1,NaN,0.12978232213756,0.12978232213756,750,0,0,incongruent,1,1408.77959467952,1179.99550654153
18,104,3,411,-0.5,0.5,-0.5,2,2,0.8,2,643,1,1,643,1,0,1.2,0.4,0.322571801624686,0.322571801624686,750,1,0,congruent,0.1,3578.87308422453,664.249063425958
18,104,3,412,0.5,-0.5,-0.5,4,4,0.8,4,608,1,1,608,1,0,1,NaN,0.0414204773726275,0.0414204773726275,750,1,0,congruent,1,1744.42136927027,1622.91117780773
18,104,3,413,0.5,0.5,0.5,2,1,0.8,1,617,0,1,NaN,0,0,1.4,NaN,0.1137165321803,NaN,750,1,0,incongruent,0,5260.76737351257,774.276932698873
18,104,3,414,-0.5,0.5,0,4,NaN,0.8,3,474,0,1,NaN,0,0,1.2,0.4,-1.03498744976383,NaN,750,0,1,neutral,0,592.409702728696,1161.91767466776
18,104,3,415,0.5,0.5,-0.5,2,2,0.6,2,823,1,0,823,0,0,1,NaN,1.76849289777813,1.76849289777813,750,1,0,congruent,0,838.119126367575,803.364941516182
18,104,3,416,-0.5,-0.5,-0.5,1,1,0.4,1,507,1,1,507,1,0,0.6,0.8,-0.769901915469028,-0.769901915469028,750,1,0,congruent,0.1,1949.1925524446,1148.60544482851
18,104,3,417,-0.5,-0.5,-0.5,2,2,0.4,3,559,0,1,NaN,1,0,0.6,0.8,-0.352191376580255,NaN,750,0,1,congruent,0.1,2704.88174525072,484.008321118277
18,104,3,418,0.5,-0.5,0.5,1,4,0.4,1,525,1,1,525,0,0,0.4,NaN,-0.625309805853683,-0.625309805853683,750,0,0,incongruent,0,3086.07542044133,430.890546684972
18,104,3,419,-0.5,0.5,0.5,3,1,0.4,3,553,1,1,553,1,0,0.4,0.4,-0.400388746452036,-0.400388746452036,750,0,0,incongruent,0.1,4016.5819056709,2024.11963285638
18,104,3,420,-0.5,-0.5,-0.5,2,2,0.4,2,466,1,1,466,1,0,0.6,1,-1.09925060959287,-1.09925060959287,750,1,0,congruent,0.1,6614.22572023213,462.558109426423
18,104,3,421,-0.5,-0.5,0,1,NaN,0.4,1,512,1,1,512,1,0,0.8,1,-0.729737440575877,-0.729737440575877,750,0,0,neutral,0.1,987.805315878681,962.898939111409
18,104,3,422,-0.5,0.5,-0.5,2,2,0.4,2,488,1,1,488,1,0,0.8,0.6,-0.922526920063003,-0.922526920063003,750,1,0,congruent,0.1,1839.2630305231,274.02359024682
18,104,3,423,0.5,0.5,-0.5,1,1,0.4,1,536,1,1,536,1,0,0.8,NaN,-0.536947961088751,-0.536947961088751,750,1,0,congruent,1,2112.79871766316,1067.84564419281
18,104,3,424,-0.5,0.5,-0.5,4,4,0.6,4,796,1,0,796,0,0,1.2,0.8,1.55160473335511,1.55160473335511,750,1,0,congruent,0,453.883579615955,705.528240893501
18,104,3,425,-0.5,-0.5,0.5,2,3,0.6,2,732,1,1,732,0,0,1,1,1.03749945472278,1.03749945472278,750,0,0,incongruent,0,1514.85933503204,3716.29257519138
18,104,3,426,0.5,-0.5,-0.5,1,1,0.6,1,396,1,1,396,1,0,0.8,NaN,-1.66155325809699,-1.66155325809699,750,1,0,congruent,1,661.628203785144,445.230033539989
18,104,3,427,-0.5,0.5,0.5,4,2,0.6,4,710,1,1,710,1,0,1,0.6,0.860775765192913,0.860775765192913,750,0,0,incongruent,0.1,1540.29931637827,1617.86006203238
18,104,3,428,-0.5,-0.5,0,3,NaN,0.8,3,529,1,1,529,1,0,1,0.8,-0.593178225939162,-0.593178225939162,750,0,0,neutral,0.1,1389.34516981213,1666.59196399432
18,104,3,429,0.5,-0.5,-0.5,1,1,0.8,1,506,1,1,506,0,0,0.8,NaN,-0.777934810447658,-0.777934810447658,750,1,0,congruent,0,2190.04944958169,892.614169009671
18,104,3,430,0.5,0.5,0.5,3,2,0.8,3,656,1,1,656,1,0,0.8,NaN,0.42699943634688,0.42699943634688,750,0,0,incongruent,1,1055.91783855527,887.516453487336
18,104,3,431,0.5,0.5,0,1,NaN,0.8,4,414,0,1,NaN,0,0,1.2,NaN,-1.51696114848164,NaN,750,0,1,neutral,0,2689.40756773696,549.479404338808
18,104,3,432,0.5,-0.5,-0.5,3,3,0.6,3,663,1,1,663,0,0,0.8,NaN,0.483229701197291,0.483229701197291,750,1,0,congruent,0,1255.29681561694,920.058814567495
18,104,3,433,-0.5,0.5,0.5,1,2,0.6,1,513,1,1,513,1,0,0.6,0.6,-0.721704545597246,-0.721704545597246,750,0,0,incongruent,0.1,1260.29567035458,1181.07784935516
18,104,3,434,-0.5,-0.5,0.5,2,1,0.6,2,766,1,0,766,1,0,0.6,0.8,1.31061788399621,1.31061788399621,750,0,0,incongruent,0.1,2119.77261320602,1296.59289649415
18,104,3,435,0.5,0.5,-0.5,4,4,0.6,4,593,1,1,593,1,0,0.8,NaN,-0.0790729473068263,-0.0790729473068263,750,1,0,congruent,1,1912.2070699415,725.41324367655
18,104,3,436,0.5,0.5,0,1,NaN,0.8,1,491,1,1,491,1,0,0.8,NaN,-0.898428235127112,-0.898428235127112,750,0,0,neutral,1,375.19090970555,909.955730574403
18,104,3,437,0.5,0.5,-0.5,4,4,0.8,4,522,1,1,522,1,0,1.2,NaN,-0.649408490789574,-0.649408490789574,750,1,0,congruent,1,1171.98073691911,276.053509810578
18,104,3,438,0.5,-0.5,0.5,3,2,0.8,3,563,1,1,563,1,0,1.6,NaN,-0.320059796665734,-0.320059796665734,750,0,0,incongruent,1,1406.92639113769,747.823929303566
18,104,3,439,-0.5,0.5,-0.5,4,4,0.8,4,559,1,1,559,1,0,1.8,0.8,-0.352191376580255,-0.352191376580255,750,1,0,congruent,0.1,1111.09345788614,701.746834347521
18,104,3,440,-0.5,-0.5,0.5,1,2,1,1,955,1,0,955,1,0,1.8,0.8,2.82883503495732,2.82883503495732,750,0,0,incongruent,0.1,964.952208194471,2539.22044807345
18,104,3,441,0.5,0.5,0,2,NaN,1,2,512,1,1,512,1,0,1.6,NaN,-0.729737440575877,-0.729737440575877,750,0,0,neutral,1,1860.78194231953,1207.50339584158
18,104,3,442,0.5,0.5,-0.5,3,3,1,3,485,1,1,485,1,0,1.6,NaN,-0.946625604998893,-0.946625604998893,750,1,0,congruent,1,411.559127432712,502.605780481941
18,104,3,443,-0.5,-0.5,-0.5,4,4,1,4,381,1,1,381,1,0,1.6,0.8,-1.78204668277644,-1.78204668277644,750,1,0,congruent,0.1,302.541227064225,605.272883072144
18,104,3,444,0.5,0.5,-0.5,1,1,1,1,529,1,1,529,1,0,1.4,NaN,-0.593178225939162,-0.593178225939162,750,1,0,congruent,1,2018.86357959625,1458.39226583222
18,104,3,445,0.5,0.5,0.5,4,3,1,4,536,1,1,536,1,0,1.6,NaN,-0.536947961088751,-0.536947961088751,750,0,0,incongruent,1,378.0805545814,328.305668412005
18,104,3,446,0.5,-0.5,0,3,NaN,1,3,517,1,1,517,1,0,1.8,NaN,-0.689572965682725,-0.689572965682725,750,0,0,neutral,1,893.406706944109,416.459541918248
18,104,3,447,0.5,-0.5,0.5,2,1,1,1,651,0,1,NaN,1,0,1.8,NaN,0.386834961453728,NaN,750,1,0,incongruent,1,2172.86264901023,287.296644651491
18,104,3,448,-0.5,-0.5,-0.5,4,4,1,3,844,0,0,NaN,1,0,1.8,0.8,1.93718369232937,NaN,750,0,1,congruent,0.1,4753.10971519277,993.069604580437
18,104,3,449,0.5,0.5,-0.5,2,2,1,2,563,1,1,563,1,0,1.8,NaN,-0.320059796665734,-0.320059796665734,750,1,0,congruent,1,1479.68902000883,1414.56216802169
18,104,3,450,-0.5,-0.5,-0.5,1,1,1,1,481,1,1,481,1,0,1.8,1,-0.978757184913414,-0.978757184913414,750,1,0,congruent,0.1,2864.13436553277,620.006085768071
18,104,4,451,0.5,0.5,0,3,NaN,1,2,451,0,1,NaN,0,0,1.6,NaN,-1.21974403427232,NaN,750,0,1,neutral,0,1591.77024147321,682.048206634682
18,104,4,452,-0.5,0.5,-0.5,4,4,0.8,4,471,1,1,471,1,0,1.2,0.8,-1.05908613469972,-1.05908613469972,750,1,0,congruent,0.1,705.2622674419,827.081838406949
18,104,4,453,-0.5,0.5,-0.5,2,2,0.8,2,491,1,1,491,1,0,1,0.8,-0.898428235127112,-0.898428235127112,750,1,0,congruent,0.1,2940.63487975798,1626.2586874421
18,104,4,454,0.5,-0.5,0,4,NaN,0.8,4,601,1,1,601,1,0,1,NaN,-0.0148097874777843,-0.0148097874777843,750,0,0,neutral,1,1382.62215645772,924.962355437519
18,104,4,455,0.5,0.5,-0.5,2,2,0.8,2,597,1,1,597,1,0,1,NaN,-0.0469413673923053,-0.0469413673923053,750,1,0,congruent,1,3468.23278377669,527.005040099081
18,104,4,457,0.5,-0.5,-0.5,1,1,0.6,1,477,1,1,477,1,0,1.2,NaN,-1.01088876482794,-1.01088876482794,750,1,0,congruent,1,2207.6095677268,723.179596677216
18,104,4,458,0.5,-0.5,0.5,4,2,0.6,4,496,1,1,496,0,0,1.4,NaN,-0.858263760233961,-0.858263760233961,750,0,0,incongruent,0,525.250690024365,859.286098041604
18,104,4,459,-0.5,-0.5,0.5,2,3,0.6,2,620,1,1,620,1,0,1.2,1,0.13781521711619,0.13781521711619,750,0,0,incongruent,0.1,6943.08343862082,1476.66387483801
18,104,4,460,-0.5,0.5,0.5,3,2,0.6,3,603,1,1,603,1,0,1,1,0.00125600247947622,0.00125600247947622,750,0,0,incongruent,0.1,363.684873170218,2569.58319163482
18,104,4,461,0.5,-0.5,-0.5,4,4,0.8,4,821,1,0,821,1,0,0.8,NaN,1.75242710782087,1.75242710782087,750,1,0,congruent,1,549.842907413629,1025.45117826757
18,104,4,462,-0.5,0.5,0.5,1,3,0.8,1,556,1,1,556,1,0,1.2,1,-0.376290061516146,-0.376290061516146,750,0,0,incongruent,0.1,877.808961398941,667.681503798393
18,104,4,463,-0.5,-0.5,0.5,3,2,0.8,2,667,0,1,NaN,1,0,1,1,0.515361281111812,NaN,750,1,0,incongruent,0.1,2249.27833176952,1727.40139870108
18,104,4,464,0.5,0.5,0,2,NaN,0.8,2,636,1,1,636,1,0,1.2,NaN,0.266341536774275,0.266341536774275,750,0,0,neutral,1,847.883801330518,891.303781750664
18,104,4,465,0.5,0.5,-0.5,3,3,0.8,3,610,1,1,610,1,0,1.4,NaN,0.057486267329888,0.057486267329888,750,1,0,congruent,1,1380.65109398673,807.7172011779
18,104,4,466,-0.5,-0.5,0.5,2,1,0.8,1,687,0,1,NaN,1,0,1.6,1,0.676019180684417,NaN,750,1,0,incongruent,0.1,2422.88403244965,1925.88640311707
18,104,4,467,-0.5,-0.5,0,4,NaN,0.8,4,649,1,1,649,1,0,1.4,1,0.370769171496468,0.370769171496468,750,0,0,neutral,0.1,3498.59346428912,2193.51394749104
18,104,4,468,0.5,-0.5,-0.5,1,1,0.8,1,424,1,1,424,1,0,1.4,NaN,-1.43663219869534,-1.43663219869534,750,1,0,congruent,1,804.265742442145,1245.37460597257
18,104,4,469,-0.5,0.5,0,2,NaN,0.8,2,949,1,0,949,0,0,1.6,1,2.78063766508554,2.78063766508554,750,0,0,neutral,0,1482.72054076903,925.109356936232
18,104,4,470,0.5,0.5,0.5,3,2,0.8,3,622,1,1,622,1,0,1.2,NaN,0.153881007073451,0.153881007073451,750,0,0,incongruent,1,1036.90050361383,668.567248455406
18,104,4,471,0.5,0.5,-0.5,1,1,0.8,1,533,1,1,533,1,0,1.2,NaN,-0.561046646024641,-0.561046646024641,750,1,0,congruent,1,1221.50163811261,1705.34463038246
18,104,4,472,-0.5,0.5,0.5,4,2,0.8,4,631,1,1,631,1,0,1.4,0.8,0.226177061881123,0.226177061881123,750,0,0,incongruent,0.1,759.657834275213,2363.03781549003
18,104,4,473,-0.5,0.5,0.5,2,4,0.8,1,663,0,1,NaN,0,0,1.4,0.8,0.483229701197291,NaN,750,0,1,incongruent,0,5718.54727725866,1161.14490721325
18,104,4,474,0.5,-0.5,0,3,NaN,0.6,3,586,1,1,586,0,0,1,NaN,-0.135303212157238,-0.135303212157238,750,0,0,neutral,0,873.562561296987,526.062764906274
18,104,4,476,-0.5,-0.5,-0.5,3,3,0.6,3,545,1,1,545,1,0,0.6,0.8,-0.464651906281078,-0.464651906281078,750,1,0,congruent,0.1,1113.25209461026,568.959381057267
18,104,4,477,-0.5,-0.5,-0.5,1,1,0.6,1,470,1,1,470,1,0,0.4,0.8,-1.06711902967835,-1.06711902967835,750,1,0,congruent,0.1,1125.42235221117,852.670541303696
18,104,4,478,-0.5,-0.5,-0.5,3,3,0.6,3,469,1,1,469,0,0,0.4,0.8,-1.07515192465698,-1.07515192465698,750,1,0,congruent,0,671.814353182489,590.66134239004
18,104,4,479,0.5,0.5,0.5,1,2,0.6,1,547,1,1,547,1,0,0.4,NaN,-0.448586116323818,-0.448586116323818,750,0,0,incongruent,1,4959.60660988367,575.08830561605
18,104,4,480,0.5,-0.5,0.5,3,1,0.8,3,668,1,1,668,1,0,0.8,NaN,0.523394176090443,0.523394176090443,750,0,0,incongruent,1,2151.69437078537,775.351285154907
18,104,4,481,-0.5,0.5,-0.5,4,4,0.8,4,499,1,1,499,1,0,1.2,0.6,-0.83416507529807,-0.83416507529807,750,1,0,congruent,0.1,2092.10168904091,754.89906625612
18,104,4,482,-0.5,-0.5,0,3,NaN,0.8,3,547,1,1,547,1,0,1.2,0.6,-0.448586116323818,-0.448586116323818,750,0,0,neutral,0.1,1428.22154379506,419.077617855156
18,104,4,483,0.5,0.5,0.5,4,3,0.8,4,509,1,1,509,1,0,1.2,NaN,-0.753836125511767,-0.753836125511767,750,0,0,incongruent,1,1741.29835543774,150.612129668447
18,104,4,484,-0.5,0.5,0.5,1,4,0.8,1,599,1,1,599,1,0,1.6,0.6,-0.0308755774350448,-0.0308755774350448,750,0,0,incongruent,0.1,903.875013477622,899.070792183065
18,104,4,485,0.5,-0.5,0,4,NaN,0.8,4,449,1,1,449,0,0,1.4,NaN,-1.23580982422958,-1.23580982422958,750,0,0,neutral,0,960.731448491151,1395.99150847253
18,104,4,486,0.5,-0.5,-0.5,1,1,0.8,1,563,1,1,563,0,0,1,NaN,-0.320059796665734,-0.320059796665734,750,1,0,congruent,0,2908.74390681018,477.499436162983
18,104,4,487,0.5,-0.5,0.5,3,4,0.8,3,660,1,1,660,0,0,0.8,NaN,0.459131016261401,0.459131016261401,750,0,0,incongruent,0,2276.79031525049,1466.85766391181
18,104,4,488,0.5,-0.5,0,1,NaN,0.8,1,629,1,1,629,1,0,0.6,NaN,0.210111271923863,0.210111271923863,750,0,0,neutral,1,1574.47487596113,691.911600691162
18,104,4,489,0.5,-0.5,0.5,4,3,0.8,4,575,1,1,575,1,0,0.6,NaN,-0.223665056922171,-0.223665056922171,750,0,0,incongruent,1,2847.68628465577,1146.09360456521
18,104,4,490,0.5,0.5,-0.5,2,2,0.8,2,784,1,0,784,0,0,0.8,NaN,1.45520999361155,1.45520999361155,750,1,0,congruent,0,1960.79170471886,893.907597540118
18,104,4,491,-0.5,0.5,-0.5,4,4,0.8,4,514,1,1,514,1,0,0.8,0.6,-0.713671650618616,-0.713671650618616,750,1,0,congruent,0.1,2741.91491546587,394.711865580369
18,104,4,492,-0.5,-0.5,0.5,2,3,0.8,2,657,1,1,657,1,0,1,0.6,0.43503233132551,0.43503233132551,750,0,0,incongruent,0.1,3066.03174900006,814.365321491657
18,104,4,493,0.5,-0.5,0,1,NaN,0.8,1,520,1,1,520,1,0,1.2,NaN,-0.665474280746835,-0.665474280746835,750,0,0,neutral,1,435.949345329094,2058.41257382332
18,104,4,494,0.5,0.5,-0.5,4,4,0.8,4,512,1,1,512,1,0,1.2,NaN,-0.729737440575877,-0.729737440575877,750,1,0,congruent,1,1406.01401074064,779.071428591163
18,104,4,495,0.5,-0.5,0.5,2,1,0.8,2,529,1,1,529,1,0,1.2,NaN,-0.593178225939162,-0.593178225939162,750,0,0,incongruent,1,1438.36850698125,1071.94864719026
18,104,4,496,0.5,-0.5,0,3,NaN,0.8,3,528,1,1,528,0,0,1.6,NaN,-0.601211120917793,-0.601211120917793,750,0,0,neutral,0,1047.95536951951,347.681902826714
18,104,4,497,0.5,0.5,0.5,4,2,0.8,4,568,1,1,568,1,0,1.4,NaN,-0.279895321772583,-0.279895321772583,750,0,0,incongruent,1,1282.62911365549,543.145913670247
18,104,4,498,-0.5,-0.5,0.5,1,3,0.8,1,615,1,1,615,1,0,1.6,0.8,0.0976507422230392,0.0976507422230392,750,0,0,incongruent,0.1,1551.55121237945,2353.55789223364
18,104,4,499,0.5,-0.5,0,2,NaN,0.8,2,586,1,1,586,1,0,1.4,NaN,-0.135303212157238,-0.135303212157238,750,0,0,neutral,1,856.196058469644,137.98272889334
18,104,4,500,0.5,0.5,0.5,3,2,0.8,3,541,1,1,541,1,0,1.4,NaN,-0.496783486195599,-0.496783486195599,750,0,0,incongruent,1,970.167794909001,669.798027406757
18,104,4,501,0.5,0.5,0.5,2,4,0.8,4,783,0,0,NaN,0,0,1.4,NaN,1.44717709863292,NaN,750,1,0,incongruent,0,4481.91502960305,1704.27214390713
18,104,4,502,0.5,0.5,0.5,1,2,0.8,1,649,1,1,649,1,0,1.4,NaN,0.370769171496468,0.370769171496468,750,0,0,incongruent,1,449.091198890067,1032.88545743761
18,104,4,503,0.5,-0.5,-0.5,3,3,0.8,3,538,1,1,538,1,0,1.4,NaN,-0.52088217113149,-0.52088217113149,750,1,0,congruent,1,1414.9367574867,276.292063463188
18,104,4,504,0.5,0.5,0,1,NaN,0.8,1,545,1,1,545,1,0,1.6,NaN,-0.464651906281078,-0.464651906281078,750,0,0,neutral,1,1727.05969307539,1071.55046519354
18,104,4,505,0.5,0.5,-0.5,4,4,0.8,4,589,1,1,589,1,0,1.6,NaN,-0.111204527221347,-0.111204527221347,750,1,0,congruent,1,3741.1278775771,1558.78779035826
18,104,4,506,-0.5,-0.5,-0.5,3,3,0.8,3,754,1,0,754,0,0,1.6,0.8,1.21422314425264,1.21422314425264,750,1,0,congruent,0,548.91850073819,979.636353369537
18,104,4,507,0.5,-0.5,-0.5,1,1,0.8,1,614,1,1,614,1,0,1.6,NaN,0.089617847244409,0.089617847244409,750,1,0,congruent,1,1275.58366831322,1854.70271708359
18,104,4,508,0.5,0.5,0,4,NaN,0.8,3,646,0,1,NaN,0,0,1.6,NaN,0.346670486560577,NaN,750,0,1,neutral,0,1518.42753171954,411.205894947317
18,104,4,509,0.5,0.5,0.5,2,3,0.6,1,669,0,1,NaN,0,0,1.2,NaN,0.531427071069073,NaN,750,0,1,incongruent,0,626.636347058942,1944.3300831905
18,104,4,510,0.5,0.5,-0.5,1,1,0.6,1,622,1,1,622,1,0,0.8,NaN,0.153881007073451,0.153881007073451,750,1,0,congruent,1,891.428213571302,2468.90202322716
18,104,4,511,0.5,-0.5,0,4,NaN,0.6,4,626,1,1,626,0,0,0.8,NaN,0.186012586987972,0.186012586987972,750,0,0,neutral,0,977.816659212406,569.047135897057
18,104,4,512,-0.5,-0.5,-0.5,2,2,0.6,2,499,1,1,499,0,0,0.8,0.6,-0.83416507529807,-0.83416507529807,750,1,0,congruent,0,3055.05791895767,598.139730309493
18,104,4,513,0.5,-0.5,-0.5,3,3,0.6,3,541,1,1,541,1,0,0.4,NaN,-0.496783486195599,-0.496783486195599,750,1,0,congruent,1,518.145163490864,957.973383440411
18,104,4,514,0.5,0.5,0.5,2,1,0.6,1,614,0,1,NaN,0,0,0.8,NaN,0.089617847244409,NaN,750,1,0,incongruent,0,1762.5210239623,569.63328904854
18,104,4,515,-0.5,-0.5,0,3,NaN,0.4,3,546,1,1,546,1,0,0.8,0.6,-0.456619011302448,-0.456619011302448,750,0,0,neutral,0.1,443.775157937215,1533.10933730006
18,104,4,516,-0.5,-0.5,-0.5,4,4,0.4,4,440,1,1,440,0,0,0.6,0.6,-1.30810587903725,-1.30810587903725,750,1,0,congruent,0,2157.30091781807,1279.87093483896
18,104,4,517,-0.5,0.5,0,1,NaN,0.4,1,526,1,1,526,1,0,0.6,0.8,-0.617276910875053,-0.617276910875053,750,0,0,neutral,0.1,1298.92101063272,910.733762485663
18,104,4,518,-0.5,-0.5,-0.5,4,4,0.4,4,455,1,1,455,0,0,0.8,0.4,-1.1876124543578,-1.1876124543578,750,1,0,congruent,0,318.800618485275,1137.37660885294
18,104,4,519,-0.5,0.5,0.5,3,2,0.4,3,670,1,1,670,1,0,0.4,0.8,0.539459966047703,0.539459966047703,750,0,0,incongruent,0.1,2121.72575617641,740.989605520442
18,104,4,520,-0.5,-0.5,0.5,1,3,0.6,1,563,1,1,563,0,0,0.6,0.2,-0.320059796665734,-0.320059796665734,750,0,0,incongruent,0,3292.78591550984,676.865641886444
18,104,4,521,-0.5,0.5,-0.5,4,4,0.6,4,621,1,1,621,1,0,0.4,1,0.145848112094821,0.145848112094821,750,1,0,congruent,0.1,3080.01242073189,1309.04725366689
18,104,4,522,-0.5,0.5,0,2,NaN,0.8,3,485,0,1,NaN,0,0,0.6,1,-0.946625604998893,NaN,750,0,1,neutral,0,1612.92489873751,1457.18428808382
18,104,4,523,0.5,-0.5,-0.5,3,3,0.6,3,822,1,0,822,1,0,0.4,NaN,1.7604600027995,1.7604600027995,750,1,0,congruent,1,1002.33277641089,1603.95452474683
18,104,4,524,-0.5,0.5,-0.5,4,4,0.6,4,579,1,1,579,1,0,0.8,0.8,-0.19153347700765,-0.19153347700765,750,1,0,congruent,0.1,1334.18944080906,3401.61069545062
18,104,4,525,0.5,0.5,-0.5,3,3,0.8,3,573,1,1,573,1,0,0.8,NaN,-0.239730846879431,-0.239730846879431,750,1,0,congruent,1,2520.68843099132,643.258228624916
18,104,4,526,-0.5,-0.5,0.5,1,4,0.8,1,523,1,1,523,0,0,1.2,0.2,-0.641375595810944,-0.641375595810944,750,0,0,incongruent,0,958.540304752687,442.445582428829
18,104,4,527,-0.5,-0.5,0.5,2,3,0.8,2,748,1,1,748,1,0,1,0.2,1.16602577438086,1.16602577438086,750,0,0,incongruent,0.1,2952.16791419308,880.941966785728
18,104,4,528,0.5,-0.5,0,3,NaN,0.8,3,441,1,1,441,1,0,1.2,NaN,-1.30007298405862,-1.30007298405862,750,0,0,neutral,1,4522.49236992998,102.065825099365
18,104,4,529,0.5,0.5,0.5,4,3,0.8,4,572,1,1,572,1,0,1.2,NaN,-0.247763741858062,-0.247763741858062,750,0,0,incongruent,1,4844.7766056685,606.06556787263
18,104,4,530,-0.5,-0.5,0.5,3,4,0.8,3,595,1,1,595,1,0,1.4,0.2,-0.0630071573495658,-0.0630071573495658,750,0,0,incongruent,0.1,843.014683766646,409.969557442485
18,104,4,531,-0.5,0.5,0,2,NaN,0.8,1,584,0,1,NaN,0,0,1.2,0.8,-0.151369002114499,NaN,750,0,1,neutral,0,4843.0619798806,2691.69183744501
18,104,4,532,0.5,-0.5,-0.5,3,3,0.6,3,551,1,1,551,0,0,1.2,NaN,-0.416454536409297,-0.416454536409297,750,1,0,congruent,0,2322.83248214676,327.323869928946
18,104,4,533,0.5,-0.5,0,1,NaN,0.6,1,528,1,1,528,1,0,1,NaN,-0.601211120917793,-0.601211120917793,750,0,0,neutral,1,4368.85567134795,588.842225190577
18,104,4,534,-0.5,0.5,-0.5,4,4,0.6,4,638,1,1,638,1,0,1,0.6,0.282407326731535,0.282407326731535,750,1,0,congruent,0.1,2509.19579993612,4021.24913807515
18,104,4,535,-0.5,0.5,0,1,NaN,0.8,1,650,1,1,650,1,0,0.8,0.6,0.378802066475098,0.378802066475098,750,0,0,neutral,0.1,2163.41996374637,1300.87391963132
18,104,4,536,-0.5,0.5,-0.5,2,2,0.8,2,701,1,1,701,1,0,0.8,0.6,0.788479710385241,0.788479710385241,750,1,0,congruent,0.1,1478.25072721425,1743.55866750675
18,104,4,537,0.5,-0.5,0.5,1,4,0.8,3,513,0,1,NaN,1,0,1,NaN,-0.721704545597246,NaN,750,0,1,incongruent,1,1650.2287566011,668.383940181999
18,104,4,538,0.5,0.5,0.5,2,3,0.8,2,699,1,1,699,1,0,1.4,NaN,0.77241392042798,0.77241392042798,750,0,0,incongruent,1,716.303904061269,940.293498581458
18,104,4,539,-0.5,-0.5,-0.5,4,4,0.8,4,762,1,0,762,1,0,1.4,0.4,1.27848630408169,1.27848630408169,750,1,0,congruent,0.1,4325.38990660436,2477.80818081396
18,104,4,540,0.5,0.5,0.5,2,3,0.8,2,618,1,1,618,1,0,1.4,NaN,0.12174942715893,0.12174942715893,750,0,0,incongruent,1,1020.796225938,920.631789875359
18,104,4,541,0.5,0.5,0,3,NaN,1,3,593,1,1,593,1,0,1.6,NaN,-0.0790729473068263,-0.0790729473068263,750,0,0,neutral,1,2713.17149615887,1492.24247208215
18,104,4,542,0.5,0.5,-0.5,4,4,1,2,721,0,1,NaN,0,0,1.8,NaN,0.949137609957846,NaN,750,0,1,congruent,0,3902.83743120621,355.83011507045
18,104,4,543,-0.5,0.5,0,2,NaN,0.8,2,510,1,1,510,1,0,1.4,0.8,-0.745803230533137,-0.745803230533137,750,0,0,neutral,0.1,3335.4501057313,1929.97370542341
18,104,4,544,-0.5,-0.5,0.5,4,2,0.8,4,600,1,1,600,1,0,1.2,0.6,-0.0228426824564145,-0.0228426824564145,750,0,0,incongruent,0.1,638.271718579423,778.024053112693
18,104,4,545,0.5,0.5,-0.5,3,3,0.8,3,719,1,1,719,1,0,1.2,NaN,0.933071820000585,0.933071820000585,750,1,0,congruent,1,2244.83519854551,1194.12172058939
18,104,4,546,-0.5,-0.5,-0.5,2,2,0.8,2,547,1,1,547,0,0,1.2,0.8,-0.448586116323818,-0.448586116323818,750,1,0,congruent,0,1377.16059526094,709.223227042367
18,104,4,547,-0.5,0.5,-0.5,4,4,0.8,4,434,1,1,434,1,0,0.8,0.8,-1.35630324890904,-1.35630324890904,750,1,0,congruent,0.1,1658.67646443763,409.947441899417
18,104,4,548,0.5,-0.5,-0.5,2,2,0.8,2,955,1,0,955,1,0,1,NaN,2.82883503495732,2.82883503495732,750,1,0,congruent,1,3329.01955117852,554.530141260337
18,104,4,549,0.5,-0.5,0.5,1,4,0.8,1,554,1,1,554,0,0,1.2,NaN,-0.392355851473406,-0.392355851473406,750,0,0,incongruent,0,2659.84281385935,844.973083267728
18,104,4,550,0.5,-0.5,0,4,NaN,0.8,4,740,1,1,740,1,0,1,NaN,1.10176261455182,1.10176261455182,750,0,0,neutral,1,574.291235820679,1928.88260046085
18,104,4,551,-0.5,0.5,-0.5,3,3,0.8,3,377,1,1,377,1,0,1,1,-1.81417826269096,-1.81417826269096,750,1,0,congruent,0.1,2129.86728550968,716.546903967549
18,104,4,552,-0.5,0.5,-0.5,4,4,0.8,4,581,1,1,581,1,0,1.2,1,-0.175467687050389,-0.175467687050389,750,1,0,congruent,0.1,2844.54579097883,449.959199157199
18,104,4,553,-0.5,0.5,0.5,2,3,1,2,525,1,1,525,1,0,1.2,1,-0.625309805853683,-0.625309805853683,750,0,0,incongruent,0.1,1416.84247660714,559.606922783852
18,104,4,554,-0.5,-0.5,-0.5,4,4,1,4,757,1,0,757,1,0,1,0.8,1.23832182918853,1.23832182918853,750,1,0,congruent,0.1,4260.92066035126,2205.2682155165
18,104,4,555,0.5,0.5,-0.5,1,1,1,1,481,1,1,481,1,0,1.2,NaN,-0.978757184913414,-0.978757184913414,750,1,0,congruent,1,467.276179919339,283.611988703489
18,104,4,556,0.5,-0.5,0.5,2,3,1,2,513,1,1,513,1,0,1.2,NaN,-0.721704545597246,-0.721704545597246,750,0,0,incongruent,1,695.513729638123,1293.49383314798
18,104,4,557,0.5,-0.5,0.5,4,1,1,1,572,0,1,NaN,1,0,1.4,NaN,-0.247763741858062,NaN,750,1,0,incongruent,1,4680.52993648119,1675.56890432091
18,104,4,558,-0.5,0.5,0.5,2,4,1,2,563,1,1,563,1,0,1.6,1,-0.320059796665734,-0.320059796665734,750,0,0,incongruent,0.1,2618.69755542096,861.848456307187
18,104,4,559,0.5,0.5,0,1,NaN,1,1,658,1,1,658,1,0,1.6,NaN,0.44306522630414,0.44306522630414,750,0,0,neutral,1,3030.47209671005,667.672447664938
18,104,4,561,0.5,0.5,-0.5,1,1,1,1,619,1,1,619,1,0,1.8,NaN,0.12978232213756,0.12978232213756,750,1,0,congruent,1,985.026976838466,770.34705257401
18,104,4,562,0.5,-0.5,-0.5,3,3,1,3,442,1,1,442,1,0,1.8,NaN,-1.29204008907999,-1.29204008907999,750,1,0,congruent,1,1756.05534819428,1639.5637237574
18,104,4,563,0.5,-0.5,0.5,1,4,1,1,584,1,1,584,1,0,1.8,NaN,-0.151369002114499,-0.151369002114499,750,0,0,incongruent,1,1183.1192945961,1928.68276348725
18,104,4,564,-0.5,-0.5,0,4,NaN,1,4,487,1,1,487,1,0,2,0.8,-0.930559815041633,-0.930559815041633,750,0,0,neutral,0.1,173.180227032117,1063.09102708885
18,104,4,565,0.5,-0.5,-0.5,3,3,1,3,643,1,1,643,1,0,1.8,NaN,0.322571801624686,0.322571801624686,750,1,0,congruent,1,2720.92791396794,911.617999037716
18,104,4,566,-0.5,0.5,0.5,4,1,1,4,906,1,0,906,0,0,1.8,1,2.43522318100444,2.43522318100444,750,0,0,incongruent,0,1316.03854904604,860.354632596261
18,104,4,567,0.5,0.5,0.5,1,4,0.8,1,589,1,1,589,1,0,1.4,NaN,-0.111204527221347,-0.111204527221347,750,0,0,incongruent,1,1042.81236191363,2383.60645303279
18,104,4,568,0.5,-0.5,0.5,4,1,0.8,1,817,0,0,NaN,1,0,1.4,NaN,1.72029552790635,NaN,750,1,0,incongruent,1,1618.36306019393,370.333909744232
18,104,4,569,0.5,-0.5,0,1,NaN,0.8,1,645,1,1,645,1,0,1.4,NaN,0.338637591581947,0.338637591581947,750,0,0,neutral,1,615.886642049903,974.457298715034
18,104,4,570,-0.5,-0.5,0.5,3,1,0.8,3,692,1,1,692,1,0,1.6,0.8,0.716183655577569,0.716183655577569,750,0,0,incongruent,0.1,1429.98404838234,1276.84708020289
18,104,4,571,0.5,-0.5,0.5,1,2,0.8,1,803,1,0,803,1,0,1.4,NaN,1.60783499820553,1.60783499820553,750,0,0,incongruent,1,1399.59363797844,1376.73017960451
18,104,4,572,0.5,-0.5,0.5,2,3,0.8,2,705,1,1,705,1,0,1.8,NaN,0.820611290299762,0.820611290299762,750,0,0,incongruent,1,1039.53827784019,3636.35490529863
18,104,4,573,-0.5,-0.5,0.5,3,2,0.8,3,850,1,0,850,1,0,1.8,0.8,1.98538106220115,1.98538106220115,750,0,0,incongruent,0.1,3179.88176833585,1272.8444595571
18,104,4,574,0.5,-0.5,0.5,2,1,0.8,1,636,0,1,NaN,1,0,1.6,NaN,0.266341536774275,NaN,750,1,0,incongruent,1,4747.06180758091,1186.08711065087
18,104,4,575,-0.5,-0.5,0,3,NaN,0.8,3,994,1,0,994,1,0,1.6,0.8,3.1421179391239,3.1421179391239,750,0,0,neutral,0.1,1310.90513840242,954.846750457645
18,104,4,576,-0.5,0.5,-0.5,4,4,0.8,4,381,1,1,381,1,0,1.6,0.8,-1.78204668277644,-1.78204668277644,750,1,0,congruent,0.1,4296.80836174195,390.307395905976
18,104,4,577,-0.5,0.5,-0.5,3,3,0.8,3,469,1,1,469,1,0,1.4,0.8,-1.07515192465698,-1.07515192465698,750,1,0,congruent,0.1,1154.45398380071,512.040727373577
18,104,4,578,0.5,-0.5,0,2,NaN,0.8,3,504,0,1,NaN,1,0,1.2,NaN,-0.794000600404919,NaN,750,0,1,neutral,1,954.632619311503,729.466631644985
18,104,4,579,0.5,0.5,-0.5,4,4,0.8,4,419,1,1,419,1,0,1.4,NaN,-1.47679667358849,-1.47679667358849,750,1,0,congruent,1,959.607494722154,950.544793555097
18,104,4,580,-0.5,-0.5,0.5,1,2,0.8,1,516,1,1,516,1,0,1.4,1,-0.697605860661356,-0.697605860661356,750,0,0,incongruent,0.1,1551.56434789464,675.682102197309
18,104,4,581,-0.5,-0.5,0.5,3,1,0.8,3,704,1,1,704,1,0,1.4,1,0.812578395321132,0.812578395321132,750,0,0,incongruent,0.1,1129.07861284057,2269.33013276035
18,104,4,582,-0.5,-0.5,0,4,NaN,0.8,4,578,1,1,578,1,0,1.4,1,-0.19956637198628,-0.19956637198628,750,0,0,neutral,0.1,1511.4538468954,1074.20560642288
18,104,4,583,0.5,0.5,-0.5,3,3,0.8,3,437,1,1,437,1,0,1.4,NaN,-1.33220456397315,-1.33220456397315,750,1,0,congruent,1,1309.75143259222,1785.62679877914
18,104,4,584,0.5,-0.5,-0.5,1,1,1,1,539,1,1,539,1,0,1.4,NaN,-0.51284927615286,-0.51284927615286,750,1,0,congruent,1,2506.96748580046,456.479048534425
18,104,4,585,-0.5,-0.5,-0.5,4,4,1,4,597,1,1,597,1,0,1.4,1,-0.0469413673923053,-0.0469413673923053,750,1,0,congruent,0.1,2127.83323101198,872.441902074456
18,104,4,586,0.5,0.5,-0.5,3,3,1,3,536,1,1,536,1,0,1.4,NaN,-0.536947961088751,-0.536947961088751,750,1,0,congruent,1,1356.29771599992,774.639562829466
18,104,4,587,-0.5,0.5,0.5,1,2,1,1,721,1,1,721,1,0,1.6,0.8,0.949137609957846,0.949137609957846,750,0,0,incongruent,0.1,4009.28701451397,575.662883854463
18,104,4,588,0.5,-0.5,0,4,NaN,1,4,657,1,1,657,1,0,1.6,NaN,0.43503233132551,0.43503233132551,750,0,0,neutral,1,1379.60770863407,1484.40845482056
18,104,4,589,-0.5,-0.5,-0.5,1,1,1,1,563,1,1,563,1,0,1.6,1,-0.320059796665734,-0.320059796665734,750,1,0,congruent,0.1,1345.10852852317,1811.92812386472
18,104,4,590,0.5,-0.5,-0.5,2,2,1,2,705,1,1,705,1,0,1.4,NaN,0.820611290299762,0.820611290299762,750,1,0,congruent,1,3331.41699272903,1302.0811834991
18,104,4,592,0.5,0.5,-0.5,4,4,0.8,4,633,1,1,633,1,0,1.2,NaN,0.242242851838384,0.242242851838384,750,1,0,congruent,1,684.6188351616,1697.57542891518
18,104,4,593,-0.5,-0.5,0.5,1,3,0.8,1,505,1,1,505,1,0,1.4,1,-0.785967705426288,-0.785967705426288,750,0,0,incongruent,0.1,502.32305396408,1093.96977052919
18,104,4,594,-0.5,-0.5,-0.5,4,4,0.8,4,533,1,1,533,1,0,1.2,1,-0.561046646024641,-0.561046646024641,750,1,0,congruent,0.1,3104.06882144688,933.184623196292
18,104,4,595,-0.5,-0.5,-0.5,2,2,0.8,2,834,1,0,834,0,0,1.2,1,1.85685474254306,1.85685474254306,750,1,0,congruent,0,747.250812219493,859.081765351424
18,104,4,596,-0.5,0.5,0,4,NaN,0.8,4,913,1,0,913,0,0,0.8,0.6,2.49145344585485,2.49145344585485,750,0,0,neutral,0,864.6199494954,2792.70776207956
18,104,4,597,0.5,0.5,-0.5,2,2,0.6,2,475,1,1,475,1,0,0.8,NaN,-1.0269545547852,-1.0269545547852,750,1,0,congruent,1,1886.54348736728,1448.26389398765
18,104,4,598,0.5,0.5,0.5,1,3,0.6,1,505,1,1,505,1,0,0.8,NaN,-0.785967705426288,-0.785967705426288,750,0,0,incongruent,1,988.568755095163,1244.92605942493
18,104,4,599,-0.5,0.5,-0.5,2,2,0.6,2,521,1,1,521,1,0,1,0.6,-0.657441385768204,-0.657441385768204,750,1,0,congruent,0.1,2583.17227727913,541.275360389091
18,104,4,600,0.5,0.5,0,1,NaN,0.8,1,639,1,1,639,1,0,1,NaN,0.290440221710165,0.290440221710165,750,0,0,neutral,1,1054.11221807286,5464.84839699879
