subid,vers,block,trial,rewlvl,efflvl,congruency,targetresp,distractorresp,rollingefflvl,resp,rt,acc,fast,accrt,isrewarded,ismiss,runavgrrgen,runavgrrcond,zrt,acczrt,rtthreshold,isdisterror,isranderror,congruence,feedback,fcz_resp_theta,fcz_resp_theta_baseline
20,104,1,2,-0.5,0.5,-0.5,4,4,0,4,650,1,1,650,1,0,0,0,-0.151679871339595,-0.151679871339595,750,1,0,congruent,0.1,3288.99589285909,4971.14554006199
20,104,1,3,0.5,-0.5,0,3,NaN,0.2,3,859,1,0,859,1,0,0.2,NaN,1.29392006874913,1.29392006874913,750,0,0,neutral,1,7498.14388331769,3819.72689603035
20,104,1,4,0.5,-0.5,-0.5,2,2,0.2,2,441,1,1,441,0,0,0.6,NaN,-1.59727981142832,-1.59727981142832,750,1,0,congruent,0,5064.29420338956,1362.03128640035
20,104,1,5,0.5,0.5,0,3,NaN,0.2,3,598,1,1,598,1,0,0.6,NaN,-0.511350669830569,-0.511350669830569,750,0,0,neutral,1,2861.66289342148,840.807582443594
20,104,1,6,-0.5,-0.5,-0.5,2,2,0.4,2,687,1,1,687,0,0,1,0,0.104239735278983,0.104239735278983,750,1,0,congruent,0,4465.83371141844,2517.25870951473
20,104,1,7,0.5,-0.5,-0.5,4,4,0.4,4,560,1,1,560,0,0,1,NaN,-0.774187022573973,-0.774187022573973,750,1,0,congruent,0,2419.79853031481,4110.39653241038
20,104,1,8,0.5,0.5,0.5,2,3,0.4,3,797,0,0,NaN,0,0,0.8,NaN,0.865081809009889,NaN,750,1,0,incongruent,0,11773.9985397039,1160.04272119455
20,104,1,9,0.5,0.5,0,4,NaN,0.4,4,796,1,0,796,0,0,0.4,NaN,0.858165062885063,0.858165062885063,750,0,0,neutral,0,5970.81743307327,3922.36500414563
20,104,1,11,0.5,0.5,0.5,4,1,0.4,2,768,0,0,NaN,0,0,0.2,NaN,0.664496171389923,NaN,750,0,1,incongruent,0,6937.76381982475,7579.52833761293
20,104,1,13,-0.5,-0.5,0.5,4,2,0.4,1,793,0,0,NaN,0,0,0.6,0.2,0.837414824510583,NaN,750,0,1,incongruent,0,12681.0928816727,5152.61160713142
20,104,1,14,0.5,-0.5,-0.5,3,3,0.4,3,628,1,1,628,0,0,0.6,NaN,-0.303848286085776,-0.303848286085776,750,1,0,congruent,0,5655.79367098764,11464.989461009
20,104,1,16,-0.5,0.5,-0.5,3,3,0.4,3,792,1,0,792,0,0,0.6,0.2,0.830498078385757,0.830498078385757,750,1,0,congruent,0,3963.03883039906,4371.97558340754
20,104,1,18,-0.5,-0.5,-0.5,4,4,0,4,749,1,1,749,0,0,0.2,0.4,0.533077995018221,0.533077995018221,750,1,0,congruent,0,2661.74491209309,2462.90171141274
20,104,1,19,-0.5,-0.5,-0.5,3,3,0,3,804,1,0,804,0,0,0.2,0.4,0.913499031883674,0.913499031883674,750,1,0,congruent,0,3767.69229152435,3459.05250054498
20,104,1,20,0.5,-0.5,0.5,1,2,0,2,712,0,1,NaN,0,0,0.2,NaN,0.277158388399643,NaN,750,1,0,incongruent,0,5578.77160034367,5174.88805352292
20,104,1,21,-0.5,0.5,0.5,4,3,0,3,724,0,1,NaN,0,0,0,0.2,0.36015934189756,NaN,750,1,0,incongruent,0,4384.66470267913,1128.72034086078
20,104,1,23,-0.5,0.5,-0.5,1,1,0,1,670,1,1,670,1,0,0,0.2,-0.0133449488430664,-0.0133449488430664,750,1,0,congruent,0.1,2175.67431127456,3340.69398633499
20,104,1,24,-0.5,0.5,0,2,NaN,0.2,1,7,0,1,NaN,0,0,0.2,0.4,-4.59914762960298,NaN,750,0,1,neutral,0,6007.15840323555,941.357527108781
20,104,1,25,-0.5,-0.5,-0.5,4,4,0.2,4,699,1,1,699,0,0,0.2,0.2,0.1872406887769,0.1872406887769,750,1,0,congruent,0,4086.08345586369,6099.41507060431
20,104,1,26,0.5,-0.5,0,2,NaN,0.2,2,708,1,1,708,0,0,0.2,NaN,0.249491403900338,0.249491403900338,750,0,0,neutral,0,6774.27598514644,4122.08897369711
20,104,1,27,0.5,0.5,-0.5,4,4,0.2,4,609,1,1,609,1,0,0.2,NaN,-0.435266462457478,-0.435266462457478,750,1,0,congruent,1,17865.3212485511,2034.3967438021
20,104,1,28,0.5,0.5,0.5,1,2,0.4,2,674,0,1,NaN,0,0,0.6,NaN,0.0143220356562393,NaN,750,1,0,incongruent,0,3484.89778376383,1377.2961582229
20,104,1,29,0.5,0.5,-0.5,4,4,0.4,4,540,1,1,540,1,0,0.4,NaN,-0.912521945070501,-0.912521945070501,750,1,0,congruent,1,1987.81480882995,1529.62535983913
20,104,1,32,-0.5,-0.5,0,1,NaN,0.4,2,662,0,1,NaN,0,0,0.8,0.2,-0.0686789178416778,NaN,750,0,1,neutral,0,12808.6585501481,4389.37483711303
20,104,1,33,-0.5,-0.5,-0.5,3,3,0.4,3,642,1,1,642,1,0,0.4,0,-0.207013840338206,-0.207013840338206,750,1,0,congruent,0.1,2470.9311645951,2062.73654262749
20,104,1,35,0.5,0.5,-0.5,3,3,0.4,3,633,1,1,633,1,0,0.4,NaN,-0.269264555461644,-0.269264555461644,750,1,0,congruent,1,2305.27898619509,2341.64615181128
20,104,1,36,0.5,0.5,-0.5,1,1,0.6,1,619,1,1,619,1,0,0.8,NaN,-0.366099001209214,-0.366099001209214,750,1,0,congruent,1,3668.3404614699,1248.33977851818
20,104,1,37,-0.5,0.5,0.5,3,4,0.6,4,674,0,1,NaN,0,0,1.2,0.4,0.0143220356562393,NaN,750,1,0,incongruent,0,6840.88924973643,2094.14035592391
20,104,1,38,-0.5,0.5,0.5,2,1,0.6,2,689,1,1,689,1,0,1.2,0.4,0.118073227528636,0.118073227528636,750,0,0,incongruent,0.1,10451.5250510617,2960.07615959444
20,104,1,39,-0.5,-0.5,0,1,NaN,0.8,1,581,1,1,581,1,0,1.2,0.2,-0.628935353952618,-0.628935353952618,750,0,0,neutral,0.1,6580.37065892401,1436.20273835938
20,104,1,40,-0.5,0.5,-0.5,3,3,0.8,3,455,1,1,455,1,0,1.2,0.6,-1.50044536568075,-1.50044536568075,750,1,0,congruent,0.1,3675.33290297349,1413.55495116831
20,104,1,41,0.5,0.5,0.5,1,4,0.8,4,769,0,0,NaN,0,0,1,NaN,0.671412917514749,NaN,750,1,0,incongruent,0,3853.03061494884,3461.4114146092
20,104,1,42,0.5,0.5,0,4,NaN,0.6,4,881,1,0,881,0,0,0.6,NaN,1.44608848349531,1.44608848349531,750,0,0,neutral,0,688.076210510379,2022.6136857805
20,104,1,43,0.5,0.5,0.5,2,3,0.4,3,609,0,1,NaN,0,0,0.6,NaN,-0.435266462457478,NaN,750,1,0,incongruent,0,4340.74234133009,4038.59740011086
20,104,1,44,-0.5,0.5,0,1,NaN,0.4,1,651,1,1,651,1,0,0.4,0.6,-0.144763125214768,-0.144763125214768,750,0,0,neutral,0.1,3732.00361276201,2617.80954448787
20,104,1,45,0.5,0.5,0.5,3,4,0.4,3,593,1,1,593,1,0,0.4,NaN,-0.545934400454701,-0.545934400454701,750,0,0,incongruent,1,5933.87912583382,2262.01392024992
20,104,1,47,0.5,-0.5,0,3,NaN,0.4,4,943,0,0,NaN,0,0,1,NaN,1.87492674323455,NaN,750,0,1,neutral,0,4521.32927768672,2141.02271745672
20,104,1,48,0.5,-0.5,-0.5,1,1,0.4,1,612,1,1,612,1,0,1,NaN,-0.414516224082999,-0.414516224082999,750,1,0,congruent,1,1443.94505393796,2475.2748167123
20,104,1,49,-0.5,0.5,-0.5,4,4,0.4,4,795,1,0,795,0,0,1.4,0.8,0.851248316760236,0.851248316760236,750,1,0,congruent,0,3147.52915307403,3452.71178899576
20,104,1,50,0.5,-0.5,-0.5,1,1,0.4,1,514,1,1,514,0,0,1.2,NaN,-1.09235734431599,-1.09235734431599,750,1,0,congruent,0,6965.88353176264,2547.7266322975
20,104,1,51,0.5,-0.5,0,2,NaN,0.4,1,504,0,1,NaN,0,0,0.8,NaN,-1.16152480556425,NaN,750,0,1,neutral,0,5576.4600703637,1649.56793732085
20,104,1,52,0.5,0.5,-0.5,3,3,0.4,3,739,1,1,739,1,0,0.4,NaN,0.463910533769957,0.463910533769957,750,1,0,congruent,1,1617.61704582884,4266.2160508933
20,104,1,53,-0.5,-0.5,0,2,NaN,0.6,2,956,1,0,956,0,0,0.8,0.4,1.96484444285729,1.96484444285729,750,0,0,neutral,0,3852.35184985173,1869.54863185017
20,104,1,55,0.5,-0.5,0,3,NaN,0.6,3,795,1,0,795,0,0,0.4,NaN,0.851248316760236,0.851248316760236,750,0,0,neutral,0,3782.33470285053,2219.6366450324
20,104,1,56,-0.5,-0.5,0.5,2,4,0.6,2,765,1,0,765,1,0,0.4,0.4,0.643745933015444,0.643745933015444,750,0,0,incongruent,0.1,17167.3761851469,3192.05810332185
20,104,1,58,0.5,0.5,-0.5,4,4,0.4,4,640,1,1,640,1,0,0.2,NaN,-0.220847332587859,-0.220847332587859,750,1,0,congruent,1,7268.04447376321,4599.78719798835
20,104,1,59,-0.5,0.5,0,2,NaN,0.4,2,648,1,1,648,1,0,0.6,0.6,-0.165513363589248,-0.165513363589248,750,0,0,neutral,0.1,3880.53076120287,4192.9726224831
20,104,1,60,-0.5,-0.5,-0.5,1,1,0.6,1,590,1,1,590,1,0,0.8,0.6,-0.56668463882918,-0.56668463882918,750,1,0,congruent,0.1,3725.01605009255,774.025588856652
20,104,1,63,-0.5,0.5,0,2,NaN,0.6,2,685,1,1,685,1,0,1.2,0.6,0.0904062430293299,0.0904062430293299,750,0,0,neutral,0.1,3607.8207874739,2105.40014627178
20,104,1,64,0.5,0.5,-0.5,4,4,0.6,4,563,1,1,563,1,0,1,NaN,-0.753436784199493,-0.753436784199493,750,1,0,congruent,1,10637.6387427466,843.799988965787
20,104,1,65,0.5,-0.5,-0.5,3,3,0.8,3,668,1,1,668,1,0,1.2,NaN,-0.0271784410927192,-0.0271784410927192,750,1,0,congruent,1,4090.16572118916,862.245931548155
20,104,1,66,0.5,0.5,-0.5,1,1,0.8,2,716,0,1,NaN,0,0,1.4,NaN,0.304825372898949,NaN,750,0,1,congruent,0,21345.5391503675,4714.57361746795
20,104,1,67,-0.5,-0.5,-0.5,2,2,0.8,2,567,1,1,567,1,0,1.4,0.8,-0.725769799700188,-0.725769799700188,750,1,0,congruent,0.1,1344.76111581021,938.935808632541
20,104,1,68,0.5,0.5,0.5,4,3,0.8,4,967,1,0,967,0,0,1.2,NaN,2.04092865023038,2.04092865023038,750,0,0,incongruent,0,1473.77516688011,2804.48932934541
20,104,1,69,-0.5,-0.5,-0.5,1,1,0.6,1,598,1,1,598,1,0,1,0.8,-0.511350669830569,-0.511350669830569,750,1,0,congruent,0.1,8125.98231285973,1938.03049957671
20,104,1,73,-0.5,0.5,0,4,NaN,0.2,4,952,1,0,952,0,0,0.4,0.4,1.93717745835798,1.93717745835798,750,0,0,neutral,0,2273.11663232054,1902.56832782176
20,104,1,75,-0.5,0.5,0.5,1,4,0,4,851,0,0,NaN,0,0,0.2,0.4,1.23858609975052,NaN,750,1,0,incongruent,0,8859.78546260194,1921.2314910488
20,104,1,77,-0.5,-0.5,0,4,NaN,0,4,788,1,0,788,0,0,0,1,0.802831093886451,0.802831093886451,750,0,0,neutral,0,6560.439465308,4086.75962154183
20,104,1,78,0.5,-0.5,0.5,1,4,0,3,874,0,0,NaN,0,0,0,NaN,1.39767126062152,NaN,750,0,1,incongruent,0,2860.79639127759,2046.9000204048
20,104,1,79,-0.5,-0.5,-0.5,2,2,0,2,799,1,0,799,0,0,0,0.8,0.878915301259542,0.878915301259542,750,1,0,congruent,0,2023.75247002694,927.86091647022
20,104,1,80,0.5,0.5,-0.5,4,4,0,4,520,1,1,520,1,0,0,NaN,-1.05085686756703,-1.05085686756703,750,1,0,congruent,1,3438.43968734525,3410.86117875124
20,104,1,81,-0.5,0.5,0,3,NaN,0.2,3,636,1,1,636,1,0,0.4,0.2,-0.248514317087165,-0.248514317087165,750,0,0,neutral,0.1,1902.4721762974,3480.64705270544
20,104,1,82,0.5,0.5,-0.5,1,1,0.4,1,544,1,1,544,1,0,0.6,NaN,-0.884854960571195,-0.884854960571195,750,1,0,congruent,1,3299.2408650483,405.871281443435
20,104,1,83,0.5,-0.5,0,3,NaN,0.6,3,752,1,0,752,0,0,1,NaN,0.5538282333927,0.5538282333927,750,0,0,neutral,0,1620.01588543323,1019.64943069367
20,104,1,85,0.5,-0.5,-0.5,1,1,0.6,1,499,1,1,499,1,0,1,NaN,-1.19610853618838,-1.19610853618838,750,1,0,congruent,1,4845.98077325497,1983.85902373019
20,104,1,86,0.5,-0.5,0,4,NaN,0.6,3,747,0,1,NaN,0,0,1,NaN,0.519244502768568,NaN,750,0,1,neutral,0,6253.54436398775,3485.12644411714
20,104,1,87,-0.5,0.5,0.5,1,3,0.6,1,551,1,1,551,1,0,0.8,0.2,-0.83643773769741,-0.83643773769741,750,0,0,incongruent,0.1,7378.64380728627,852.636194737963
20,104,1,88,-0.5,-0.5,0,4,NaN,0.8,4,712,1,1,712,1,0,0.6,0.6,0.277158388399643,0.277158388399643,750,0,0,neutral,0.1,2134.58681767371,1620.55618198561
20,104,1,89,0.5,-0.5,-0.5,1,1,0.8,1,568,1,1,568,1,0,0.8,NaN,-0.718853053575361,-0.718853053575361,750,1,0,congruent,1,3490.98135377623,2731.79942034638
20,104,1,90,0.5,-0.5,0,3,NaN,0.8,3,693,1,1,693,1,0,1.2,NaN,0.145740212027941,0.145740212027941,750,0,0,neutral,1,2535.40307014923,4771.41073753802
20,104,1,91,0.5,-0.5,0.5,1,4,0.8,4,546,0,1,NaN,1,0,1.2,NaN,-0.871021468321543,NaN,750,1,0,incongruent,1,6206.96734199288,3094.24058916317
20,104,1,92,-0.5,0.5,-0.5,2,2,0.8,2,673,1,1,673,1,0,1.6,0.4,0.00740528953141287,0.00740528953141287,750,1,0,congruent,0.1,404.33684922165,2617.38419785642
20,104,1,93,-0.5,-0.5,0.5,1,4,1,4,732,0,1,NaN,1,0,1.6,0.6,0.415493310896172,NaN,750,1,0,incongruent,0.1,10464.1419396438,1421.33592330627
20,104,1,94,0.5,-0.5,-0.5,2,2,1,2,530,1,1,530,1,0,1.6,NaN,-0.981689406318765,-0.981689406318765,750,1,0,congruent,1,3397.83494980599,1190.37058939939
20,104,1,95,-0.5,-0.5,0.5,3,4,1,2,960,0,0,NaN,1,0,1.6,0.6,1.9925114273566,NaN,750,0,1,incongruent,0.1,4711.13216162061,7236.58921929575
20,104,1,96,-0.5,-0.5,0.5,1,3,1,4,785,0,0,NaN,1,0,1.4,0.6,0.782080855511972,NaN,750,0,1,incongruent,0.1,7942.19729160372,1392.56379368172
20,104,1,97,-0.5,0.5,0.5,3,2,1,2,678,0,1,NaN,0,0,1.2,0.6,0.041989020155545,NaN,750,1,0,incongruent,0,16428.4670511447,2828.61356038242
20,104,1,98,-0.5,-0.5,-0.5,1,1,0.8,1,569,1,1,569,1,0,1,0.8,-0.711936307450535,-0.711936307450535,750,1,0,congruent,0.1,2418.39147020118,3974.42203137805
20,104,1,99,0.5,0.5,0,4,NaN,0.8,3,823,0,0,NaN,0,0,1,NaN,1.04491720825538,NaN,750,0,1,neutral,0,810.537307439932,2964.97876363372
20,104,1,100,-0.5,0.5,-0.5,3,3,0.6,3,644,1,1,644,1,0,0.6,0.6,-0.193180348088553,-0.193180348088553,750,1,0,congruent,0.1,2955.3448053621,2502.44801951408
20,104,1,102,-0.5,0.5,0.5,1,3,0.6,3,772,0,0,NaN,0,0,0.4,0.8,0.692163155889228,NaN,750,1,0,incongruent,0,2716.04835525953,3276.11685579253
20,104,1,103,0.5,-0.5,-0.5,2,2,0.4,2,709,1,1,709,0,0,0.4,NaN,0.256408150025164,0.256408150025164,750,1,0,congruent,0,7250.28759976997,4895.1195041409
20,104,1,104,0.5,-0.5,0,1,NaN,0.4,1,677,1,1,677,1,0,0.2,NaN,0.0350722740307186,0.0350722740307186,750,0,0,neutral,1,1860.11279695587,7084.87186950959
20,104,1,105,-0.5,-0.5,-0.5,3,3,0.4,3,650,1,1,650,1,0,0.6,1,-0.151679871339595,-0.151679871339595,750,1,0,congruent,0.1,3424.49266323711,2583.41276981412
20,104,1,106,-0.5,0.5,0,4,NaN,0.4,3,517,0,1,NaN,0,0,0.6,0.6,-1.07160710594151,NaN,750,0,1,neutral,0,7022.35875004564,1630.18927091129
20,104,1,108,0.5,0.5,0,4,NaN,0.2,4,866,1,0,866,0,0,0.6,NaN,1.34233729162291,1.34233729162291,750,0,0,neutral,0,2658.3981036514,1017.1990319789
20,104,1,109,0.5,0.5,-0.5,2,2,0.2,2,608,1,1,608,1,0,0.6,NaN,-0.442183208582304,-0.442183208582304,750,1,0,congruent,1,4557.18878518376,3117.93541729422
20,104,1,110,-0.5,0.5,-0.5,3,3,0.4,3,637,1,1,637,1,0,0.6,0.4,-0.241597570962338,-0.241597570962338,750,1,0,congruent,0.1,2426.43421145914,2066.91217184089
20,104,1,111,0.5,0.5,-0.5,2,2,0.4,2,527,1,1,527,1,0,0.6,NaN,-1.00243964469324,-1.00243964469324,750,1,0,congruent,1,2489.29965634603,3488.71948142149
20,104,1,112,-0.5,-0.5,-0.5,1,1,0.6,1,616,1,1,616,1,0,1,0.8,-0.386849239583693,-0.386849239583693,750,1,0,congruent,0.1,12311.8235972301,2368.06994000705
20,104,1,113,-0.5,0.5,0,3,NaN,0.6,3,596,1,1,596,1,0,1.2,0.4,-0.525184162080222,-0.525184162080222,750,0,0,neutral,0.1,7102.23419426274,2025.80186110905
20,104,1,114,0.5,-0.5,0.5,1,3,0.8,2,978,0,0,NaN,1,0,1.4,NaN,2.11701285760347,NaN,750,0,1,incongruent,1,9607.08421443911,1748.92728913211
20,104,1,115,-0.5,-0.5,-0.5,2,2,0.8,2,796,1,0,796,1,0,1.4,0.8,0.858165062885063,0.858165062885063,750,1,0,congruent,0.1,3396.88367700044,1741.06373841459
20,104,1,119,0.5,0.5,0,2,NaN,0.8,1,699,0,1,NaN,0,0,0.8,NaN,0.1872406887769,NaN,750,0,1,neutral,0,20605.7306706245,3111.26598017821
20,104,1,120,0.5,-0.5,0.5,3,4,0.6,4,933,0,0,NaN,1,0,0.4,NaN,1.80575928198628,NaN,750,1,0,incongruent,1,5877.21901484611,1053.83334908564
20,104,1,121,0.5,-0.5,-0.5,1,1,0.6,1,819,1,0,819,0,0,0.6,NaN,1.01725022375607,1.01725022375607,750,1,0,congruent,0,2592.7861422975,1893.99217588845
20,104,1,122,-0.5,0.5,0,3,NaN,0.6,3,773,1,0,773,0,0,0.4,0.4,0.699079902014055,0.699079902014055,750,0,0,neutral,0,2585.29002426473,1995.05511129506
20,104,1,123,-0.5,-0.5,-0.5,2,2,0.4,2,548,1,1,548,1,0,0.4,0.6,-0.85718797607189,-0.85718797607189,750,1,0,congruent,0.1,2015.63696110289,1507.80235550554
20,104,1,124,0.5,0.5,-0.5,3,3,0.4,3,645,1,1,645,1,0,0.6,NaN,-0.186263601963727,-0.186263601963727,750,1,0,congruent,1,1756.85528218572,3050.78640495202
20,104,1,125,-0.5,-0.5,0.5,1,2,0.4,2,793,0,0,NaN,0,0,1,0.8,0.837414824510583,NaN,750,1,0,incongruent,0,14499.6024644117,991.453521320489
20,104,1,127,0.5,0.5,-0.5,1,1,0.4,1,555,1,1,555,1,0,1,NaN,-0.808770753198105,-0.808770753198105,750,1,0,congruent,1,1183.54637748149,808.861927842957
20,104,1,128,-0.5,-0.5,-0.5,3,3,0.4,3,650,1,1,650,0,0,1.4,0.6,-0.151679871339595,-0.151679871339595,750,1,0,congruent,0,5700.15637409722,3289.0326477469
20,104,1,129,-0.5,0.5,-0.5,1,1,0.4,1,681,1,1,681,1,0,1.2,0.4,0.0627392585300242,0.0627392585300242,750,1,0,congruent,0.1,5296.65596574673,2524.41851200558
20,104,1,130,-0.5,0.5,-0.5,3,3,0.6,3,660,1,1,660,1,0,1,0.6,-0.0825124100913306,-0.0825124100913306,750,1,0,congruent,0.1,1264.37989549817,1808.44452151793
20,104,1,133,0.5,0.5,0,1,NaN,0.8,1,710,1,1,710,1,0,0.8,NaN,0.26332489614999,0.26332489614999,750,0,0,neutral,1,6816.93931392006,2037.73923913292
20,104,1,134,0.5,-0.5,-0.5,4,4,0.8,4,674,1,1,674,0,0,1.2,NaN,0.0143220356562393,0.0143220356562393,750,1,0,congruent,0,937.532994798349,7243.60154089603
20,104,1,135,0.5,-0.5,0,2,NaN,0.8,2,716,1,1,716,1,0,1,NaN,0.304825372898949,0.304825372898949,750,0,0,neutral,1,4519.2516626053,2440.23940276415
20,104,1,136,-0.5,-0.5,0.5,3,2,0.8,3,844,1,0,844,1,0,1.2,0.4,1.19016887687673,1.19016887687673,750,0,0,incongruent,0.1,3760.18594535854,4964.74655424154
20,104,1,137,0.5,0.5,-0.5,4,4,0.8,4,625,1,1,625,1,0,1.4,NaN,-0.324598524460255,-0.324598524460255,750,1,0,congruent,1,1104.98366006562,4881.98571642343
20,104,1,139,0.5,-0.5,0.5,3,4,0.6,3,996,1,0,996,1,0,1,NaN,2.24151428785035,2.24151428785035,750,0,0,incongruent,1,5967.08908416617,1055.49687171178
20,104,1,141,-0.5,0.5,0.5,3,4,0.6,4,985,0,0,NaN,0,0,1.4,0.4,2.16543008047726,NaN,750,1,0,incongruent,0,2032.44045349698,845.067111659516
20,104,1,142,-0.5,0.5,-0.5,1,1,0.6,1,558,1,1,558,1,0,1.2,0.4,-0.788020514823625,-0.788020514823625,750,1,0,congruent,0.1,4760.46045829664,4244.91858482528
20,104,1,143,-0.5,0.5,-0.5,4,4,0.6,4,636,1,1,636,1,0,1,0.6,-0.248514317087165,-0.248514317087165,750,1,0,congruent,0.1,7541.492249149,2755.72466997602
20,104,1,144,-0.5,0.5,0.5,1,2,0.6,2,982,0,0,NaN,0,0,1.2,0.6,2.14467984210278,NaN,750,1,0,incongruent,0,2901.4756942343,5000.78540009787
20,104,1,145,0.5,0.5,0,4,NaN,0.4,4,771,1,0,771,0,0,0.8,NaN,0.685246409764402,0.685246409764402,750,0,0,neutral,0,5763.51869505067,5849.34935691612
20,104,1,146,0.5,0.5,-0.5,3,3,0.4,3,560,1,1,560,1,0,0.4,NaN,-0.774187022573973,-0.774187022573973,750,1,0,congruent,1,2681.40724208753,3014.05200140498
20,104,1,147,-0.5,-0.5,-0.5,1,1,0.6,1,632,1,1,632,1,0,0.8,0.4,-0.27618130158647,-0.27618130158647,750,1,0,congruent,0.1,6102.94657240544,873.724244201506
20,104,1,148,0.5,0.5,0,4,NaN,0.6,4,730,1,1,730,1,0,0.8,NaN,0.401659818646519,0.401659818646519,750,0,0,neutral,1,2911.51325749978,1274.99266657668
20,104,1,149,0.5,-0.5,-0.5,3,3,0.6,3,563,1,1,563,1,0,1,NaN,-0.753436784199493,-0.753436784199493,750,1,0,congruent,1,1851.4117035076,2707.79124646835
20,104,1,150,-0.5,0.5,-0.5,4,4,0.6,4,550,1,1,550,1,0,1.4,0.4,-0.843354483822237,-0.843354483822237,750,1,0,congruent,0.1,2354.51305663847,2666.80858496479
20,104,2,151,0.5,0.5,0,1,NaN,0.6,1,704,1,1,704,1,0,1.6,NaN,0.221824419401032,0.221824419401032,750,0,0,neutral,1,2883.68143743386,2368.42025557978
20,104,2,152,-0.5,0.5,-0.5,3,3,0.8,3,527,1,1,527,1,0,1.6,0.6,-1.00243964469324,-1.00243964469324,750,1,0,congruent,0.1,3022.11336389089,1986.48576675109
20,104,2,153,0.5,-0.5,0,4,NaN,1,4,582,1,1,582,1,0,1.6,NaN,-0.622018607827791,-0.622018607827791,750,0,0,neutral,1,4271.09021408383,8923.06678758257
20,104,2,154,0.5,-0.5,0.5,2,3,1,3,859,0,0,NaN,1,0,1.6,NaN,1.29392006874913,NaN,750,1,0,incongruent,1,1497.71609279422,2230.77057446439
20,104,2,155,-0.5,-0.5,0.5,4,2,1,4,591,1,1,591,1,0,1.6,0.6,-0.559767892704354,-0.559767892704354,750,0,0,incongruent,0.1,2908.33147214797,1080.72026360893
20,104,2,156,-0.5,-0.5,-0.5,1,1,1,1,555,1,1,555,1,0,1.6,0.6,-0.808770753198105,-0.808770753198105,750,1,0,congruent,0.1,2330.37590871686,1403.77584656468
20,104,2,157,0.5,-0.5,0.5,4,3,1,3,522,0,1,NaN,1,0,1.4,NaN,-1.03702337531738,NaN,750,1,0,incongruent,1,926.439490625284,2245.54107129515
20,104,2,158,0.5,-0.5,0,1,NaN,1,1,783,1,0,783,1,0,1.6,NaN,0.768247363262319,0.768247363262319,750,0,0,neutral,1,1636.31181905195,6254.46011585057
20,104,2,159,0.5,-0.5,-0.5,4,4,1,4,557,1,1,557,1,0,1.6,NaN,-0.794937260948452,-0.794937260948452,750,1,0,congruent,1,3296.5091651804,2811.56285697479
20,104,2,160,0.5,-0.5,0.5,1,2,1,2,775,0,0,NaN,1,0,1.6,NaN,0.712913394263708,NaN,750,1,0,incongruent,1,5402.02368507561,1007.81069612045
20,104,2,161,0.5,0.5,-0.5,3,3,1,3,551,1,1,551,1,0,1.8,NaN,-0.83643773769741,-0.83643773769741,750,1,0,congruent,1,3974.30821333834,2025.33190121894
20,104,2,162,0.5,-0.5,0,1,NaN,1,1,524,1,1,524,1,0,2,NaN,-1.02318988306772,-1.02318988306772,750,0,0,neutral,1,918.005409927295,2488.24301811588
20,104,2,163,0.5,0.5,-0.5,2,2,1,3,568,0,1,NaN,0,0,2,NaN,-0.718853053575361,NaN,750,0,1,congruent,0,7509.24077038282,1412.24425891936
20,104,2,164,0.5,-0.5,0,4,NaN,0.8,4,576,1,1,576,1,0,1.6,NaN,-0.66351908457675,-0.66351908457675,750,0,0,neutral,1,2355.85291636273,1852.50211297527
20,104,2,165,0.5,0.5,0.5,1,3,0.8,3,827,0,0,NaN,0,0,1.6,NaN,1.07258419275468,NaN,750,1,0,incongruent,0,1308.16073287302,4811.47800200894
20,104,2,167,-0.5,0.5,0,3,NaN,0.6,4,786,0,0,NaN,0,0,1,0.8,0.788997601636798,NaN,750,0,1,neutral,0,12445.9948101933,974.886826932549
20,104,2,168,-0.5,0.5,-0.5,4,4,0.4,4,591,1,1,591,1,0,0.6,0.6,-0.559767892704354,-0.559767892704354,750,1,0,congruent,0.1,4880.13342440143,3074.55303847847
20,104,2,169,-0.5,-0.5,0,2,NaN,0.4,2,594,1,1,594,0,0,0.8,0.8,-0.539017654329874,-0.539017654329874,750,0,0,neutral,0,1678.48753522767,3259.52069423165
20,104,2,170,-0.5,-0.5,-0.5,1,1,0.4,1,846,1,0,846,1,0,0.4,0.8,1.20400236912638,1.20400236912638,750,1,0,congruent,0.1,8006.62022120729,862.357584868599
20,104,2,171,0.5,-0.5,0,2,NaN,0.4,2,591,1,1,591,1,0,0.6,NaN,-0.559767892704354,-0.559767892704354,750,0,0,neutral,1,1155.56033746106,2407.1772872231
20,104,2,172,0.5,0.5,0.5,1,4,0.4,4,757,0,0,NaN,0,0,0.8,NaN,0.588411964016832,NaN,750,1,0,incongruent,0,3496.83657870711,7670.5972086819
20,104,2,173,-0.5,-0.5,0.5,3,2,0.4,2,769,0,0,NaN,0,0,0.8,0.8,0.671412917514749,NaN,750,1,0,incongruent,0,5765.80661514747,2737.93948807666
20,104,2,174,-0.5,0.5,-0.5,1,1,0.4,2,683,0,1,NaN,0,0,0.6,0.8,0.0765727507796771,NaN,750,0,1,congruent,0,4240.34060345344,5161.03247876795
20,104,2,175,0.5,-0.5,0.5,2,4,0.4,4,986,0,0,NaN,0,0,0.6,NaN,2.17234682660208,NaN,750,1,0,incongruent,0,5041.19404553074,1236.53751438111
20,104,2,177,0.5,-0.5,-0.5,2,2,0.4,2,663,1,1,663,0,0,0.2,NaN,-0.0617621717168513,-0.0617621717168513,750,1,0,congruent,0,3152.85767797112,2148.94306329808
20,104,2,178,-0.5,-0.5,0,3,NaN,0.4,3,669,1,1,669,0,0,0.2,0.6,-0.0202616949678928,-0.0202616949678928,750,0,0,neutral,0,1596.98873875088,1534.26769027363
20,104,2,179,0.5,-0.5,-0.5,4,4,0.4,4,501,1,1,501,0,0,0.2,NaN,-1.18227504393873,-1.18227504393873,750,1,0,congruent,0,10744.3206231672,1653.66921392586
20,104,2,180,0.5,0.5,-0.5,2,2,0.4,2,578,1,1,578,1,0,0.2,NaN,-0.649685592327097,-0.649685592327097,750,1,0,congruent,1,3655.55570217115,3610.49737413996
20,104,2,181,0.5,-0.5,0,4,NaN,0.6,4,533,1,1,533,1,0,0.6,NaN,-0.960939167944286,-0.960939167944286,750,0,0,neutral,1,3993.00985080352,1486.80851344753
20,104,2,182,-0.5,0.5,-0.5,2,2,0.6,2,550,1,1,550,1,0,0.8,0.6,-0.843354483822237,-0.843354483822237,750,1,0,congruent,0.1,10815.5920671815,4588.00163352359
20,104,2,183,-0.5,0.5,0,4,NaN,0.6,4,589,1,1,589,1,0,1,0.6,-0.573601384954006,-0.573601384954006,750,0,0,neutral,0.1,1180.35917390972,549.944546165758
20,104,2,184,0.5,-0.5,0.5,3,4,0.8,3,720,1,1,720,1,0,1.2,NaN,0.332492357398255,0.332492357398255,750,0,0,incongruent,1,3319.65354238351,5855.09360747424
20,104,2,185,-0.5,0.5,-0.5,2,2,0.8,2,472,1,1,472,1,0,1.6,0.8,-1.3828606815587,-1.3828606815587,750,1,0,congruent,0.1,3979.24257192924,2043.40207435752
20,104,2,186,-0.5,0.5,0.5,1,4,1,1,695,1,1,695,1,0,1.4,0.8,0.159573704277594,0.159573704277594,750,0,0,incongruent,0.1,7599.36178533755,5927.17817922711
20,104,2,187,0.5,0.5,-0.5,2,2,1,2,553,1,1,553,1,0,1.2,NaN,-0.822604245447758,-0.822604245447758,750,1,0,congruent,1,18560.4685232197,1315.93023106961
20,104,2,188,0.5,0.5,-0.5,1,1,1,1,577,1,1,577,1,0,1.4,NaN,-0.656602338451924,-0.656602338451924,750,1,0,congruent,1,2265.03939689932,2905.26730915476
20,104,2,189,0.5,0.5,0,3,NaN,1,3,502,1,1,502,1,0,1.6,NaN,-1.1753582978139,-1.1753582978139,750,0,0,neutral,1,1112.89900450468,5444.19191946874
20,104,2,190,0.5,-0.5,-0.5,1,1,1,1,607,1,1,607,1,0,1.6,NaN,-0.449099954707131,-0.449099954707131,750,1,0,congruent,1,5164.07324315989,1085.65905306273
20,104,2,191,0.5,0.5,-0.5,2,2,1,2,457,1,1,457,1,0,1.8,NaN,-1.48661187343109,-1.48661187343109,750,1,0,congruent,1,3192.96753277401,1789.0125846494
20,104,2,192,-0.5,0.5,0,4,NaN,1,4,545,1,1,545,1,0,2,1,-0.877938214446369,-0.877938214446369,750,0,0,neutral,0.1,8444.30175695717,3727.47365712976
20,104,2,193,-0.5,0.5,-0.5,1,1,1,1,566,1,1,566,1,0,1.8,1,-0.732686545825014,-0.732686545825014,750,1,0,congruent,0.1,1714.87916229031,1225.93057376826
20,104,2,194,0.5,-0.5,0,4,NaN,1,4,512,1,1,512,1,0,1.6,NaN,-1.10619083656564,-1.10619083656564,750,0,0,neutral,1,2405.63824652084,2321.49618543275
20,104,2,195,-0.5,-0.5,-0.5,1,1,1,1,473,1,1,473,1,0,1.6,0.4,-1.37594393543387,-1.37594393543387,750,1,0,congruent,0.1,5958.89001603983,4487.89065586791
20,104,2,196,0.5,-0.5,-0.5,3,3,1,3,614,1,1,614,1,0,1.4,NaN,-0.400682731833346,-0.400682731833346,750,1,0,congruent,1,7935.70374917687,1628.20652770337
20,104,2,197,-0.5,0.5,0,1,NaN,1,1,716,1,1,716,1,0,1.4,1,0.304825372898949,0.304825372898949,750,0,0,neutral,0.1,4153.85695406934,4858.78110151448
20,104,2,198,-0.5,-0.5,-0.5,4,4,1,3,541,0,1,NaN,1,0,1.4,0.4,-0.905605198945675,NaN,750,0,1,congruent,0.1,5022.7251245653,1713.50900041756
20,104,2,199,-0.5,0.5,0.5,2,1,1,1,786,0,0,NaN,0,0,1.4,1,0.788997601636798,NaN,750,1,0,incongruent,0,14347.0845741774,8610.26269992146
20,104,2,200,0.5,-0.5,0.5,4,3,0.8,3,656,0,1,NaN,1,0,1,NaN,-0.110179394590636,NaN,750,1,0,incongruent,1,9106.99306537041,1136.40595666662
20,104,2,201,-0.5,-0.5,0,2,NaN,0.8,1,518,0,1,NaN,1,0,1.2,0.6,-1.06469035981668,NaN,750,0,1,neutral,0.1,18571.7556457031,4094.07545486874
20,104,2,202,-0.5,-0.5,-0.5,1,1,0.8,1,559,1,1,559,1,0,1,0.6,-0.781103768698799,-0.781103768698799,750,1,0,congruent,0.1,1795.86885675485,1432.30748090671
20,104,2,203,-0.5,-0.5,0.5,3,2,0.8,3,957,1,0,957,0,0,1,0.8,1.97176118898212,1.97176118898212,750,0,0,incongruent,0,5040.30953212893,4140.19412975089
20,104,2,204,0.5,-0.5,-0.5,1,1,0.8,1,558,1,1,558,1,0,0.8,NaN,-0.788020514823625,-0.788020514823625,750,1,0,congruent,1,1185.08897106464,3876.95629288331
20,104,2,205,-0.5,-0.5,0.5,4,3,0.8,3,837,0,0,NaN,1,0,1.2,0.8,1.14175165400295,NaN,750,1,0,incongruent,0.1,9584.21539328414,1063.74159328693
20,104,2,206,0.5,-0.5,0.5,3,1,0.8,3,707,1,1,707,1,0,1,NaN,0.242574657775511,0.242574657775511,750,0,0,incongruent,1,4721.89988606303,8725.12561976381
20,104,2,207,0.5,0.5,0,4,NaN,0.8,4,743,1,1,743,1,0,1.2,NaN,0.491577518269262,0.491577518269262,750,0,0,neutral,1,4491.95128881878,3802.01724488161
20,104,2,208,-0.5,-0.5,-0.5,1,1,0.8,1,497,1,1,497,1,0,1.4,0.8,-1.20994202843804,-1.20994202843804,750,1,0,congruent,0.1,7540.87166226976,1188.00633562368
20,104,2,209,0.5,-0.5,0.5,2,3,0.8,2,964,1,0,964,1,0,1.6,NaN,2.0201784118559,2.0201784118559,750,0,0,incongruent,1,5955.96664874999,2033.95171636255
20,104,2,210,-0.5,-0.5,-0.5,4,4,0.8,4,504,1,1,504,1,0,1.6,0.8,-1.16152480556425,-1.16152480556425,750,1,0,congruent,0.1,5954.67437541084,3146.04757681675
20,104,2,211,-0.5,0.5,0,3,NaN,0.8,3,901,1,0,901,0,0,1.6,0.8,1.58442340599184,1.58442340599184,750,0,0,neutral,0,4342.32845955611,1703.23049553864
20,104,2,212,-0.5,0.5,-0.5,1,1,0.6,1,542,1,1,542,1,0,1.2,0.6,-0.898688452820848,-0.898688452820848,750,1,0,congruent,0.1,6818.92661418403,2466.23119079393
20,104,2,213,-0.5,-0.5,-0.5,3,3,0.6,3,970,1,0,970,0,0,1,0.8,2.06167888860486,2.06167888860486,750,1,0,congruent,0,4160.42184418972,6657.38275695194
20,104,2,214,0.5,-0.5,-0.5,2,2,0.6,2,612,1,1,612,1,0,0.8,NaN,-0.414516224082999,-0.414516224082999,750,1,0,congruent,1,5073.01801317852,5391.32523423855
20,104,2,215,0.5,-0.5,0.5,4,3,0.6,3,703,0,1,NaN,0,0,0.8,NaN,0.214907673276205,NaN,750,1,0,incongruent,0,3483.69942109781,2073.32565726289
20,104,2,216,-0.5,-0.5,-0.5,2,2,0.6,2,536,1,1,536,1,0,0.6,0.6,-0.940188929569807,-0.940188929569807,750,1,0,congruent,0.1,2392.97470710302,1587.1243110584
20,104,2,217,0.5,-0.5,0,3,NaN,0.6,3,638,1,1,638,0,0,0.8,NaN,-0.234680824837512,-0.234680824837512,750,0,0,neutral,0,4602.05137926498,1628.07827383216
20,104,2,218,0.5,0.5,-0.5,1,1,0.6,1,508,1,1,508,1,0,0.6,NaN,-1.13385782106495,-1.13385782106495,750,1,0,congruent,1,3269.32441137492,4761.06974197954
20,104,2,219,0.5,-0.5,0,3,NaN,0.6,3,456,1,1,456,0,0,1,NaN,-1.49352861955592,-1.49352861955592,750,0,0,neutral,0,10578.8888234419,1693.96331068739
20,104,2,220,-0.5,0.5,0.5,1,2,0.6,2,812,0,0,NaN,0,0,0.6,0.6,0.968833000882285,NaN,750,1,0,incongruent,0,5979.42029141731,7458.18796216525
20,104,2,225,0.5,0.5,-0.5,3,3,0.4,3,602,1,1,602,1,0,0.8,NaN,-0.483683685331263,-0.483683685331263,750,1,0,congruent,1,989.628754077218,1893.01580105775
20,104,2,227,-0.5,-0.5,0.5,3,1,0.4,3,939,1,0,939,0,0,1,0.8,1.84725975873524,1.84725975873524,750,0,0,incongruent,0,3272.38704242628,2896.44875608761
20,104,2,229,-0.5,0.5,0,3,NaN,0.4,3,583,1,1,583,1,0,0.8,0.2,-0.615101861702965,-0.615101861702965,750,0,0,neutral,0.1,1635.39795811636,1044.44789678693
20,104,2,230,-0.5,-0.5,0.5,1,2,0.4,2,667,0,1,NaN,1,0,0.6,0.6,-0.0340951872175457,NaN,750,1,0,incongruent,0.1,3006.15186357646,1695.34943872128
20,104,2,231,-0.5,0.5,-0.5,3,3,0.4,3,525,1,1,525,1,0,0.4,0.4,-1.0162731369429,-1.0162731369429,750,1,0,congruent,0.1,1275.6299930634,1375.3923923932
20,104,2,232,-0.5,-0.5,0.5,1,4,0.6,4,631,0,1,NaN,0,0,0.6,0.8,-0.283098047711297,NaN,750,1,0,incongruent,0,6161.58348362374,3003.9713429432
20,104,2,233,0.5,-0.5,-0.5,3,3,0.6,3,569,1,1,569,0,0,0.6,NaN,-0.711936307450535,-0.711936307450535,750,1,0,congruent,0,1211.63847902016,4852.70427889635
20,104,2,234,-0.5,-0.5,-0.5,4,4,0.6,4,502,1,1,502,0,0,0.6,0.6,-1.1753582978139,-1.1753582978139,750,1,0,congruent,0,3736.88020984364,2331.98623040936
20,104,2,235,0.5,-0.5,-0.5,3,3,0.6,3,553,1,1,553,1,0,0.4,NaN,-0.822604245447758,-0.822604245447758,750,1,0,congruent,1,5814.03926214738,4772.45675068669
20,104,2,237,0.5,0.5,-0.5,3,3,0.6,3,580,1,1,580,1,0,0.6,NaN,-0.635852100077444,-0.635852100077444,750,1,0,congruent,1,2536.34245961608,2042.17296068104
20,104,2,238,0.5,0.5,-0.5,4,4,0.8,4,519,1,1,519,1,0,1,NaN,-1.05777361369186,-1.05777361369186,750,1,0,congruent,1,3596.33352818946,3592.05239669064
20,104,2,239,0.5,0.5,-0.5,1,1,0.8,2,620,0,1,NaN,0,0,1.4,NaN,-0.359182255084387,NaN,750,0,1,congruent,0,9824.47513001559,5183.81170924914
20,104,2,240,-0.5,-0.5,-0.5,3,3,0.8,3,511,1,1,511,1,0,1.4,0.4,-1.11310758269047,-1.11310758269047,750,1,0,congruent,0.1,3657.91546951476,3233.09449426106
20,104,2,241,0.5,0.5,-0.5,1,1,0.8,1,550,1,1,550,1,0,1.2,NaN,-0.843354483822237,-0.843354483822237,750,1,0,congruent,1,4613.65726904667,1212.8817508621
20,104,2,242,-0.5,-0.5,0,4,NaN,0.8,4,636,1,1,636,1,0,1.4,0.6,-0.248514317087165,-0.248514317087165,750,0,0,neutral,0.1,1367.7537282443,2199.31487717225
20,104,2,244,0.5,0.5,0,1,NaN,0.8,1,613,1,1,613,1,0,0.8,NaN,-0.407599477958172,-0.407599477958172,750,0,0,neutral,1,997.348744966243,1550.53397241536
20,104,2,245,0.5,-0.5,-0.5,2,2,0.8,2,556,1,1,556,1,0,1.2,NaN,-0.801854007073278,-0.801854007073278,750,1,0,congruent,1,10424.1198699194,1365.66508248578
20,104,2,246,0.5,0.5,-0.5,3,3,0.8,3,544,1,1,544,1,0,1.4,NaN,-0.884854960571195,-0.884854960571195,750,1,0,congruent,1,5731.65207872158,7953.11799160968
20,104,2,247,0.5,0.5,0,4,NaN,0.8,4,548,1,1,548,1,0,1.4,NaN,-0.85718797607189,-0.85718797607189,750,0,0,neutral,1,4013.95669210614,2217.10806684507
20,104,2,248,-0.5,-0.5,-0.5,1,1,0.8,1,560,1,1,560,0,0,1.6,0.6,-0.774187022573973,-0.774187022573973,750,1,0,congruent,0,4832.91530945861,4893.76634513585
20,104,2,249,-0.5,-0.5,0.5,3,4,0.8,3,764,1,0,764,1,0,1.6,0.6,0.636829186890617,0.636829186890617,750,0,0,incongruent,0.1,8081.46033952546,6856.33781391592
20,104,2,250,0.5,-0.5,0,2,NaN,0.8,2,767,1,0,767,1,0,1.4,NaN,0.657579425265096,0.657579425265096,750,0,0,neutral,1,1609.06714088862,2064.8376367039
20,104,2,251,-0.5,0.5,-0.5,4,4,0.8,4,533,1,1,533,1,0,1.4,0.6,-0.960939167944286,-0.960939167944286,750,1,0,congruent,0.1,3026.84261871005,2467.58995730332
20,104,2,252,0.5,-0.5,-0.5,2,2,1,2,568,1,1,568,1,0,1.2,NaN,-0.718853053575361,-0.718853053575361,750,1,0,congruent,1,1909.75132680588,1133.5849931886
20,104,2,253,0.5,0.5,-0.5,1,1,1,1,523,1,1,523,1,0,1.2,NaN,-1.03010662919255,-1.03010662919255,750,1,0,congruent,1,3632.32806302313,4278.20325086457
20,104,2,254,0.5,-0.5,-0.5,4,4,1,4,469,1,1,469,1,0,1.6,NaN,-1.40361091993318,-1.40361091993318,750,1,0,congruent,1,7305.47039018808,2404.48174376111
20,104,2,255,-0.5,-0.5,-0.5,3,3,1,4,771,0,0,NaN,1,0,1.8,0.6,0.685246409764402,NaN,750,0,1,congruent,0.1,13168.694291138,9331.81009658358
20,104,2,256,-0.5,0.5,-0.5,2,2,1,2,790,1,0,790,0,0,1.6,0.6,0.816664586136104,0.816664586136104,750,1,0,congruent,0,3516.99096380246,5186.22299075677
20,104,2,257,0.5,0.5,0,3,NaN,0.8,3,681,1,1,681,1,0,1.4,NaN,0.0627392585300242,0.0627392585300242,750,0,0,neutral,1,3238.95165738488,1266.56835296328
20,104,2,258,0.5,-0.5,0.5,4,2,0.8,2,908,0,0,NaN,1,0,1.4,NaN,1.63284062886562,NaN,750,1,0,incongruent,1,6847.29503977112,1306.65712899578
20,104,2,259,-0.5,-0.5,0.5,1,3,0.8,4,840,0,0,NaN,1,0,1.4,0.6,1.16250189237743,NaN,750,0,1,incongruent,0.1,6943.36655149801,1899.89525096625
20,104,2,260,0.5,0.5,0,2,NaN,0.8,2,660,1,1,660,1,0,1.2,NaN,-0.0825124100913306,-0.0825124100913306,750,0,0,neutral,1,2280.53228808059,1900.09762953237
20,104,2,262,0.5,0.5,-0.5,3,3,0.6,3,589,1,1,589,1,0,1.4,NaN,-0.573601384954006,-0.573601384954006,750,1,0,congruent,1,4288.27353531686,3245.22937055542
20,104,2,263,0.5,0.5,-0.5,2,2,0.6,2,647,1,1,647,1,0,1.4,NaN,-0.172430109714074,-0.172430109714074,750,1,0,congruent,1,3499.56690181458,1113.22863819491
20,104,2,264,-0.5,-0.5,0,4,NaN,0.8,4,605,1,1,605,1,0,1.4,0.6,-0.462933446956784,-0.462933446956784,750,0,0,neutral,0.1,1181.26808406323,2470.73078493538
20,104,2,266,-0.5,-0.5,0,3,NaN,0.6,3,700,1,1,700,0,0,1,0.8,0.194157434901726,0.194157434901726,750,0,0,neutral,0,10803.1425308344,1749.86111096108
20,104,2,267,-0.5,-0.5,-0.5,4,4,0.6,4,545,1,1,545,1,0,1,0.8,-0.877938214446369,-0.877938214446369,750,1,0,congruent,0.1,2547.97120297263,7079.97984461778
20,104,2,268,-0.5,0.5,0.5,1,3,0.6,3,737,0,1,NaN,0,0,0.8,0.4,0.450077041520304,NaN,750,1,0,incongruent,0,5426.80306172639,1372.19963120115
20,104,2,269,0.5,-0.5,-0.5,2,2,0.4,2,690,1,1,690,0,0,0.4,NaN,0.124989973653462,0.124989973653462,750,1,0,congruent,0,3537.44725402405,1331.97375401832
20,104,2,270,0.5,-0.5,-0.5,4,4,0.4,4,463,1,1,463,0,0,0.2,NaN,-1.44511139668214,-1.44511139668214,750,1,0,congruent,0,7685.3058973226,2729.50086913272
20,104,2,271,0.5,-0.5,0.5,3,1,0.4,2,962,0,0,NaN,1,0,0.2,NaN,2.00634491960625,NaN,750,0,1,incongruent,1,1661.9131102,3026.67133873299
20,104,2,272,0.5,-0.5,0,2,NaN,0.4,2,800,1,0,800,0,0,0.6,NaN,0.885832047384368,0.885832047384368,750,0,0,neutral,0,3646.88598030923,8275.46082861252
20,104,2,273,-0.5,-0.5,-0.5,4,4,0.4,4,662,1,1,662,0,0,0.4,0.8,-0.0686789178416778,-0.0686789178416778,750,1,0,congruent,0,5019.9877972906,2976.41313386502
20,104,2,274,-0.5,0.5,-0.5,3,3,0.4,3,968,1,0,968,0,0,0.4,0.2,2.04784539635521,2.04784539635521,750,1,0,congruent,0,8109.50949177541,3339.89676793155
20,104,2,275,-0.5,0.5,0,2,NaN,0.4,2,580,1,1,580,1,0,0.4,0,-0.635852100077444,-0.635852100077444,750,0,0,neutral,0.1,9746.86033007506,1367.6995577229
20,104,2,277,0.5,-0.5,-0.5,4,4,0.4,4,517,1,1,517,0,0,0.2,NaN,-1.07160710594151,-1.07160710594151,750,1,0,congruent,0,5760.14198641663,3072.86659678298
20,104,2,278,0.5,-0.5,0.5,3,1,0.4,1,698,0,1,NaN,0,0,0.2,NaN,0.180323942652073,NaN,750,1,0,incongruent,0,5931.59162031609,2107.49936422253
20,104,2,279,-0.5,0.5,-0.5,2,2,0.4,2,582,1,1,582,1,0,0.2,0.2,-0.622018607827791,-0.622018607827791,750,1,0,congruent,0.1,4054.336271081,2632.29750652908
20,104,2,280,-0.5,-0.5,0,4,NaN,0.4,4,612,1,1,612,0,0,0.4,0.6,-0.414516224082999,-0.414516224082999,750,0,0,neutral,0,5855.66884604024,800.614430793526
20,104,2,281,-0.5,0.5,0.5,1,4,0.4,4,656,0,1,NaN,0,0,0.2,0.4,-0.110179394590636,NaN,750,1,0,incongruent,0,7030.74224734742,2882.27181825219
20,104,2,285,0.5,-0.5,0.5,2,4,0.4,4,944,0,0,NaN,0,0,0.4,NaN,1.88184348935937,NaN,750,1,0,incongruent,0,12410.1076344269,2171.68811968273
20,104,2,287,0.5,0.5,-0.5,2,2,0.2,2,579,1,1,579,1,0,0.4,NaN,-0.642768846202271,-0.642768846202271,750,1,0,congruent,1,4063.83698982772,2582.15495125299
20,104,2,288,0.5,-0.5,-0.5,4,4,0.2,4,633,1,1,633,0,0,0.4,NaN,-0.269264555461644,-0.269264555461644,750,1,0,congruent,0,1882.74054177986,2951.68427422462
20,104,2,290,0.5,0.5,0,1,NaN,0.2,1,768,1,0,768,0,0,0.4,NaN,0.664496171389923,0.664496171389923,750,0,0,neutral,0,6702.98813503003,2660.43930890692
20,104,2,291,-0.5,-0.5,-0.5,4,4,0.2,4,497,1,1,497,0,0,0.4,0.2,-1.20994202843804,-1.20994202843804,750,1,0,congruent,0,4552.22553840904,1384.90473001353
20,104,2,293,-0.5,0.5,0,1,NaN,0.2,1,664,1,1,664,1,0,0,0.4,-0.0548454255920249,-0.0548454255920249,750,0,0,neutral,0.1,2514.68427996908,2444.41355796868
20,104,2,294,0.5,-0.5,-0.5,2,2,0.4,2,512,1,1,512,0,0,0.2,NaN,-1.10619083656564,-1.10619083656564,750,1,0,congruent,0,5851.42131689335,1232.62885164776
20,104,2,296,-0.5,-0.5,0,3,NaN,0.4,3,628,1,1,628,0,0,0.2,0.2,-0.303848286085776,-0.303848286085776,750,0,0,neutral,0,2849.36431060233,2769.23042628384
20,104,2,297,-0.5,0.5,0.5,1,4,0.4,4,738,0,1,NaN,0,0,0.2,0.6,0.45699378764513,NaN,750,1,0,incongruent,0,3767.96423271583,4098.97490058371
20,104,2,298,0.5,-0.5,0,3,NaN,0.4,3,629,1,1,629,1,0,0.2,NaN,-0.29693153996095,-0.29693153996095,750,0,0,neutral,1,2418.62992985382,1790.5273334256
20,104,2,300,-0.5,0.5,-0.5,3,3,0.4,3,509,1,1,509,1,0,0.4,0.6,-1.12694107494012,-1.12694107494012,750,1,0,congruent,0.1,5424.75480513501,2030.64343047277
20,104,3,301,0.5,0.5,-0.5,4,4,0.4,4,920,1,0,920,0,0,0.6,NaN,1.71584158236354,1.71584158236354,750,1,0,congruent,0,1724.10776433236,2378.26043483926
20,104,3,302,-0.5,0.5,0,3,NaN,0.4,3,541,1,1,541,1,0,0.6,0.6,-0.905605198945675,-0.905605198945675,750,0,0,neutral,0.1,967.630257875437,1203.36769914151
20,104,3,303,-0.5,-0.5,0.5,2,1,0.4,1,753,0,0,NaN,0,0,0.8,0,0.560744979517527,NaN,750,1,0,incongruent,0,7435.43889703003,3550.53410535268
20,104,3,304,0.5,-0.5,0.5,3,4,0.4,3,974,1,0,974,0,0,0.4,NaN,2.08934587310417,2.08934587310417,750,0,0,incongruent,0,5189.59134558889,2319.36013288337
20,104,3,305,-0.5,-0.5,-0.5,1,1,0.4,1,595,1,1,595,0,0,0.4,0,-0.532100908205048,-0.532100908205048,750,1,0,congruent,0,1788.95140697826,2767.36217356496
20,104,3,306,0.5,-0.5,-0.5,3,3,0.4,3,626,1,1,626,1,0,0.2,NaN,-0.317681778335429,-0.317681778335429,750,1,0,congruent,1,4223.51438490322,7240.78091678862
20,104,3,307,-0.5,0.5,-0.5,4,4,0.4,4,579,1,1,579,1,0,0.6,0.6,-0.642768846202271,-0.642768846202271,750,1,0,congruent,0.1,4461.22722527769,3038.72592645379
20,104,3,308,0.5,0.5,0.5,1,2,0.6,2,650,0,1,NaN,0,0,0.6,NaN,-0.151679871339595,NaN,750,1,0,incongruent,0,8139.27187875079,2777.522485948
20,104,3,310,-0.5,-0.5,-0.5,1,1,0.4,1,886,1,0,886,1,0,0.6,0,1.48067221411944,1.48067221411944,750,1,0,congruent,0.1,2200.59450956652,1512.61420327253
20,104,3,311,-0.5,-0.5,-0.5,3,3,0.4,3,638,1,1,638,0,0,0.8,0.2,-0.234680824837512,-0.234680824837512,750,1,0,congruent,0,8779.57837679884,5749.46899933012
20,104,3,312,0.5,0.5,0.5,4,1,0.4,3,586,0,1,NaN,0,0,0.4,NaN,-0.594351623328486,NaN,750,0,1,incongruent,0,10446.4726459537,5544.77757556084
20,104,3,313,-0.5,0.5,-0.5,2,2,0.4,2,877,1,0,877,0,0,0.2,0.6,1.418421498996,1.418421498996,750,1,0,congruent,0,4876.16977035598,8103.4328453179
20,104,3,316,-0.5,0.5,-0.5,2,2,0.2,2,792,1,0,792,0,0,0.2,0.6,0.830498078385757,0.830498078385757,750,1,0,congruent,0,874.339209390324,706.230308702381
20,104,3,317,-0.5,0.5,-0.5,3,3,0.2,3,688,1,1,688,1,0,0.2,0.4,0.111156481403809,0.111156481403809,750,1,0,congruent,0.1,4630.17030506252,4061.87062229716
20,104,3,318,0.5,0.5,-0.5,2,2,0.4,2,738,1,1,738,1,0,0.4,NaN,0.45699378764513,0.45699378764513,750,1,0,congruent,1,6133.13135814368,1809.66582270312
20,104,3,320,0.5,0.5,0.5,2,1,0.6,2,963,1,0,963,0,0,0.6,NaN,2.01326166573107,2.01326166573107,750,0,0,incongruent,0,2145.17410509673,1817.14105216819
20,104,3,321,0.5,0.5,0,3,NaN,0.6,3,646,1,1,646,1,0,0.6,NaN,-0.1793468558389,-0.1793468558389,750,0,0,neutral,1,6365.78125738642,1530.41437963855
20,104,3,322,0.5,-0.5,-0.5,4,4,0.6,4,471,1,1,471,0,0,1,NaN,-1.38977742768352,-1.38977742768352,750,1,0,congruent,0,1807.13349313229,1898.94126284129
20,104,3,323,-0.5,-0.5,0,2,NaN,0.6,3,531,0,1,NaN,1,0,0.8,0.2,-0.974772660193939,NaN,750,0,1,neutral,0.1,5721.93292593931,2817.26616847694
20,104,3,324,-0.5,0.5,-0.5,4,4,0.6,4,538,1,1,538,1,0,0.6,0.4,-0.926355437320154,-0.926355437320154,750,1,0,congruent,0.1,4080.12643223688,2074.80561130367
20,104,3,325,0.5,0.5,0.5,1,2,0.8,2,745,0,1,NaN,0,0,0.8,NaN,0.505411010518915,NaN,750,1,0,incongruent,0,3858.48256415851,2252.77819949249
20,104,3,326,-0.5,0.5,0.5,2,3,0.6,3,806,0,0,NaN,0,0,0.8,0.6,0.927332524133327,NaN,750,1,0,incongruent,0,13212.5725979958,4665.41319743625
20,104,3,327,-0.5,-0.5,0,4,NaN,0.4,4,558,1,1,558,1,0,0.4,0.4,-0.788020514823625,-0.788020514823625,750,0,0,neutral,0.1,2404.21828565753,799.395431266847
20,104,3,328,0.5,-0.5,0.5,3,4,0.4,3,991,1,0,991,1,0,0.6,NaN,2.20693055722621,2.20693055722621,750,0,0,incongruent,1,6602.83270083904,3679.77481325827
20,104,3,330,0.5,-0.5,-0.5,3,3,0.4,3,747,1,1,747,0,0,0.6,NaN,0.519244502768568,0.519244502768568,750,1,0,congruent,0,3728.46090987189,2603.56511835288
20,104,3,331,-0.5,-0.5,-0.5,2,2,0.4,2,911,1,0,911,0,0,0.6,0.4,1.6535908672401,1.6535908672401,750,1,0,congruent,0,1356.47425395922,3712.02970878677
20,104,3,333,0.5,-0.5,0.5,3,4,0.4,4,637,0,1,NaN,1,0,0.4,NaN,-0.241597570962338,NaN,750,1,0,incongruent,1,11476.8158778215,2564.93454433952
20,104,3,334,0.5,-0.5,-0.5,1,1,0.4,2,732,0,1,NaN,0,0,0.4,NaN,0.415493310896172,NaN,750,0,1,congruent,0,12185.9930643555,3255.47674125076
20,104,3,336,0.5,0.5,0.5,2,3,0.4,1,871,0,0,NaN,0,0,0.8,NaN,1.37692102224704,NaN,750,0,1,incongruent,0,3861.51645747,3063.89270614898
20,104,3,337,0.5,0.5,-0.5,1,1,0.2,1,775,1,0,775,0,0,0.8,NaN,0.712913394263708,0.712913394263708,750,1,0,congruent,0,2607.42481734616,3426.3439044499
20,104,3,338,0.5,0.5,-0.5,2,2,0,2,763,1,0,763,0,0,0.8,NaN,0.629912440765791,0.629912440765791,750,1,0,congruent,0,3326.44985644263,6088.75740261176
20,104,3,339,-0.5,0.5,0,4,NaN,0,4,779,1,0,779,0,0,0.4,0.4,0.740580378763013,0.740580378763013,750,0,0,neutral,0,5788.95307883529,3763.56523597849
20,104,3,340,-0.5,0.5,-0.5,2,2,0,2,531,1,1,531,1,0,0.4,0.4,-0.974772660193939,-0.974772660193939,750,1,0,congruent,0.1,3939.00047016172,2045.73688251674
20,104,3,341,0.5,-0.5,-0.5,1,1,0.2,1,648,1,1,648,0,0,0.2,NaN,-0.165513363589248,-0.165513363589248,750,1,0,congruent,0,2137.27944561536,1353.7839596467
20,104,3,342,0.5,-0.5,0,3,NaN,0.2,3,785,1,0,785,0,0,0.2,NaN,0.782080855511972,0.782080855511972,750,0,0,neutral,0,3751.6343964214,3905.95520036917
20,104,3,344,0.5,-0.5,0,1,NaN,0.2,1,720,1,1,720,0,0,0.2,NaN,0.332492357398255,0.332492357398255,750,0,0,neutral,0,3127.57589023235,3675.84730659827
20,104,3,345,0.5,-0.5,-0.5,2,2,0.2,2,661,1,1,661,0,0,0.2,NaN,-0.0755956639665042,-0.0755956639665042,750,1,0,congruent,0,4042.18121413381,1450.81372824684
20,104,3,346,0.5,-0.5,0.5,4,3,0.2,4,858,1,0,858,0,0,0,NaN,1.2870033226243,1.2870033226243,750,0,0,incongruent,0,5631.80818115024,2101.66408017477
20,104,3,347,0.5,0.5,0.5,3,1,0.2,2,944,0,0,NaN,0,0,0,NaN,1.88184348935937,NaN,750,0,1,incongruent,0,5995.64360054168,1382.63004083377
20,104,3,349,0.5,0.5,-0.5,3,3,0.2,3,627,1,1,627,1,0,0,NaN,-0.310765032210602,-0.310765032210602,750,1,0,congruent,1,5635.69681306247,4621.34543912019
20,104,3,350,-0.5,-0.5,0,2,NaN,0.4,2,719,1,1,719,1,0,0.4,0.4,0.325575611273428,0.325575611273428,750,0,0,neutral,0.1,4651.30282937013,6464.11246051222
20,104,3,351,-0.5,0.5,-0.5,1,1,0.4,1,553,1,1,553,1,0,0.6,0.4,-0.822604245447758,-0.822604245447758,750,1,0,congruent,0.1,9677.84594697235,3656.48761247696
20,104,3,352,0.5,-0.5,0.5,3,4,0.6,3,693,1,1,693,0,0,0.8,NaN,0.145740212027941,0.145740212027941,750,0,0,incongruent,0,5614.50926905726,7749.3343453059
20,104,3,353,-0.5,0.5,-0.5,2,2,0.6,2,690,1,1,690,1,0,0.8,0.4,0.124989973653462,0.124989973653462,750,1,0,congruent,0.1,3921.15778289197,1783.20151196881
20,104,3,354,-0.5,-0.5,0.5,1,4,0.8,1,979,1,0,979,0,0,1,0.4,2.1239296037283,2.1239296037283,750,0,0,incongruent,0,2243.42612481895,2295.41025554512
20,104,3,356,0.5,-0.5,-0.5,1,1,0.8,1,686,1,1,686,1,0,0.6,NaN,0.0973229891541563,0.0973229891541563,750,1,0,congruent,1,4287.68432224644,4398.90802852679
20,104,3,357,-0.5,-0.5,-0.5,2,2,0.8,2,590,1,1,590,1,0,0.8,0.4,-0.56668463882918,-0.56668463882918,750,1,0,congruent,0.1,7269.25754013519,1684.7432443208
20,104,3,359,0.5,-0.5,0,2,NaN,0.8,2,665,1,1,665,1,0,1.2,NaN,-0.0479286794671985,-0.0479286794671985,750,0,0,neutral,1,3560.42079973617,984.402951287554
20,104,3,360,-0.5,0.5,-0.5,3,3,0.8,3,545,1,1,545,1,0,1.6,0.6,-0.877938214446369,-0.877938214446369,750,1,0,congruent,0.1,3628.89537021376,2317.06590777576
20,104,3,361,-0.5,-0.5,0.5,2,4,0.8,1,877,0,0,NaN,1,0,1.6,0.6,1.418421498996,NaN,750,0,1,incongruent,0.1,18586.9131059429,1163.40982205142
20,104,3,362,-0.5,-0.5,-0.5,1,1,0.8,1,663,1,1,663,1,0,1.4,0.8,-0.0617621717168513,-0.0617621717168513,750,1,0,congruent,0.1,2057.7844141099,5331.82837663768
20,104,3,363,-0.5,0.5,0.5,3,2,0.8,3,939,1,0,939,0,0,1.4,0.8,1.84725975873524,1.84725975873524,750,0,0,incongruent,0,3532.11607169585,3020.26045265447
20,104,3,364,-0.5,-0.5,-0.5,1,1,0.8,1,519,1,1,519,1,0,1,0.8,-1.05777361369186,-1.05777361369186,750,1,0,congruent,0.1,3579.03662166665,1319.02984473025
20,104,3,365,-0.5,0.5,0.5,3,2,0.8,3,873,1,0,873,0,0,0.8,0.8,1.3907545144967,1.3907545144967,750,0,0,incongruent,0,4488.35679207352,3976.49834156306
20,104,3,368,0.5,-0.5,0.5,4,1,0.6,4,986,1,0,986,1,0,0.6,NaN,2.17234682660208,2.17234682660208,750,0,0,incongruent,1,3304.19078434294,4578.99680715954
20,104,3,369,-0.5,-0.5,0.5,2,4,0.6,2,802,1,0,802,1,0,1,0.8,0.899665539634021,0.899665539634021,750,0,0,incongruent,0.1,12420.8938075128,2420.80898523795
20,104,3,370,0.5,-0.5,0,4,NaN,0.6,4,683,1,1,683,1,0,1,NaN,0.0765727507796771,0.0765727507796771,750,0,0,neutral,1,3792.8287667796,2386.61302199252
20,104,3,372,-0.5,-0.5,-0.5,4,4,0.6,4,544,1,1,544,1,0,1.4,0.8,-0.884854960571195,-0.884854960571195,750,1,0,congruent,0.1,1897.461117101,4861.17126458594
20,104,3,373,0.5,-0.5,0,1,NaN,0.6,1,548,1,1,548,1,0,1.2,NaN,-0.85718797607189,-0.85718797607189,750,0,0,neutral,1,2356.01209508401,1771.42562450014
20,104,3,374,0.5,0.5,-0.5,3,3,0.6,3,551,1,1,551,1,0,1.2,NaN,-0.83643773769741,-0.83643773769741,750,1,0,congruent,1,813.032874467988,2346.62182390996
20,104,3,375,0.5,-0.5,0,4,NaN,0.6,4,564,1,1,564,1,0,1.4,NaN,-0.746520038074667,-0.746520038074667,750,0,0,neutral,1,4026.66155951485,5452.40192571064
20,104,3,376,-0.5,-0.5,0.5,2,1,0.6,2,832,1,0,832,1,0,1.4,0.8,1.10716792337881,1.10716792337881,750,0,0,incongruent,0.1,1813.41966256211,4368.8003457227
20,104,3,377,0.5,-0.5,0.5,1,2,0.6,1,802,1,0,802,0,0,1.6,NaN,0.899665539634021,0.899665539634021,750,0,0,incongruent,0,3439.85084852076,3856.99419185621
20,104,3,378,-0.5,-0.5,0,2,NaN,0.6,2,597,1,1,597,0,0,1.4,0.8,-0.518267415955395,-0.518267415955395,750,0,0,neutral,0,1683.63797901541,3149.67912679304
20,104,3,379,0.5,0.5,-0.5,4,4,0.6,4,532,1,1,532,1,0,1,NaN,-0.967855914069112,-0.967855914069112,750,1,0,congruent,1,2118.43230766109,3992.35556458695
20,104,3,380,-0.5,0.5,-0.5,3,3,0.6,3,495,1,1,495,1,0,1,0.6,-1.22377552068769,-1.22377552068769,750,1,0,congruent,0.1,4173.4247044195,1334.10482347747
20,104,3,381,-0.5,0.5,0.5,4,2,0.6,4,854,1,0,854,0,0,0.8,0.6,1.25933633812499,1.25933633812499,750,0,0,incongruent,0,2089.45595940163,2987.30113802377
20,104,3,382,0.5,0.5,0,2,NaN,0.6,3,535,0,1,NaN,0,0,0.6,NaN,-0.947105675694633,NaN,750,0,1,neutral,0,8002.3686050412,4406.21177964873
20,104,3,383,0.5,0.5,0.5,1,2,0.6,1,808,1,0,808,0,0,0.6,NaN,0.94116601638298,0.94116601638298,750,0,0,incongruent,0,3719.10022031452,2900.99962551404
20,104,3,384,-0.5,0.5,0.5,2,1,0.4,2,870,1,0,870,0,0,0.6,0.4,1.37000427612222,1.37000427612222,750,0,0,incongruent,0,6175.65120575885,4814.28731601138
20,104,3,385,0.5,-0.5,0.5,3,4,0.2,3,726,1,1,726,1,0,0.2,NaN,0.373992834147213,0.373992834147213,750,0,0,incongruent,1,2226.68013433193,2775.15710832836
20,104,3,386,0.5,0.5,0.5,1,2,0.2,1,944,1,0,944,0,0,0.4,NaN,1.88184348935937,1.88184348935937,750,0,0,incongruent,0,2519.89961774214,6012.14397198745
20,104,3,387,-0.5,0.5,0.5,3,1,0,3,759,1,0,759,0,0,0.4,0.2,0.602245456266485,0.602245456266485,750,0,0,incongruent,0,2871.66509217991,3499.05888677991
20,104,3,388,-0.5,-0.5,0,1,NaN,0,1,741,1,1,741,0,0,0.4,0.6,0.477744026019609,0.477744026019609,750,0,0,neutral,0,2598.85774504924,1517.19637227028
20,104,3,389,0.5,0.5,-0.5,2,2,0,2,652,1,1,652,1,0,0.4,NaN,-0.137846379089942,-0.137846379089942,750,1,0,congruent,1,2605.55101870963,2131.49982298417
20,104,3,390,0.5,0.5,0,3,NaN,0.2,3,567,1,1,567,1,0,0.8,NaN,-0.725769799700188,-0.725769799700188,750,0,0,neutral,1,1695.95903228973,5518.22025437414
20,104,3,391,-0.5,-0.5,0.5,2,4,0.4,2,837,1,0,837,0,0,0.8,0.6,1.14175165400295,1.14175165400295,750,0,0,incongruent,0,4052.33784660409,4778.24799395054
20,104,3,392,0.5,0.5,-0.5,3,3,0.4,3,537,1,1,537,1,0,0.8,NaN,-0.93327218344498,-0.93327218344498,750,1,0,congruent,1,3255.05671047716,2923.49478581203
20,104,3,393,-0.5,0.5,0.5,1,4,0.6,4,726,0,1,NaN,0,0,1.2,0.2,0.373992834147213,NaN,750,1,0,incongruent,0,614.696000926132,1409.23859866732
20,104,3,395,0.5,-0.5,-0.5,3,3,0.6,3,607,1,1,607,1,0,0.8,NaN,-0.449099954707131,-0.449099954707131,750,1,0,congruent,1,4506.40902364886,1671.82684050646
20,104,3,396,0.5,-0.5,-0.5,1,1,0.6,1,931,1,0,931,1,0,0.8,NaN,1.79192578973663,1.79192578973663,750,1,0,congruent,1,1609.76091920045,3890.11338728822
20,104,3,397,0.5,0.5,-0.5,4,4,0.6,4,915,1,0,915,0,0,1.2,NaN,1.68125785173941,1.68125785173941,750,1,0,congruent,0,2482.93404606396,4272.25462037834
20,104,3,398,-0.5,-0.5,-0.5,2,2,0.6,2,644,1,1,644,1,0,0.8,0.4,-0.193180348088553,-0.193180348088553,750,1,0,congruent,0.1,5745.56564372731,2320.8366323781
20,104,3,399,0.5,0.5,0.5,1,3,0.6,1,999,1,0,999,0,0,1,NaN,2.26226452622483,2.26226452622483,750,0,0,incongruent,0,13505.3174904397,10807.1607793406
20,104,3,400,-0.5,-0.5,-0.5,2,2,0.4,2,599,1,1,599,0,0,1,0.4,-0.504433923705742,-0.504433923705742,750,1,0,congruent,0,8339.7002650202,2921.86165164319
20,104,3,401,-0.5,0.5,0,1,NaN,0.4,1,537,1,1,537,1,0,0.6,0.2,-0.93327218344498,-0.93327218344498,750,0,0,neutral,0.1,760.888731624148,1207.46405737874
20,104,3,402,-0.5,0.5,-0.5,3,3,0.4,3,604,1,1,604,1,0,0.4,0.2,-0.46985019308161,-0.46985019308161,750,1,0,congruent,0.1,4538.88113378714,2034.60891329569
20,104,3,403,-0.5,-0.5,0.5,4,1,0.4,4,853,1,0,853,1,0,0.6,0.2,1.25241959200017,1.25241959200017,750,0,0,incongruent,0.1,3722.81516667202,6540.63469081153
20,104,3,404,0.5,0.5,0,2,NaN,0.4,2,880,1,0,880,0,0,0.6,NaN,1.43917173737048,1.43917173737048,750,0,0,neutral,0,2798.18719722418,5028.61961245178
20,104,3,406,0.5,0.5,0,2,NaN,0.4,2,573,1,1,573,1,0,0.6,NaN,-0.684269322951229,-0.684269322951229,750,0,0,neutral,1,5627.44036457763,2430.00489117078
20,104,3,407,0.5,-0.5,-0.5,3,3,0.6,3,757,1,0,757,1,0,0.8,NaN,0.588411964016832,0.588411964016832,750,1,0,congruent,1,5340.28718124599,1742.74308087773
20,104,3,408,0.5,-0.5,0.5,4,2,0.6,4,925,1,0,925,0,0,1,NaN,1.75042531298767,1.75042531298767,750,0,0,incongruent,0,4583.25682682597,879.246442293069
20,104,3,409,0.5,-0.5,0,3,NaN,0.6,3,608,1,1,608,1,0,0.8,NaN,-0.442183208582304,-0.442183208582304,750,0,0,neutral,1,2701.49404573402,3230.84577167537
20,104,3,410,-0.5,0.5,-0.5,4,4,0.6,4,550,1,1,550,1,0,1.2,0.4,-0.843354483822237,-0.843354483822237,750,1,0,congruent,0.1,4336.48708924858,1976.85015373995
20,104,3,411,0.5,0.5,0.5,1,2,0.8,1,768,1,0,768,0,0,1.4,NaN,0.664496171389923,0.664496171389923,750,0,0,incongruent,0,3332.0827672396,2023.34035178573
20,104,3,412,-0.5,-0.5,0.5,2,1,0.6,2,989,1,0,989,1,0,1,0.4,2.19309706497656,2.19309706497656,750,0,0,incongruent,0.1,3459.66163721625,1810.36269300173
20,104,3,413,-0.5,-0.5,-0.5,3,3,0.6,3,461,1,1,461,0,0,0.8,0.6,-1.45894488893179,-1.45894488893179,750,1,0,congruent,0,725.175895550315,3850.63939482339
20,104,3,414,-0.5,-0.5,-0.5,4,4,0.6,4,456,1,1,456,0,0,0.8,0.4,-1.49352861955592,-1.49352861955592,750,1,0,congruent,0,4092.5741502998,4163.18188232026
20,104,3,415,0.5,0.5,0.5,3,2,0.6,4,954,0,0,NaN,0,0,0.4,NaN,1.95101095060764,NaN,750,0,1,incongruent,0,12637.9013799635,3850.13142901184
20,104,3,416,-0.5,0.5,-0.5,4,4,0.4,4,575,1,1,575,1,0,0.2,0.6,-0.670435830701576,-0.670435830701576,750,1,0,congruent,0.1,3300.20791897747,1233.68935740594
20,104,3,417,0.5,-0.5,0,2,NaN,0.6,2,850,1,0,850,0,0,0.4,NaN,1.23166935362569,1.23166935362569,750,0,0,neutral,0,1268.29118029414,2983.89889787571
20,104,3,419,-0.5,0.5,0.5,1,3,0.6,1,908,1,0,908,0,0,0.4,0.8,1.63284062886562,1.63284062886562,750,0,0,incongruent,0,1205.56168060742,3127.02304288102
20,104,3,420,0.5,0.5,0.5,3,4,0.4,4,711,0,1,NaN,0,0,0.4,NaN,0.270241642274817,NaN,750,1,0,incongruent,0,3765.83247238031,1541.181902986
20,104,3,422,-0.5,0.5,-0.5,2,2,0.2,2,636,1,1,636,1,0,0.2,0.8,-0.248514317087165,-0.248514317087165,750,1,0,congruent,0.1,2737.74667285114,1090.04776351995
20,104,3,423,-0.5,-0.5,0,3,NaN,0.4,3,711,1,1,711,0,0,0.4,0.4,0.270241642274817,0.270241642274817,750,0,0,neutral,0,2433.49274297725,759.188339168618
20,104,3,424,0.5,0.5,-0.5,1,1,0.4,2,706,0,1,NaN,0,0,0.2,NaN,0.235657911650685,NaN,750,0,1,congruent,0,3864.9330432869,1884.09051445653
20,104,3,425,0.5,-0.5,-0.5,4,4,0.4,4,628,1,1,628,0,0,0.2,NaN,-0.303848286085776,-0.303848286085776,750,1,0,congruent,0,3986.62881985263,3233.21604797212
20,104,3,426,-0.5,0.5,-0.5,3,3,0.4,3,551,1,1,551,1,0,0.2,0.8,-0.83643773769741,-0.83643773769741,750,1,0,congruent,0.1,4074.72558908847,6661.91625243481
20,104,3,428,-0.5,0.5,0,2,NaN,0.4,2,693,1,1,693,1,0,0.2,0.8,0.145740212027941,0.145740212027941,750,0,0,neutral,0.1,2059.06209630689,6007.04601805238
20,104,3,429,0.5,-0.5,-0.5,4,4,0.6,4,589,1,1,589,0,0,0.4,NaN,-0.573601384954006,-0.573601384954006,750,1,0,congruent,0,4609.03825203987,2160.43632181415
20,104,3,431,-0.5,0.5,0.5,3,2,0.4,4,989,0,0,NaN,0,0,0.4,0.6,2.19309706497656,NaN,750,0,1,incongruent,0,6122.29018603485,2842.04457292173
20,104,3,432,-0.5,-0.5,0,4,NaN,0.4,4,861,1,0,861,0,0,0.2,0.2,1.30775356099878,1.30775356099878,750,0,0,neutral,0,4451.52718532817,1476.93039146009
20,104,3,434,0.5,-0.5,0.5,3,4,0.4,3,904,1,0,904,1,0,0.2,NaN,1.60517364436632,1.60517364436632,750,0,0,incongruent,1,11825.1743473552,4237.6251440085
20,104,3,435,0.5,0.5,0.5,4,3,0.4,4,761,1,0,761,0,0,0.6,NaN,0.616078948516138,0.616078948516138,750,0,0,incongruent,0,6645.30368666104,11053.0244719373
20,104,3,436,-0.5,-0.5,-0.5,2,2,0.2,2,664,1,1,664,0,0,0.6,0.4,-0.0548454255920249,-0.0548454255920249,750,1,0,congruent,0,2205.63807178555,2756.54108505635
20,104,3,437,-0.5,-0.5,0.5,1,3,0.2,1,842,1,0,842,0,0,0.6,0.2,1.17633538462708,1.17633538462708,750,0,0,incongruent,0,2423.21631496533,4001.56263573596
20,104,3,438,0.5,0.5,-0.5,2,2,0.2,2,640,1,1,640,1,0,0.6,NaN,-0.220847332587859,-0.220847332587859,750,1,0,congruent,1,3797.90712422986,1918.80820922195
20,104,3,439,-0.5,-0.5,0.5,3,1,0.4,3,873,1,0,873,0,0,0.8,0.2,1.3907545144967,1.3907545144967,750,0,0,incongruent,0,1872.613578953,3239.60303011778
20,104,3,440,0.5,-0.5,0.5,4,2,0.4,4,885,1,0,885,1,0,0.4,NaN,1.47375546799461,1.47375546799461,750,0,0,incongruent,1,1264.78105080266,3487.85385633995
20,104,3,441,-0.5,-0.5,0.5,3,1,0.4,3,663,1,1,663,0,0,0.8,0.2,-0.0617621717168513,-0.0617621717168513,750,0,0,incongruent,0,4771.11627740316,2161.50222679103
20,104,3,442,0.5,0.5,0,4,NaN,0.4,4,568,1,1,568,1,0,0.8,NaN,-0.718853053575361,-0.718853053575361,750,0,0,neutral,1,4305.30962455024,1625.87311204474
20,104,3,443,-0.5,-0.5,-0.5,1,1,0.4,1,632,1,1,632,1,0,1.2,0.2,-0.27618130158647,-0.27618130158647,750,1,0,congruent,0.1,4487.83228167882,3783.44926044765
20,104,3,444,-0.5,0.5,0.5,4,2,0.4,4,845,1,0,845,0,0,1,0.6,1.19708562300156,1.19708562300156,750,0,0,incongruent,0,2704.65853135344,2391.45795253857
20,104,3,445,-0.5,0.5,-0.5,1,1,0.4,1,986,1,0,986,0,0,1,0.4,2.17234682660208,2.17234682660208,750,1,0,congruent,0,8814.6942509324,4111.18215111024
20,104,3,446,0.5,-0.5,-0.5,2,2,0.4,2,851,1,0,851,0,0,0.6,NaN,1.23858609975052,1.23858609975052,750,1,0,congruent,0,4946.89373744508,4326.01238237958
20,104,3,447,-0.5,0.5,0,3,NaN,0.4,3,833,1,0,833,0,0,0.6,0.2,1.11408466950364,1.11408466950364,750,0,0,neutral,0,5316.03770679251,5034.63748244934
20,104,3,449,0.5,-0.5,0,4,NaN,0.4,4,581,1,1,581,0,0,0.2,NaN,-0.628935353952618,-0.628935353952618,750,0,0,neutral,0,8048.21339054582,1601.6020916587
20,104,3,450,-0.5,0.5,-0.5,1,1,0.4,1,573,1,1,573,1,0,0.2,0.2,-0.684269322951229,-0.684269322951229,750,1,0,congruent,0.1,1937.59914386529,781.179228675028
20,104,4,451,-0.5,0.5,-0.5,4,4,0.4,4,613,1,1,613,1,0,0.4,0.4,-0.407599477958172,-0.407599477958172,750,1,0,congruent,0.1,2762.49642706674,778.423664338557
20,104,4,452,0.5,0.5,0,1,NaN,0.6,1,810,1,0,810,0,0,0.6,NaN,0.954999508632632,0.954999508632632,750,0,0,neutral,0,3580.83890089112,2614.72579204614
20,104,4,453,-0.5,0.5,-0.5,2,2,0.6,2,714,1,1,714,1,0,0.6,0.6,0.290991880649296,0.290991880649296,750,1,0,congruent,0.1,6931.5200069744,2163.51522553823
20,104,4,454,0.5,0.5,0.5,3,4,0.8,4,689,0,1,NaN,0,0,0.6,NaN,0.118073227528636,NaN,750,1,0,incongruent,0,6138.94304957568,1842.11724570665
20,104,4,455,0.5,-0.5,0,4,NaN,0.6,4,735,1,1,735,0,0,0.6,NaN,0.436243549270651,0.436243549270651,750,0,0,neutral,0,6262.2525510864,7226.28324151297
20,104,4,456,-0.5,-0.5,-0.5,2,2,0.6,2,776,1,0,776,1,0,0.4,0.2,0.719830140388534,0.719830140388534,750,1,0,congruent,0.1,2831.75835387342,1132.10154084479
20,104,4,457,-0.5,0.5,0,1,NaN,0.6,1,428,1,1,428,1,0,0.4,0.8,-1.68719751105106,-1.68719751105106,750,0,0,neutral,0.1,10433.7462515686,2182.1479809269
20,104,4,458,-0.5,-0.5,-0.5,3,3,0.6,3,595,1,1,595,1,0,0.6,0.4,-0.532100908205048,-0.532100908205048,750,1,0,congruent,0.1,1201.69265361379,2298.61665312291
20,104,4,461,0.5,-0.5,0,1,NaN,0.4,1,477,1,1,477,0,0,0.6,NaN,-1.34827695093457,-1.34827695093457,750,0,0,neutral,0,1857.44769630272,4770.02495526753
20,104,4,463,-0.5,-0.5,0,2,NaN,0.4,2,641,1,1,641,0,0,0.4,0.6,-0.213930586463033,-0.213930586463033,750,0,0,neutral,0,10335.4011225011,7568.42137343808
20,104,4,464,0.5,-0.5,-0.5,3,3,0.4,3,744,1,1,744,1,0,0.2,NaN,0.498494264394089,0.498494264394089,750,1,0,congruent,1,1605.8452856484,5676.56216295047
20,104,4,465,-0.5,0.5,0,2,NaN,0.4,2,663,1,1,663,1,0,0.6,1,-0.0617621717168513,-0.0617621717168513,750,0,0,neutral,0.1,6747.10615089358,1222.07695282984
20,104,4,466,0.5,-0.5,-0.5,4,4,0.6,4,490,1,1,490,0,0,0.8,NaN,-1.25835925131182,-1.25835925131182,750,1,0,congruent,0,3388.6354164338,1450.36523243384
20,104,4,467,-0.5,0.5,-0.5,1,1,0.6,1,491,1,1,491,1,0,0.8,1,-1.251442505187,-1.251442505187,750,1,0,congruent,0.1,1852.42380446563,1748.63297123496
20,104,4,468,0.5,-0.5,0,3,NaN,0.6,3,740,1,1,740,1,0,0.8,NaN,0.470827279894783,0.470827279894783,750,0,0,neutral,1,10652.6227440883,2307.69812666492
20,104,4,469,-0.5,0.5,-0.5,1,1,0.6,1,585,1,1,585,1,0,1.2,1,-0.601268369453312,-0.601268369453312,750,1,0,congruent,0.1,4625.75538327385,1428.48573021319
20,104,4,470,0.5,0.5,-0.5,4,4,0.8,4,498,1,1,498,1,0,1,NaN,-1.20302528231321,-1.20302528231321,750,1,0,congruent,1,2256.34063469471,1641.1311505668
20,104,4,471,-0.5,0.5,0,2,NaN,1,2,576,1,1,576,1,0,1.2,1,-0.66351908457675,-0.66351908457675,750,0,0,neutral,0.1,2000.65412047243,4105.79558192439
20,104,4,472,0.5,-0.5,0.5,4,1,1,3,977,0,0,NaN,1,0,1.4,NaN,2.11009611147864,NaN,750,0,1,incongruent,1,7169.02955776952,7752.24146725572
20,104,4,473,-0.5,-0.5,0,3,NaN,1,3,861,1,0,861,1,0,1.6,0.6,1.30775356099878,1.30775356099878,750,0,0,neutral,0.1,5419.39795146819,8362.80977345245
20,104,4,474,-0.5,0.5,-0.5,1,1,1,1,897,1,0,897,0,0,1.4,1,1.55675642149253,1.55675642149253,750,1,0,congruent,0,3166.2750851845,1772.93474684797
20,104,4,475,0.5,-0.5,0.5,4,3,0.8,4,943,1,0,943,0,0,1.2,NaN,1.87492674323455,1.87492674323455,750,0,0,incongruent,0,2365.79878435654,7020.90605120422
20,104,4,476,-0.5,-0.5,0,1,NaN,0.8,1,627,1,1,627,1,0,0.8,0.8,-0.310765032210602,-0.310765032210602,750,0,0,neutral,0.1,3472.4991908276,2062.13429300495
20,104,4,477,-0.5,-0.5,-0.5,4,4,0.8,4,510,1,1,510,1,0,0.8,0.8,-1.12002432881529,-1.12002432881529,750,1,0,congruent,0.1,2665.89801164774,1758.39603544931
20,104,4,478,0.5,-0.5,-0.5,3,3,0.8,3,541,1,1,541,1,0,0.6,NaN,-0.905605198945675,-0.905605198945675,750,1,0,congruent,1,5787.69608109147,2011.32022550646
20,104,4,480,-0.5,-0.5,-0.5,3,3,0.8,3,540,1,1,540,1,0,0.8,0.8,-0.912521945070501,-0.912521945070501,750,1,0,congruent,0.1,3947.23690581657,5023.01469107848
20,104,4,481,-0.5,-0.5,-0.5,1,1,0.8,1,600,1,1,600,0,0,1,0.8,-0.497517177580916,-0.497517177580916,750,1,0,congruent,0,2000.18953053906,1748.60539923112
20,104,4,482,-0.5,0.5,0.5,2,3,0.8,4,706,0,1,NaN,0,0,0.8,0.8,0.235657911650685,NaN,750,0,1,incongruent,0,2067.20423966102,847.911538795467
20,104,4,484,-0.5,-0.5,0,2,NaN,0.4,2,524,1,1,524,0,0,0.2,0.8,-1.02318988306772,-1.02318988306772,750,0,0,neutral,0,1453.30679501636,1121.32671771476
20,104,4,485,0.5,0.5,0.5,4,3,0.4,4,755,1,0,755,0,0,0.2,NaN,0.574578471767179,0.574578471767179,750,0,0,incongruent,0,1348.96426262294,4010.34928828601
20,104,4,486,0.5,-0.5,-0.5,2,2,0.2,2,575,1,1,575,1,0,0,NaN,-0.670435830701576,-0.670435830701576,750,1,0,congruent,1,2060.24296546826,2053.52540512128
20,104,4,487,-0.5,-0.5,0,3,NaN,0.2,3,570,1,1,570,0,0,0.4,0.6,-0.705019561325708,-0.705019561325708,750,0,0,neutral,0,9620.54892179101,7166.22892073748
20,104,4,488,-0.5,-0.5,-0.5,2,2,0.2,2,442,1,1,442,0,0,0.4,0.4,-1.59036306530349,-1.59036306530349,750,1,0,congruent,0,2253.51963545668,598.988017629574
20,104,4,489,0.5,-0.5,-0.5,1,1,0.2,1,491,1,1,491,1,0,0.4,NaN,-1.251442505187,-1.251442505187,750,1,0,congruent,1,6861.61058936994,1312.92288089155
20,104,4,490,0.5,0.5,0.5,4,2,0.2,4,719,1,1,719,1,0,0.8,NaN,0.325575611273428,0.325575611273428,750,0,0,incongruent,1,8710.75558116679,2928.58084194883
20,104,4,491,0.5,0.5,-0.5,1,1,0.2,1,565,1,1,565,1,0,1.2,NaN,-0.739603291949841,-0.739603291949841,750,1,0,congruent,1,6164.53200545351,4007.54896496009
20,104,4,492,-0.5,0.5,0.5,3,2,0.4,3,897,1,0,897,0,0,1.2,0.6,1.55675642149253,1.55675642149253,750,0,0,incongruent,0,11037.8467567759,2301.26741935941
20,104,4,493,0.5,-0.5,0.5,2,3,0.4,1,794,0,0,NaN,1,0,1.2,NaN,0.84433157063541,NaN,750,0,1,incongruent,1,8650.47043246276,2445.45069515416
20,104,4,494,-0.5,0.5,-0.5,1,1,0.4,1,552,1,1,552,1,0,1.6,0.4,-0.829520991572584,-0.829520991572584,750,1,0,congruent,0.1,7255.39128792204,1064.37109576621
20,104,4,495,-0.5,-0.5,-0.5,4,4,0.6,4,445,1,1,445,0,0,1.4,0.2,-1.56961282692901,-1.56961282692901,750,1,0,congruent,0,10260.3538635608,687.685727600739
20,104,4,496,-0.5,0.5,-0.5,3,3,0.6,3,564,1,1,564,1,0,1,0.4,-0.746520038074667,-0.746520038074667,750,1,0,congruent,0.1,9027.83469713258,7951.00327561032
20,104,4,497,0.5,0.5,0,1,NaN,0.8,1,501,1,1,501,1,0,0.8,NaN,-1.18227504393873,-1.18227504393873,750,0,0,neutral,1,6011.46798987111,1234.03365704152
20,104,4,498,-0.5,0.5,0.5,2,4,0.8,3,814,0,0,NaN,0,0,1.2,0.4,0.982666493131938,NaN,750,0,1,incongruent,0,1743.32613202997,2505.70669330234
20,104,4,500,0.5,0.5,0.5,1,2,0.6,1,483,1,1,483,1,0,0.6,NaN,-1.30677647418561,-1.30677647418561,750,0,0,incongruent,1,11253.8844098847,2958.53229995164
20,104,4,501,0.5,-0.5,0,2,NaN,0.6,2,694,1,1,694,1,0,1,NaN,0.152656958152768,0.152656958152768,750,0,0,neutral,1,4132.30711908945,1633.63557907253
20,104,4,502,0.5,0.5,-0.5,1,1,0.6,1,825,1,0,825,0,0,1.2,NaN,1.05875070050503,1.05875070050503,750,1,0,congruent,0,4066.19215568277,1438.11031053585
20,104,4,503,-0.5,0.5,-0.5,2,2,0.4,2,568,1,1,568,1,0,0.8,0.4,-0.718853053575361,-0.718853053575361,750,1,0,congruent,0.1,3177.80320697118,1415.91889151976
20,104,4,504,-0.5,-0.5,-0.5,3,3,0.4,3,582,1,1,582,1,0,1,0,-0.622018607827791,-0.622018607827791,750,1,0,congruent,0.1,2011.83303916479,4436.0135033574
20,104,4,505,-0.5,-0.5,-0.5,1,1,0.4,1,591,1,1,591,0,0,1.2,0.2,-0.559767892704354,-0.559767892704354,750,1,0,congruent,0,6836.58857652582,2178.363738847
20,104,4,506,0.5,-0.5,0,2,NaN,0.4,2,808,1,0,808,0,0,0.8,NaN,0.94116601638298,0.94116601638298,750,0,0,neutral,0,7825.08624977403,1376.45542423074
20,104,4,507,0.5,-0.5,-0.5,4,4,0.4,4,546,1,1,546,0,0,0.4,NaN,-0.871021468321543,-0.871021468321543,750,1,0,congruent,0,1672.45050952172,5228.10249611623
20,104,4,508,0.5,0.5,-0.5,2,2,0.4,2,494,1,1,494,1,0,0.4,NaN,-1.23069226681252,-1.23069226681252,750,1,0,congruent,1,4861.66081901899,2421.41555002738
20,104,4,509,-0.5,-0.5,0.5,4,1,0.6,4,825,1,0,825,0,0,0.6,0.2,1.05875070050503,1.05875070050503,750,0,0,incongruent,0,3921.78205792358,3559.08365393082
20,104,4,510,-0.5,-0.5,0,1,NaN,0.6,1,492,1,1,492,1,0,0.4,0.2,-1.24452575906217,-1.24452575906217,750,0,0,neutral,0.1,5326.69701274622,1901.73444668725
20,104,4,511,0.5,-0.5,0.5,3,4,0.6,3,847,1,0,847,1,0,0.6,NaN,1.21091911525121,1.21091911525121,750,0,0,incongruent,1,11544.3267242962,776.91456055035
20,104,4,512,-0.5,-0.5,0.5,2,1,0.6,2,533,1,1,533,1,0,1,0.4,-0.960939167944286,-0.960939167944286,750,0,0,incongruent,0.1,2719.13619877676,1177.32257933388
20,104,4,515,0.5,0.5,-0.5,1,1,0.6,1,738,1,1,738,1,0,1.6,NaN,0.45699378764513,0.45699378764513,750,1,0,congruent,1,2938.29666887508,3080.5421531896
20,104,4,517,0.5,-0.5,0.5,1,2,0.6,1,989,1,0,989,1,0,1.4,NaN,2.19309706497656,2.19309706497656,750,0,0,incongruent,1,4755.06142294412,2926.91192474582
20,104,4,518,-0.5,-0.5,0,2,NaN,0.6,2,511,1,1,511,0,0,1.6,0.6,-1.11310758269047,-1.11310758269047,750,0,0,neutral,0,3317.65809501394,1351.12807447024
20,104,4,519,0.5,-0.5,0.5,4,2,0.6,4,929,1,0,929,1,0,1.2,NaN,1.77809229748698,1.77809229748698,750,0,0,incongruent,1,2847.0439410791,3251.19439901478
20,104,4,520,-0.5,0.5,0.5,1,3,0.6,2,680,0,1,NaN,0,0,1.2,0.6,0.0558225124051978,NaN,750,0,1,incongruent,0,8217.37354166676,806.63446702761
20,104,4,521,-0.5,0.5,-0.5,2,2,0.6,2,672,1,1,672,1,0,0.8,0.4,0.000488543406586449,0.000488543406586449,750,1,0,congruent,0.1,3768.57432371372,5217.16722219832
20,104,4,522,-0.5,0.5,-0.5,1,1,0.6,1,547,1,1,547,1,0,1,0.4,-0.864104722196716,-0.864104722196716,750,1,0,congruent,0.1,5912.79384560934,2005.01765615794
20,104,4,523,-0.5,-0.5,0.5,4,2,0.6,4,651,1,1,651,0,0,0.8,0.4,-0.144763125214768,-0.144763125214768,750,0,0,incongruent,0,2995.21769432866,2598.43499690826
20,104,4,524,-0.5,-0.5,0.5,3,1,0.6,3,801,1,0,801,1,0,0.8,0.4,0.892748793509195,0.892748793509195,750,0,0,incongruent,0.1,8992.03846390904,3538.08012648162
20,104,4,526,-0.5,0.5,0.5,3,1,0.6,3,914,1,0,914,0,0,1,0.6,1.67434110561458,1.67434110561458,750,0,0,incongruent,0,3648.65412365582,996.067401142063
20,104,4,527,0.5,0.5,-0.5,4,4,0.4,4,563,1,1,563,1,0,0.8,NaN,-0.753436784199493,-0.753436784199493,750,1,0,congruent,1,4020.54816133501,490.532366337196
20,104,4,528,-0.5,0.5,0.5,1,3,0.6,1,978,1,0,978,0,0,1,0.6,2.11701285760347,2.11701285760347,750,0,0,incongruent,0,3461.27856810634,1236.33083895843
20,104,4,529,-0.5,-0.5,0,2,NaN,0.6,2,669,1,1,669,1,0,1,0.6,-0.0202616949678928,-0.0202616949678928,750,0,0,neutral,0.1,3372.07123991839,1915.55176001577
20,104,4,530,0.5,0.5,0.5,3,1,0.6,3,752,1,0,752,0,0,1,NaN,0.5538282333927,0.5538282333927,750,0,0,incongruent,0,9327.92377687042,4945.539693441
20,104,4,531,-0.5,0.5,-0.5,4,4,0.4,4,483,1,1,483,1,0,0.6,0.4,-1.30677647418561,-1.30677647418561,750,1,0,congruent,0.1,2825.18994093034,6456.7133064938
20,104,4,532,0.5,-0.5,0.5,3,2,0.4,1,876,0,0,NaN,0,0,0.8,NaN,1.41150475287118,NaN,750,0,1,incongruent,0,1387.61290590477,3022.8429251329
20,104,4,533,-0.5,-0.5,-0.5,4,4,0.4,4,723,1,1,723,0,0,0.4,0.6,0.353242595772734,0.353242595772734,750,1,0,congruent,0,3935.52308222379,1963.82670794101
20,104,4,534,0.5,0.5,0,2,NaN,0.4,2,509,1,1,509,1,0,0.4,NaN,-1.12694107494012,-1.12694107494012,750,0,0,neutral,1,2791.59944026526,2370.51097352722
20,104,4,535,-0.5,-0.5,0.5,1,4,0.6,4,607,0,1,NaN,0,0,0.6,0.4,-0.449099954707131,NaN,750,1,0,incongruent,0,3530.24088819937,2726.76954843161
20,104,4,536,-0.5,0.5,0,3,NaN,0.6,3,650,1,1,650,1,0,0.6,0.6,-0.151679871339595,-0.151679871339595,750,0,0,neutral,0.1,5029.61952380039,3843.15612028701
20,104,4,537,-0.5,0.5,0.5,1,4,0.6,1,504,1,1,504,1,0,0.6,0.6,-1.16152480556425,-1.16152480556425,750,0,0,incongruent,0.1,8706.06989422912,2843.67024102632
20,104,4,539,-0.5,0.5,0,4,NaN,0.8,4,525,1,1,525,1,0,0.8,0.6,-1.0162731369429,-1.0162731369429,750,0,0,neutral,0.1,3529.42229783119,2123.50767227813
20,104,4,540,-0.5,0.5,-0.5,3,3,1,3,570,1,1,570,1,0,0.6,0.8,-0.705019561325708,-0.705019561325708,750,1,0,congruent,0.1,11799.4891333913,2125.57235651919
20,104,4,541,-0.5,-0.5,0,4,NaN,1,4,494,1,1,494,1,0,0.8,0.4,-1.23069226681252,-1.23069226681252,750,0,0,neutral,0.1,24361.4290820741,1411.54909324933
20,104,4,542,-0.5,0.5,-0.5,2,2,1,2,610,1,1,610,1,0,0.8,1,-0.428349716332652,-0.428349716332652,750,1,0,congruent,0.1,5052.9117270725,2065.56794335451
20,104,4,543,-0.5,-0.5,-0.5,4,4,1,4,506,1,1,506,1,0,0.8,0.6,-1.1476913133146,-1.1476913133146,750,1,0,congruent,0.1,3383.49276690887,4555.83689668982
20,104,4,544,0.5,-0.5,0.5,1,3,1,3,989,0,0,NaN,1,0,1,NaN,2.19309706497656,NaN,750,1,0,incongruent,1,1718.90028182927,5677.71173210314
20,104,4,545,-0.5,-0.5,-0.5,2,2,1,2,923,1,0,923,1,0,1.2,0.6,1.73659182073802,1.73659182073802,750,1,0,congruent,0.1,5984.55375097479,4755.44542618138
20,104,4,546,-0.5,0.5,-0.5,1,1,1,1,615,1,1,615,1,0,1.2,1,-0.39376598570852,-0.39376598570852,750,1,0,congruent,0.1,12356.7440419381,5139.19592826822
20,104,4,547,0.5,-0.5,-0.5,3,3,1,3,658,1,1,658,1,0,1.2,NaN,-0.0963459023409834,-0.0963459023409834,750,1,0,congruent,1,9515.24077000543,763.676082139019
20,104,4,548,-0.5,-0.5,0,2,NaN,1,2,725,1,1,725,1,0,1.4,0.6,0.367076088022387,0.367076088022387,750,0,0,neutral,0.1,4690.82943026962,2901.83776830744
20,104,4,549,0.5,0.5,-0.5,1,1,1,1,566,1,1,566,1,0,1.4,NaN,-0.732686545825014,-0.732686545825014,750,1,0,congruent,1,3598.75867647462,4200.43450571004
20,104,4,550,-0.5,0.5,0,3,NaN,1,2,610,0,1,NaN,0,0,1.4,1,-0.428349716332652,NaN,750,0,1,neutral,0,5653.85661827929,5336.42545897713
20,104,4,551,-0.5,-0.5,-0.5,1,1,0.8,1,654,1,1,654,1,0,1.2,0.8,-0.124012886840289,-0.124012886840289,750,1,0,congruent,0.1,2497.99967315717,630.397325255006
20,104,4,553,0.5,0.5,0,3,NaN,0.8,3,736,1,1,736,1,0,1.2,NaN,0.443160295395477,0.443160295395477,750,0,0,neutral,1,9289.07881714887,4358.74976085489
20,104,4,554,0.5,0.5,-0.5,1,1,0.8,1,508,1,1,508,1,0,1.4,NaN,-1.13385782106495,-1.13385782106495,750,1,0,congruent,1,5198.00586920299,1360.93335346605
20,104,4,555,-0.5,0.5,0,2,NaN,0.8,2,563,1,1,563,1,0,1.4,0.8,-0.753436784199493,-0.753436784199493,750,0,0,neutral,0.1,2970.67923210928,1501.36581207881
20,104,4,556,-0.5,0.5,-0.5,4,4,0.8,4,478,1,1,478,1,0,1.6,0.8,-1.34136020480974,-1.34136020480974,750,1,0,congruent,0.1,7884.19406206236,2582.32780731335
20,104,4,557,-0.5,0.5,0.5,3,2,1,3,619,1,1,619,1,0,1.6,0.8,-0.366099001209214,-0.366099001209214,750,0,0,incongruent,0.1,7214.31230773462,1738.03344029879
20,104,4,558,-0.5,0.5,0,4,NaN,1,4,638,1,1,638,1,0,1.4,0.8,-0.234680824837512,-0.234680824837512,750,0,0,neutral,0.1,8234.69773157237,721.688591289742
20,104,4,559,0.5,0.5,-0.5,1,1,1,1,543,1,1,543,1,0,1.2,NaN,-0.891771706696022,-0.891771706696022,750,1,0,congruent,1,3422.01572093923,2167.36890987983
20,104,4,560,0.5,-0.5,-0.5,3,3,1,3,513,1,1,513,1,0,1.2,NaN,-1.09927409044081,-1.09927409044081,750,1,0,congruent,1,5065.67030458721,2377.95690772564
20,104,4,561,0.5,0.5,-0.5,1,1,1,1,532,1,1,532,1,0,1.4,NaN,-0.967855914069112,-0.967855914069112,750,1,0,congruent,1,774.432477564504,627.606905437423
20,104,4,562,0.5,-0.5,-0.5,4,4,1,4,487,1,1,487,1,0,1.6,NaN,-1.2791094896863,-1.2791094896863,750,1,0,congruent,1,6333.19856807503,1381.62139300599
20,104,4,563,-0.5,-0.5,-0.5,3,3,1,3,625,1,1,625,1,0,1.8,1,-0.324598524460255,-0.324598524460255,750,1,0,congruent,0.1,7118.45177928198,4414.123765629
20,104,4,564,0.5,-0.5,0,1,NaN,1,1,546,1,1,546,1,0,1.8,NaN,-0.871021468321543,-0.871021468321543,750,0,0,neutral,1,3370.60529472781,2825.79022804987
20,104,4,565,-0.5,-0.5,-0.5,3,3,1,3,526,1,1,526,1,0,1.8,1,-1.00935639081807,-1.00935639081807,750,1,0,congruent,0.1,4032.03453685237,694.483987836108
20,104,4,566,-0.5,0.5,-0.5,2,2,1,2,640,1,1,640,1,0,1.6,0.8,-0.220847332587859,-0.220847332587859,750,1,0,congruent,0.1,1894.20472026559,6205.854943664
20,104,4,567,-0.5,-0.5,0.5,4,1,1,4,649,1,1,649,1,0,1.4,1,-0.158596617464421,-0.158596617464421,750,0,0,incongruent,0.1,15711.5209472177,3277.64869085336
20,104,4,568,0.5,0.5,-0.5,3,3,1,3,584,1,1,584,1,0,1.2,NaN,-0.608185115578139,-0.608185115578139,750,1,0,congruent,1,4099.44647144877,5976.1460771713
20,104,4,569,0.5,0.5,0.5,2,4,1,2,819,1,0,819,0,0,1.4,NaN,1.01725022375607,1.01725022375607,750,0,0,incongruent,0,1667.93740518219,1658.8852170669
20,104,4,570,0.5,0.5,0,1,NaN,0.8,1,551,1,1,551,1,0,1,NaN,-0.83643773769741,-0.83643773769741,750,0,0,neutral,1,3715.21970388251,426.744984567891
20,104,4,572,0.5,-0.5,0,1,NaN,0.8,1,502,1,1,502,1,0,1,NaN,-1.1753582978139,-1.1753582978139,750,0,0,neutral,1,5847.39286110669,4192.37813307169
20,104,4,573,-0.5,-0.5,0.5,2,4,0.8,4,606,0,1,NaN,1,0,1.2,0.8,-0.456016700831957,NaN,750,1,0,incongruent,0.1,3176.43082222026,2452.34654285134
20,104,4,574,0.5,0.5,-0.5,3,3,0.8,3,560,1,1,560,1,0,1,NaN,-0.774187022573973,-0.774187022573973,750,1,0,congruent,1,1841.85943341474,3768.8079568242
20,104,4,575,0.5,-0.5,0,2,NaN,0.8,1,493,0,1,NaN,1,0,1.4,NaN,-1.23760901293734,NaN,750,0,1,neutral,1,15078.6676147218,1160.60701771804
20,104,4,576,-0.5,0.5,-0.5,1,1,0.8,1,596,1,1,596,1,0,1.4,1,-0.525184162080222,-0.525184162080222,750,1,0,congruent,0.1,2734.72771181813,2872.35822031584
20,104,4,577,0.5,0.5,-0.5,2,2,0.8,2,549,1,1,549,1,0,1.6,NaN,-0.850271229947063,-0.850271229947063,750,1,0,congruent,1,9441.74698839751,4450.18926214711
20,104,4,578,-0.5,0.5,0,3,NaN,0.8,3,691,1,1,691,1,0,1.6,1,0.131906719778288,0.131906719778288,750,0,0,neutral,0.1,6077.74324960108,3630.66711942625
20,104,4,579,-0.5,-0.5,-0.5,4,4,1,4,538,1,1,538,1,0,1.6,0.8,-0.926355437320154,-0.926355437320154,750,1,0,congruent,0.1,3527.24091478201,5697.64578502063
20,104,4,580,0.5,0.5,-0.5,2,2,1,2,709,1,1,709,1,0,1.4,NaN,0.256408150025164,0.256408150025164,750,1,0,congruent,1,13299.3396720575,3789.88903734137
20,104,4,581,0.5,-0.5,0,3,NaN,1,3,600,1,1,600,1,0,1.4,NaN,-0.497517177580916,-0.497517177580916,750,0,0,neutral,1,4330.82223361248,780.189758619504
20,104,4,582,-0.5,-0.5,-0.5,2,2,1,2,559,1,1,559,1,0,1.6,0.8,-0.781103768698799,-0.781103768698799,750,1,0,congruent,0.1,5533.24087178083,3246.94251216112
20,104,4,583,0.5,0.5,-0.5,4,4,1,4,451,1,1,451,1,0,1.4,NaN,-1.52811235018005,-1.52811235018005,750,1,0,congruent,1,2052.58631022786,5323.05754959085
20,104,4,584,0.5,-0.5,0.5,3,1,1,3,702,1,1,702,1,0,1.6,NaN,0.207990927151379,0.207990927151379,750,0,0,incongruent,1,1670.86475748238,2149.88698032242
20,104,4,585,-0.5,0.5,0.5,4,3,1,4,868,1,0,868,0,0,1.8,1,1.35617078387256,1.35617078387256,750,0,0,incongruent,0,7533.09373245233,6447.86323775871
20,104,4,586,0.5,-0.5,0,2,NaN,0.8,1,440,0,1,NaN,0,0,1.4,NaN,-1.60419655755314,NaN,750,0,1,neutral,0,22839.8818362471,1899.53261169025
20,104,4,587,0.5,-0.5,-0.5,1,1,0.8,1,575,1,1,575,1,0,1,NaN,-0.670435830701576,-0.670435830701576,750,1,0,congruent,1,1510.12683036283,4982.79163883445
20,104,4,588,-0.5,0.5,0.5,4,2,0.8,4,575,1,1,575,1,0,1.2,0.8,-0.670435830701576,-0.670435830701576,750,0,0,incongruent,0.1,4904.10600259586,2998.5673502752
20,104,4,589,0.5,-0.5,-0.5,1,1,0.8,1,518,1,1,518,1,0,1,NaN,-1.06469035981668,-1.06469035981668,750,1,0,congruent,1,1260.12003393101,1896.99984525966
20,104,4,590,0.5,-0.5,0.5,3,4,0.8,3,598,1,1,598,0,0,1,NaN,-0.511350669830569,-0.511350669830569,750,0,0,incongruent,0,1145.0528614965,2930.40745510672
20,104,4,591,0.5,-0.5,0.5,4,2,0.8,4,595,1,1,595,1,0,1,NaN,-0.532100908205048,-0.532100908205048,750,0,0,incongruent,1,16065.1990872426,971.149253971933
20,104,4,593,0.5,-0.5,-0.5,2,2,0.8,2,470,1,1,470,1,0,1.2,NaN,-1.39669417380835,-1.39669417380835,750,1,0,congruent,1,3989.63432183708,2024.58469822892
20,104,4,594,-0.5,-0.5,0.5,3,1,0.8,3,519,1,1,519,1,0,1.4,0.8,-1.05777361369186,-1.05777361369186,750,0,0,incongruent,0.1,4453.93596806279,2035.96902186888
20,104,4,595,0.5,0.5,-0.5,2,2,0.8,2,583,1,1,583,1,0,1.2,NaN,-0.615101861702965,-0.615101861702965,750,1,0,congruent,1,4374.2580843559,4263.01445930647
20,104,4,596,0.5,0.5,0,4,NaN,0.8,4,527,1,1,527,1,0,1.6,NaN,-1.00243964469324,-1.00243964469324,750,0,0,neutral,1,2975.87722803092,2411.2406961168
20,104,4,597,-0.5,0.5,-0.5,3,3,0.8,3,499,1,1,499,1,0,1.6,0.8,-1.19610853618838,-1.19610853618838,750,1,0,congruent,0.1,3547.7341610762,2447.93917586013
20,104,4,598,0.5,0.5,0,4,NaN,1,4,480,1,1,480,1,0,1.6,NaN,-1.32752671256009,-1.32752671256009,750,0,0,neutral,1,5002.00254236924,1765.44448195746
20,104,4,599,0.5,-0.5,-0.5,3,3,1,3,462,1,1,462,1,0,1.6,NaN,-1.45202814280696,-1.45202814280696,750,1,0,congruent,1,2042.59153753507,2724.93916456284
20,104,4,600,0.5,-0.5,0.5,1,4,1,4,674,0,1,NaN,1,0,1.8,NaN,0.0143220356562393,NaN,750,1,0,incongruent,1,11599.9579644471,3763.81811364976
