subid,vers,block,trial,rewlvl,efflvl,congruency,targetresp,distractorresp,rollingefflvl,resp,rt,acc,fast,accrt,isrewarded,ismiss,runavgrrgen,runavgrrcond,zrt,acczrt,rtthreshold,isdisterror,isranderror,congruence,feedback,fcz_resp_theta,fcz_resp_theta_baseline
21,104,1,2,0.5,0.5,-0.5,1,1,0,1,556,1,1,556,1,0,0,NaN,-0.33421339607845,-0.33421339607845,750,1,0,congruent,1,455.664015563486,1308.55018613067
21,104,1,3,0.5,-0.5,-0.5,3,3,0.2,2,768,0,0,NaN,0,0,0.4,NaN,0.876650930710361,NaN,750,0,1,congruent,0,1282.02639880879,1244.7808431003
21,104,1,4,-0.5,0.5,-0.5,4,4,0.2,4,527,1,1,527,1,0,0.4,0,-0.499850497384467,-0.499850497384467,750,1,0,congruent,0.1,491.370500695516,1032.59391073189
21,104,1,5,0.5,0.5,-0.5,1,1,0.4,1,736,1,1,736,1,0,0.6,NaN,0.693878956855446,0.693878956855446,750,1,0,congruent,1,498.403966147877,4182.42248216784
21,104,1,6,0.5,-0.5,-0.5,4,4,0.6,4,900,1,0,900,1,0,1,NaN,1.63058532286188,1.63058532286188,750,1,0,congruent,1,5856.19823557587,2580.43888126594
21,104,1,8,0.5,-0.5,0,4,NaN,0.6,1,823,0,0,NaN,1,0,1,NaN,1.1907902607735,NaN,750,0,1,neutral,1,1887.49775797864,2228.89250270707
21,104,1,11,0.5,0.5,-0.5,4,4,0.6,3,954,0,0,NaN,0,0,0.8,NaN,1.93901302874205,NaN,750,0,1,congruent,0,927.616921096447,1098.15908374
21,104,1,12,0.5,0.5,0,3,NaN,0.6,4,891,0,0,NaN,0,0,0.4,NaN,1.57918070521519,NaN,750,0,1,neutral,0,3167.18387526058,3586.4491295071
21,104,1,13,0.5,-0.5,-0.5,2,2,0.4,1,723,0,1,NaN,0,0,0.4,NaN,0.619627842476887,NaN,750,0,1,congruent,0,2311.57862778533,1750.70020010846
21,104,1,16,0.5,-0.5,-0.5,4,4,0.2,4,609,1,1,609,1,0,0,NaN,-0.0314973143812476,-0.0314973143812476,750,1,0,congruent,1,3661.61227274862,910.456223322268
21,104,1,17,-0.5,0.5,-0.5,2,2,0.2,1,825,0,0,NaN,0,0,0.4,0.2,1.20221350913943,NaN,750,0,1,congruent,0,1492.89101515977,2191.64065824713
21,104,1,18,-0.5,0.5,-0.5,1,1,0,1,767,1,0,767,0,0,0.4,0.2,0.870939306527395,0.870939306527395,750,1,0,congruent,0,1250.08408533547,479.367443646224
21,104,1,19,-0.5,0.5,-0.5,3,3,0,2,821,0,0,NaN,0,0,0.4,0.2,1.17936701240756,NaN,750,0,1,congruent,0,8471.99950417535,1036.5311162076
21,104,1,21,-0.5,0.5,0,1,NaN,0,1,825,1,0,825,0,0,0.4,0.2,1.20221350913943,1.20221350913943,750,0,0,neutral,0,768.435680710425,2505.96681763989
21,104,1,23,-0.5,-0.5,0,3,NaN,0,4,969,0,0,NaN,0,0,0,0,2.02468739148655,NaN,750,0,1,neutral,0,1077.57802742027,1774.56118334747
21,104,1,24,0.5,-0.5,-0.5,2,2,0,3,808,0,0,NaN,0,0,0,NaN,1.105115898029,NaN,750,0,1,congruent,0,883.715404549684,2388.48347910935
21,104,1,25,-0.5,-0.5,0,3,NaN,0,3,962,1,0,962,0,0,0,0,1.98470602220578,1.98470602220578,750,0,0,neutral,0,1937.67667864093,805.22901005992
21,104,1,26,0.5,-0.5,-0.5,1,1,0,1,699,1,1,699,0,0,0,NaN,0.482548862085701,0.482548862085701,750,1,0,congruent,0,1617.31079276399,5009.21113774204
21,104,1,27,0.5,-0.5,-0.5,2,2,0,2,868,1,0,868,0,0,0,NaN,1.44781334900697,1.44781334900697,750,1,0,congruent,0,2798.98721412843,744.795062127609
21,104,1,28,0.5,0.5,0.5,3,4,0,4,864,0,0,NaN,0,0,0,NaN,1.42496685227511,NaN,750,1,0,incongruent,0,1928.40527880398,1250.38701473478
21,104,1,29,0.5,-0.5,0,2,NaN,0,2,992,1,0,992,0,0,0,NaN,2.15605474769477,2.15605474769477,750,0,0,neutral,0,985.218281829462,1187.36000362135
21,104,1,31,-0.5,0.5,0.5,4,2,0,3,777,0,0,NaN,0,0,0,0,0.928055548357056,NaN,750,0,1,incongruent,0,2687.60595427174,2243.61172503597
21,104,1,32,0.5,0.5,0,3,NaN,0,1,707,0,1,NaN,0,0,0,NaN,0.528241855549429,NaN,750,0,1,neutral,0,4680.70252823364,3226.9382625566
21,104,1,33,-0.5,-0.5,-0.5,1,1,0,1,619,1,1,619,0,0,0,0,0.0256189274484133,0.0256189274484133,750,1,0,congruent,0,745.295623412552,1249.61162873963
21,104,1,34,0.5,0.5,0,2,NaN,0,3,995,0,0,NaN,0,0,0,NaN,2.17318962024366,NaN,750,0,1,neutral,0,632.480590940325,1543.82765182879
21,104,1,37,0.5,-0.5,0,2,NaN,0,1,625,0,1,NaN,0,0,0,NaN,0.0598886725462098,NaN,750,0,1,neutral,0,3197.68701448469,1352.38674321674
21,104,1,38,-0.5,0.5,-0.5,1,1,0,1,596,1,1,596,1,0,0,0,-0.105748428759807,-0.105748428759807,750,1,0,congruent,0.1,1192.42806553835,4400.02579231457
21,104,1,39,-0.5,0.5,0.5,3,4,0.2,4,939,0,0,NaN,0,0,0.2,0.2,1.85333866599756,NaN,750,1,0,incongruent,0,3806.33691731801,1846.68395769368
21,104,1,41,0.5,-0.5,0.5,1,2,0.2,2,766,0,0,NaN,0,0,0.2,NaN,0.865227682344429,NaN,750,1,0,incongruent,0,4215.73878176979,1281.63257199169
21,104,1,43,0.5,0.5,-0.5,3,3,0.2,3,695,1,1,695,1,0,0.2,NaN,0.459702365353836,0.459702365353836,750,1,0,congruent,1,1453.94203750617,2337.5463710108
21,104,1,44,-0.5,0.5,0,4,NaN,0.4,4,626,1,1,626,1,0,0.4,0.2,0.0656002967291759,0.0656002967291759,750,0,0,neutral,0.1,591.038040073122,947.994140774712
21,104,1,45,0.5,0.5,0.5,1,2,0.6,2,754,0,0,NaN,0,0,0.6,NaN,0.796688192148836,NaN,750,1,0,incongruent,0,1614.84249973511,1029.57400533919
21,104,1,46,0.5,-0.5,0.5,3,4,0.4,3,613,1,1,613,0,0,0.6,NaN,-0.00865081764938326,-0.00865081764938326,750,0,0,incongruent,0,3702.45659185422,1541.36782465257
21,104,1,47,-0.5,-0.5,0,4,NaN,0.4,2,912,0,0,NaN,1,0,0.6,0,1.69912481305748,NaN,750,0,1,neutral,0.1,640.743686868981,1294.99109002128
21,104,1,50,0.5,-0.5,-0.5,1,1,0.4,1,810,1,0,810,1,0,0.6,NaN,1.11653914639494,1.11653914639494,750,1,0,congruent,1,1344.92745037481,3553.84758010038
21,104,1,51,0.5,-0.5,0,4,NaN,0.4,4,765,1,0,765,0,0,1,NaN,0.859516058161463,0.859516058161463,750,0,0,neutral,0,1157.64765975447,4275.04883099229
21,104,1,52,-0.5,-0.5,0.5,3,2,0.4,3,970,1,0,970,0,0,1,0.2,2.03039901566951,2.03039901566951,750,0,0,incongruent,0,3852.25556776729,692.360517909764
21,104,1,53,-0.5,0.5,0,4,NaN,0.4,4,740,1,1,740,1,0,0.8,0.4,0.71672545358731,0.71672545358731,750,0,0,neutral,0.1,794.244132238946,1947.28091158192
21,104,1,54,0.5,0.5,-0.5,2,2,0.6,4,570,0,1,NaN,0,0,1,NaN,-0.254250657516925,NaN,750,0,1,congruent,0,2356.93684173066,282.286293149487
21,104,1,56,0.5,-0.5,-0.5,3,3,0.4,3,760,1,0,760,0,0,0.2,NaN,0.830957937246632,0.830957937246632,750,1,0,congruent,0,1209.10272131632,1183.54319996133
21,104,1,58,0.5,0.5,0,3,NaN,0.4,3,848,1,0,848,0,0,0.2,NaN,1.33358086534765,1.33358086534765,750,0,0,neutral,0,987.620867563916,520.270220515845
21,104,1,59,-0.5,-0.5,-0.5,4,4,0.2,4,769,1,0,769,0,0,0,0.2,0.882362554893327,0.882362554893327,750,1,0,congruent,0,1153.03258278715,1062.75394216511
21,104,1,60,0.5,0.5,0,2,NaN,0.2,3,585,0,1,NaN,0,0,0,NaN,-0.168576294772434,NaN,750,0,1,neutral,0,890.543201050724,2696.87388180261
21,104,1,61,-0.5,0.5,0.5,3,4,0.2,3,822,1,0,822,0,0,0,0.6,1.18507863659053,1.18507863659053,750,0,0,incongruent,0,2102.18350131991,2763.43256885695
21,104,1,62,-0.5,-0.5,0.5,4,3,0,1,682,0,1,NaN,0,0,0,0.2,0.385451250975277,NaN,750,0,1,incongruent,0,3434.66134976442,1898.05442367772
21,104,1,63,0.5,0.5,0.5,3,4,0,4,692,0,1,NaN,0,0,0,NaN,0.442567492804938,NaN,750,1,0,incongruent,0,559.936050733893,1159.53844251436
21,104,1,64,0.5,0.5,0,1,NaN,0,1,885,1,0,885,0,0,0,NaN,1.54491096011739,1.54491096011739,750,0,0,neutral,0,3362.15144586146,3943.31982572588
21,104,1,65,0.5,-0.5,0.5,2,4,0,4,887,0,0,NaN,0,0,0,NaN,1.55633420848333,NaN,750,1,0,incongruent,0,776.102659258804,2749.72910286671
21,104,1,67,-0.5,-0.5,-0.5,2,2,0,3,735,0,1,NaN,0,0,0,0.2,0.68816733267248,NaN,750,0,1,congruent,0,1563.55373621169,986.778292018486
21,104,1,68,0.5,-0.5,0,3,NaN,0,3,632,1,1,632,0,0,0,NaN,0.0998700418269725,0.0998700418269725,750,0,0,neutral,0,1214.20987448967,907.792989187772
21,104,1,70,0.5,-0.5,0.5,3,4,0,4,669,0,1,NaN,0,0,0,NaN,0.311200136596718,NaN,750,1,0,incongruent,0,2736.15375257682,2216.47080603428
21,104,1,71,-0.5,0.5,0,2,NaN,0,1,770,0,0,NaN,0,0,0,0.4,0.888074179076293,NaN,750,0,1,neutral,0,1086.01720153854,2992.00524465294
21,104,1,72,0.5,-0.5,0.5,3,1,0,3,694,1,1,694,0,0,0,NaN,0.45399074117087,0.45399074117087,750,0,0,incongruent,0,2319.31245343021,4264.62361729038
21,104,1,73,0.5,-0.5,0,1,NaN,0,1,644,1,1,644,0,0,0,NaN,0.168409532022566,0.168409532022566,750,0,0,neutral,0,389.557487268305,2551.027150881
21,104,1,74,-0.5,0.5,0.5,3,1,0,2,972,0,0,NaN,0,0,0,0.4,2.04182226403544,NaN,750,0,1,incongruent,0,2159.46550202025,1336.84615073036
21,104,1,75,0.5,0.5,0.5,4,2,0,3,923,0,0,NaN,0,0,0,NaN,1.76195267907011,NaN,750,0,1,incongruent,0,1929.17232433939,1621.68443682903
21,104,1,76,-0.5,0.5,0.5,2,4,0,3,678,0,1,NaN,0,0,0,0.2,0.362604754243413,NaN,750,0,1,incongruent,0,1649.5819192394,1607.8016766022
21,104,1,77,0.5,0.5,0,1,NaN,0,1,705,1,1,705,1,0,0,NaN,0.516818607183497,0.516818607183497,750,0,0,neutral,1,2819.01007879272,5862.9494413873
21,104,1,78,0.5,-0.5,-0.5,4,4,0.2,4,865,1,0,865,0,0,0.4,NaN,1.43067847645807,1.43067847645807,750,1,0,congruent,0,1226.80733595853,1453.8382222742
21,104,1,79,0.5,0.5,-0.5,1,1,0.2,1,749,1,1,749,1,0,0.4,NaN,0.768130071234005,0.768130071234005,750,1,0,congruent,1,554.514813802052,4914.6297498711
21,104,1,81,0.5,0.5,0.5,1,3,0.4,2,992,0,0,NaN,0,0,0.8,NaN,2.15605474769477,NaN,750,0,1,incongruent,0,3563.78321515307,1393.40152262837
21,104,1,82,0.5,0.5,-0.5,2,2,0.4,3,778,0,0,NaN,0,0,0.8,NaN,0.933767172540022,NaN,750,0,1,congruent,0,1000.82990409417,3373.13297629472
21,104,1,84,-0.5,0.5,0.5,3,2,0.4,3,941,1,0,941,0,0,0.4,0,1.86476191436349,1.86476191436349,750,0,0,incongruent,0,1368.0992924267,2917.74872552671
21,104,1,86,0.5,-0.5,0.5,4,1,0.2,1,725,0,1,NaN,0,0,0,NaN,0.631051090842819,NaN,750,1,0,incongruent,0,1273.31959009381,1961.0205114223
21,104,1,87,-0.5,0.5,0,1,NaN,0.2,1,715,1,1,715,1,0,0,0,0.573934849013158,0.573934849013158,750,0,0,neutral,0.1,1085.15196271373,4903.75009413321
21,104,1,90,-0.5,0.5,0,1,NaN,0.2,1,830,1,0,830,0,0,0.2,0.2,1.23077163005426,1.23077163005426,750,0,0,neutral,0,2358.02690012835,1859.32043140484
21,104,1,94,-0.5,0.5,0,3,NaN,0.2,2,897,0,0,NaN,0,0,0.2,0.2,1.61345045031299,NaN,750,0,1,neutral,0,1252.13691510301,2284.60067226875
21,104,1,97,0.5,0.5,0,4,NaN,0.2,2,556,0,1,NaN,0,0,0.2,NaN,-0.33421339607845,NaN,750,0,1,neutral,0,2224.00167222445,450.039650480876
21,104,1,98,-0.5,-0.5,-0.5,2,2,0.2,3,836,0,0,NaN,0,0,0,0.2,1.26504137515206,NaN,750,0,1,congruent,0,2538.26767268164,2433.62232148187
21,104,1,99,0.5,0.5,0.5,1,3,0.2,3,906,0,0,NaN,0,0,0,NaN,1.66485506795968,NaN,750,1,0,incongruent,0,846.495912320818,2626.25747717542
21,104,1,100,0.5,0.5,0,3,NaN,0.2,3,862,1,0,862,0,0,0,NaN,1.41354360390917,1.41354360390917,750,0,0,neutral,0,687.331875552207,4124.85175251038
21,104,1,101,-0.5,0.5,-0.5,1,1,0,1,719,1,1,719,1,0,0,0.2,0.596781345745023,0.596781345745023,750,1,0,congruent,0.1,1067.6848599091,2835.32937247245
21,104,1,102,-0.5,0.5,-0.5,4,4,0.2,4,636,1,1,636,1,0,0.2,0.4,0.122716538558837,0.122716538558837,750,1,0,congruent,0.1,697.581769405265,6079.41423692142
21,104,1,104,0.5,-0.5,-0.5,4,4,0.4,3,856,0,0,NaN,0,0,0.4,NaN,1.37927385881138,NaN,750,0,1,congruent,0,1025.69102108964,2030.02749302649
21,104,1,105,-0.5,0.5,-0.5,1,1,0.4,1,824,1,0,824,0,0,0.4,0.4,1.19650188495646,1.19650188495646,750,1,0,congruent,0,1511.38115966075,1458.56658025567
21,104,1,106,0.5,0.5,0,4,NaN,0.4,4,677,1,1,677,1,0,0.4,NaN,0.356893130060447,0.356893130060447,750,0,0,neutral,1,1139.48059117051,1567.81338858782
21,104,1,108,-0.5,-0.5,0,4,NaN,0.6,4,844,1,0,844,0,0,0.6,0.4,1.31073436861578,1.31073436861578,750,0,0,neutral,0,689.966374725771,1270.51743875782
21,104,1,110,-0.5,0.5,-0.5,4,4,0.6,4,730,1,1,730,1,0,0.6,0.4,0.659609211757649,0.659609211757649,750,1,0,congruent,0.1,1706.68067119444,6683.52868367913
21,104,1,111,0.5,-0.5,0,1,NaN,0.6,1,930,1,0,930,0,0,0.8,NaN,1.80193404835087,1.80193404835087,750,0,0,neutral,0,2467.14109713997,1419.29551802838
21,104,1,112,0.5,-0.5,-0.5,3,3,0.6,3,994,1,0,994,1,0,0.4,NaN,2.1674779960607,2.1674779960607,750,1,0,congruent,1,1071.07046429643,3046.04738952781
21,104,1,113,0.5,-0.5,-0.5,4,4,0.6,4,579,1,1,579,1,0,0.6,NaN,-0.20284603987023,-0.20284603987023,750,1,0,congruent,1,2736.63629231096,1311.51012702021
21,104,1,114,-0.5,0.5,0.5,2,3,0.6,2,763,1,0,763,0,0,1,0.6,0.84809280979553,0.84809280979553,750,0,0,incongruent,0,1765.96199565942,2291.1137250482
21,104,1,116,0.5,0.5,0,4,NaN,0.4,4,885,1,0,885,0,0,0.8,NaN,1.54491096011739,1.54491096011739,750,0,0,neutral,0,5847.52502722674,2256.68472364787
21,104,1,117,-0.5,0.5,-0.5,2,2,0.4,3,886,0,0,NaN,0,0,0.8,0.4,1.55062258430036,NaN,750,0,1,congruent,0,1626.28344836273,3335.94324906685
21,104,1,118,-0.5,-0.5,0,4,NaN,0.4,4,667,1,1,667,1,0,0.4,0.2,0.299776888230786,0.299776888230786,750,0,0,neutral,0.1,1480.1736887878,5176.31089013956
21,104,1,119,-0.5,0.5,0.5,3,4,0.4,4,943,0,0,NaN,0,0,0.2,0.2,1.87618516272943,NaN,750,1,0,incongruent,0,3379.95002694174,2622.6029527819
21,104,1,120,0.5,0.5,-0.5,2,2,0.2,2,604,1,1,604,1,0,0.2,NaN,-0.0600554352960781,-0.0600554352960781,750,1,0,congruent,1,811.93183623603,1763.64797211152
21,104,1,123,0.5,0.5,0,4,NaN,0.2,3,944,0,0,NaN,0,0,0.8,NaN,1.88189678691239,NaN,750,0,1,neutral,0,2859.22645631928,8319.07555901524
21,104,1,124,0.5,0.5,0.5,2,1,0.2,1,676,0,1,NaN,0,0,0.6,NaN,0.351181505877481,NaN,750,1,0,incongruent,0,2121.34156631378,591.316104865213
21,104,1,125,0.5,0.5,0.5,3,2,0.2,3,970,1,0,970,0,0,0.6,NaN,2.03039901566951,2.03039901566951,750,0,0,incongruent,0,2465.41507022979,1165.05784209783
21,104,1,126,0.5,0.5,0.5,2,1,0.2,1,698,0,1,NaN,0,0,0.2,NaN,0.476837237902735,NaN,750,1,0,incongruent,0,3137.92612736622,2982.77306008984
21,104,1,127,-0.5,0.5,0,1,NaN,0,3,847,0,0,NaN,0,0,0,0.2,1.32786924116468,NaN,750,0,1,neutral,0,880.482998024972,1127.77212147165
21,104,1,130,0.5,0.5,0,4,NaN,0,3,657,0,1,NaN,0,0,0,NaN,0.242660646401125,NaN,750,0,1,neutral,0,1742.79442771616,947.053000826846
21,104,1,131,-0.5,-0.5,0.5,3,4,0,4,823,0,0,NaN,0,0,0,0.6,1.1907902607735,NaN,750,1,0,incongruent,0,2967.4713028969,2337.97426848735
21,104,1,132,-0.5,-0.5,0,4,NaN,0,1,802,0,0,NaN,0,0,0,0.4,1.07084615293121,NaN,750,0,1,neutral,0,1341.15323188343,4993.75791014293
21,104,1,133,-0.5,-0.5,-0.5,1,1,0,1,594,1,1,594,0,0,0,0.4,-0.117171677125739,-0.117171677125739,750,1,0,congruent,0,3824.83420164697,3615.02625044642
21,104,1,134,-0.5,0.5,0.5,2,3,0,2,970,1,0,970,0,0,0,0,2.03039901566951,2.03039901566951,750,0,0,incongruent,0,637.622684852254,734.846379060581
21,104,1,135,-0.5,0.5,0,4,NaN,0,4,929,1,0,929,0,0,0,0,1.7962224241679,1.7962224241679,750,0,0,neutral,0,2658.44403200898,2059.83375245658
21,104,1,136,0.5,0.5,0.5,2,3,0,3,860,0,0,NaN,0,0,0,NaN,1.40212035554324,NaN,750,1,0,incongruent,0,581.160223727422,1226.09694336701
21,104,1,137,-0.5,-0.5,-0.5,1,1,0,1,740,1,1,740,0,0,0,0.4,0.71672545358731,0.71672545358731,750,1,0,congruent,0,4193.26479216593,1739.80939733604
21,104,1,138,0.5,0.5,0,4,NaN,0,4,784,1,0,784,0,0,0,NaN,0.968036917637818,0.968036917637818,750,0,0,neutral,0,1828.39481798397,772.203371320326
21,104,1,139,-0.5,0.5,-0.5,2,2,0,3,953,0,0,NaN,0,0,0,0,1.93330140455909,NaN,750,0,1,congruent,0,441.235375203467,814.57871672448
21,104,1,140,0.5,0.5,-0.5,3,3,0,3,907,1,0,907,0,0,0,NaN,1.67056669214265,1.67056669214265,750,1,0,congruent,0,990.449759570813,1350.64454310573
21,104,1,141,-0.5,0.5,0,1,NaN,0,1,689,1,1,689,1,0,0,0,0.42543262025604,0.42543262025604,750,0,0,neutral,0.1,1658.04621179937,1810.78708392003
21,104,1,142,0.5,0.5,-0.5,3,3,0.2,3,753,1,0,753,0,0,0.2,NaN,0.79097656796587,0.79097656796587,750,1,0,congruent,0,520.332178804736,1564.65060497798
21,104,1,143,0.5,0.5,0.5,1,4,0.2,4,780,0,0,NaN,0,0,0.2,NaN,0.945190420905954,NaN,750,1,0,incongruent,0,1720.3185884538,1984.13711384085
21,104,1,144,-0.5,0.5,-0.5,3,3,0.2,4,630,0,1,NaN,0,0,0.2,0.2,0.0884467934610403,NaN,750,0,1,congruent,0,3143.66124793084,1619.93532766845
21,104,1,145,0.5,-0.5,-0.5,4,4,0.2,4,618,1,1,618,0,0,0.2,NaN,0.0199073032654472,0.0199073032654472,750,1,0,congruent,0,1376.90141341992,4037.11248294386
21,104,1,146,0.5,0.5,-0.5,1,1,0.2,1,486,1,1,486,1,0,0.2,NaN,-0.734027088886077,-0.734027088886077,750,1,0,congruent,1,817.644699650487,2761.64451376076
21,104,1,147,0.5,-0.5,0,3,NaN,0.4,3,647,1,1,647,0,0,0.4,NaN,0.185544404571464,0.185544404571464,750,0,0,neutral,0,2545.88625803363,2649.34303432014
21,104,1,148,0.5,0.5,0.5,1,4,0.4,4,566,0,1,NaN,0,0,0.4,NaN,-0.27709715424879,NaN,750,1,0,incongruent,0,1303.44665959427,2225.61267703399
21,104,1,149,-0.5,-0.5,0.5,4,1,0.2,4,740,1,1,740,0,0,0.4,0.2,0.71672545358731,0.71672545358731,750,0,0,incongruent,0,2528.21732624707,2100.72948793125
21,104,1,150,0.5,-0.5,-0.5,3,3,0.2,1,634,0,1,NaN,0,0,0.4,NaN,0.111293290192905,NaN,750,0,1,congruent,0,3036.63189348189,2571.29093213267
21,104,2,151,-0.5,-0.5,0,1,NaN,0.2,1,754,1,0,754,0,0,0.4,0,0.796688192148836,0.796688192148836,750,0,0,neutral,0,1929.31782277656,1840.20242478526
21,104,2,152,-0.5,0.5,-0.5,2,2,0.2,3,701,0,1,NaN,0,0,0,0.2,0.493972110451633,NaN,750,0,1,congruent,0,1659.96789542321,3023.18571954513
21,104,2,153,0.5,0.5,-0.5,3,3,0.2,3,752,1,0,752,0,0,0,NaN,0.785264943782903,0.785264943782903,750,1,0,congruent,0,2504.39840989128,1329.03852064699
21,104,2,154,-0.5,0.5,-0.5,2,2,0.2,2,652,1,1,652,1,0,0,0.2,0.214102525486294,0.214102525486294,750,1,0,congruent,0.1,1541.42415196129,2594.52548352221
21,104,2,155,0.5,0.5,-0.5,4,4,0.4,4,562,1,1,562,1,0,0.2,NaN,-0.299943650980654,-0.299943650980654,750,1,0,congruent,1,1085.29835728704,406.338234623804
21,104,2,156,-0.5,0.5,0.5,2,1,0.4,1,538,0,1,NaN,0,0,0.6,0.4,-0.43702263137184,NaN,750,1,0,incongruent,0,1816.91962916616,958.472740926293
21,104,2,157,-0.5,-0.5,0,1,NaN,0.4,2,553,0,1,NaN,1,0,0.6,0,-0.351348268627349,NaN,750,0,1,neutral,0.1,1357.92498924876,2780.67247754103
21,104,2,158,-0.5,0.5,-0.5,2,2,0.4,3,621,0,1,NaN,0,0,0.8,0.4,0.0370421758143455,NaN,750,0,1,congruent,0,4006.07798279492,1140.55883823092
21,104,2,160,-0.5,-0.5,0.5,1,2,0.4,3,665,0,1,NaN,1,0,0.6,0.2,0.288353639864854,NaN,750,0,1,incongruent,0.1,558.675890782458,662.877043195688
21,104,2,161,-0.5,-0.5,0,3,NaN,0.4,4,715,0,1,NaN,0,0,0.4,0.4,0.573934849013158,NaN,750,0,1,neutral,0,471.373273898451,1048.15477574511
21,104,2,162,-0.5,-0.5,-0.5,2,2,0.4,2,624,1,1,624,0,0,0.4,0.4,0.0541770483632438,0.0541770483632438,750,1,0,congruent,0,1956.49251193686,2184.27808609176
21,104,2,163,-0.5,-0.5,0,4,NaN,0.4,1,535,0,1,NaN,0,0,0.2,0.4,-0.454157503920738,NaN,750,0,1,neutral,0,2854.2428660121,2054.91334451566
21,104,2,164,-0.5,-0.5,-0.5,1,1,0.4,1,516,1,1,516,0,0,0.2,0.2,-0.562678363397094,-0.562678363397094,750,1,0,congruent,0,1520.65547828329,1053.68071585024
21,104,2,165,0.5,0.5,-0.5,3,3,0.4,3,471,1,1,471,1,0,0.2,NaN,-0.819701451630568,-0.819701451630568,750,1,0,congruent,1,2049.02188907564,1942.94593094868
21,104,2,166,0.5,-0.5,0,4,NaN,0.6,1,591,0,1,NaN,0,0,0.4,NaN,-0.134306549674637,NaN,750,0,1,neutral,0,1721.86006567457,2304.01244379483
21,104,2,167,-0.5,0.5,-0.5,1,1,0.6,1,592,1,1,592,1,0,0.4,0.2,-0.128594925491671,-0.128594925491671,750,1,0,congruent,0.1,2108.08957075776,1059.5094106489
21,104,2,168,0.5,-0.5,0,4,NaN,0.6,3,582,0,1,NaN,1,0,0.6,NaN,-0.185711167321332,NaN,750,0,1,neutral,1,511.6628238442,867.710134106369
21,104,2,169,0.5,0.5,-0.5,1,1,0.6,1,470,1,1,470,1,0,1,NaN,-0.825413075813534,-0.825413075813534,750,1,0,congruent,1,3519.67443130692,5839.9872849187
21,104,2,170,-0.5,-0.5,-0.5,4,4,0.6,3,836,0,0,NaN,1,0,1.4,0.2,1.26504137515206,NaN,750,0,1,congruent,0.1,1775.07567748288,4210.89259662004
21,104,2,172,-0.5,-0.5,0.5,1,2,0.6,3,479,0,1,NaN,1,0,1.2,0.2,-0.774008458166839,NaN,750,0,1,incongruent,0.1,916.367192091244,3050.19262407158
21,104,2,173,-0.5,-0.5,0,4,NaN,0.6,4,229,1,1,229,1,0,1.2,0.4,-2.20191450390836,-2.20191450390836,750,0,0,neutral,0.1,3143.05999700835,3085.94370793171
21,104,2,174,0.5,-0.5,-0.5,3,3,0.6,1,465,0,1,NaN,1,0,1,NaN,-0.853971196728365,NaN,750,0,1,congruent,1,4246.53800214707,633.459203372703
21,104,2,175,-0.5,0.5,0.5,1,4,0.6,2,462,0,1,NaN,0,0,1,0.4,-0.871106069277263,NaN,750,0,1,incongruent,0,877.597973231758,1927.35626642092
21,104,2,176,0.5,0.5,-0.5,3,3,0.6,3,590,1,1,590,1,0,0.8,NaN,-0.140018173857603,-0.140018173857603,750,1,0,congruent,1,2330.57283896732,2623.88660561571
21,104,2,177,0.5,-0.5,0,4,NaN,0.8,1,665,0,1,NaN,0,0,1.2,NaN,0.288353639864854,NaN,750,0,1,neutral,0,2489.62747297704,1631.41792027083
21,104,2,178,-0.5,-0.5,-0.5,2,2,0.8,2,339,1,1,339,0,0,1,0.6,-1.57363584378209,-1.57363584378209,750,1,0,congruent,0,1489.06118519884,2845.18215714386
21,104,2,179,0.5,0.5,0.5,1,3,0.8,3,536,0,1,NaN,0,0,0.8,NaN,-0.448445879737772,NaN,750,1,0,incongruent,0,2312.51658274879,2284.85115209713
21,104,2,180,-0.5,0.5,0,4,NaN,0.6,3,703,0,1,NaN,0,0,0.4,0.4,0.505395358817565,NaN,750,0,1,neutral,0,2801.0376370395,450.005397289158
21,104,2,181,0.5,-0.5,0.5,3,2,0.4,3,502,1,1,502,0,0,0.4,NaN,-0.642641101958619,-0.642641101958619,750,0,0,incongruent,0,1430.00543794971,650.683444511286
21,104,2,182,0.5,0.5,0.5,4,1,0.4,1,549,0,1,NaN,0,0,0,NaN,-0.374194765359213,NaN,750,1,0,incongruent,0,1512.07973491462,352.048081922686
21,104,2,183,0.5,-0.5,0,2,NaN,0.2,3,715,0,1,NaN,0,0,0,NaN,0.573934849013158,NaN,750,0,1,neutral,0,1605.20117922135,1034.74254524454
21,104,2,184,-0.5,0.5,0.5,1,4,0.2,4,611,0,1,NaN,0,0,0,0.2,-0.0200740660153154,NaN,750,1,0,incongruent,0,5136.9422619096,1608.23058011408
21,104,2,185,-0.5,0.5,0.5,4,3,0.2,2,522,0,1,NaN,0,0,0,0.2,-0.528408618299298,NaN,750,0,1,incongruent,0,1442.62549902453,981.86915447082
21,104,2,186,-0.5,0.5,0.5,3,1,0,1,626,0,1,NaN,0,0,0,0.2,0.0656002967291759,NaN,750,1,0,incongruent,0,972.532986655297,1801.87723873655
21,104,2,187,0.5,0.5,0.5,2,3,0,2,463,1,1,463,1,0,0,NaN,-0.865394445094297,-0.865394445094297,750,0,0,incongruent,1,1064.98796091948,4924.94568770376
21,104,2,188,0.5,0.5,-0.5,1,1,0.2,1,474,1,1,474,1,0,0.4,NaN,-0.80256657908167,-0.80256657908167,750,1,0,congruent,1,3197.20324458935,427.253418167595
21,104,2,189,0.5,-0.5,0.5,3,2,0.4,1,654,0,1,NaN,1,0,0.8,NaN,0.225525773852226,NaN,750,0,1,incongruent,1,1266.70437811493,1386.16788940965
21,104,2,190,-0.5,0.5,-0.5,1,1,0.4,1,519,1,1,519,1,0,1.2,0,-0.545543490848196,-0.545543490848196,750,1,0,congruent,0.1,369.974678099958,2297.41652259051
21,104,2,191,0.5,-0.5,-0.5,4,4,0.6,4,591,1,1,591,1,0,1.4,NaN,-0.134306549674637,-0.134306549674637,750,1,0,congruent,1,1303.44384780843,928.986108391358
21,104,2,192,-0.5,0.5,-0.5,3,3,0.6,2,664,0,1,NaN,0,0,1.8,0.2,0.282642015681887,NaN,750,0,1,congruent,0,419.082872569096,1554.51736334185
21,104,2,193,0.5,-0.5,0,2,NaN,0.6,4,400,0,1,NaN,1,0,1.4,NaN,-1.22522676862116,NaN,750,0,1,neutral,1,1531.46746210171,1921.10785203172
21,104,2,194,0.5,-0.5,-0.5,4,4,0.6,3,406,0,1,NaN,0,0,1.4,NaN,-1.19095702352336,NaN,750,0,1,congruent,0,920.452446493573,1025.10018953557
21,104,2,195,0.5,-0.5,0,2,NaN,0.6,3,496,0,1,NaN,0,0,1,NaN,-0.676910847056416,NaN,750,0,1,neutral,0,1853.68852254682,2336.02527693746
21,104,2,196,0.5,-0.5,-0.5,1,1,0.6,1,440,1,1,440,1,0,0.8,NaN,-0.996761801302517,-0.996761801302517,750,1,0,congruent,1,2483.11868092096,5758.31199882335
21,104,2,197,-0.5,-0.5,0,2,NaN,0.6,3,334,0,1,NaN,1,0,0.8,0.6,-1.60219396469692,NaN,750,0,1,neutral,0.1,2206.00327052798,3603.97083586524
21,104,2,198,0.5,0.5,0.5,4,2,0.6,4,434,1,1,434,1,0,1,NaN,-1.03103154640031,-1.03103154640031,750,0,0,incongruent,1,2250.30605231041,556.785601512927
21,104,2,199,0.5,0.5,-0.5,1,1,0.8,1,505,1,1,505,1,0,1,NaN,-0.625506229409721,-0.625506229409721,750,1,0,congruent,1,783.306183197054,4438.41381574862
21,104,2,200,0.5,-0.5,-0.5,4,4,0.8,3,521,0,1,NaN,1,0,1.4,NaN,-0.534120242482264,NaN,750,0,1,congruent,1,1453.75818291303,3865.54252929227
21,104,2,201,0.5,0.5,-0.5,1,1,0.8,1,456,1,1,456,1,0,1.8,NaN,-0.90537581437506,-0.90537581437506,750,1,0,congruent,1,1212.39364841981,2269.93028411744
21,104,2,203,-0.5,-0.5,0,1,NaN,0.8,2,750,0,1,NaN,1,0,2,0.8,0.773841695416971,NaN,750,0,1,neutral,0.1,2423.59444550046,1617.14807619442
21,104,2,204,-0.5,0.5,0.5,4,3,0.8,1,820,0,0,NaN,0,0,1.8,0.2,1.1736553882246,NaN,750,0,1,incongruent,0,1679.30143983101,1798.65401947092
21,104,2,205,0.5,-0.5,0,2,NaN,0.6,3,253,0,1,NaN,1,0,1.4,NaN,-2.06483552351718,NaN,750,0,1,neutral,1,1592.19253780422,2066.20604143496
21,104,2,206,0.5,-0.5,0.5,4,2,0.6,4,195,1,1,195,0,0,1.4,NaN,-2.39610972612921,-2.39610972612921,750,0,0,incongruent,0,3809.87605660698,2618.9961115304
21,104,2,207,-0.5,0.5,0.5,1,4,0.6,1,503,1,1,503,1,0,1,0.2,-0.636929477775653,-0.636929477775653,750,0,0,incongruent,0.1,1035.67911146565,2299.63419816135
21,104,2,208,0.5,-0.5,0.5,2,1,0.8,3,565,0,1,NaN,1,0,0.8,NaN,-0.282808778431756,NaN,750,0,1,incongruent,1,1133.45116748653,2413.15495723911
21,104,2,209,-0.5,0.5,-0.5,3,3,0.8,3,722,1,1,722,1,0,1,0.4,0.613916218293921,0.613916218293921,750,1,0,congruent,0.1,1432.10075477979,890.50411767361
21,104,2,210,0.5,0.5,0.5,2,1,0.8,1,536,0,1,NaN,0,0,1.2,NaN,-0.448445879737772,NaN,750,1,0,incongruent,0,1459.22311663213,837.034924399136
21,104,2,211,-0.5,-0.5,0,3,NaN,0.6,4,343,0,1,NaN,0,0,0.8,0.8,-1.55078934705023,NaN,750,0,1,neutral,0,4936.17623246978,2368.5276575449
21,104,2,212,-0.5,-0.5,0.5,4,3,0.6,2,253,0,1,NaN,0,0,0.8,0.6,-2.06483552351718,NaN,750,0,1,incongruent,0,1270.0432528083,671.889111772226
21,104,2,213,-0.5,0.5,-0.5,1,1,0.6,3,518,0,1,NaN,0,0,0.6,0.6,-0.551255115031162,NaN,750,0,1,congruent,0,1106.57106041968,3580.15852051461
21,104,2,214,-0.5,0.5,0,4,NaN,0.4,1,745,0,1,NaN,0,0,0.2,0.4,0.745283574502141,NaN,750,0,1,neutral,0,3382.27763748856,1234.54190478752
21,104,2,215,-0.5,0.5,-0.5,2,2,0.4,3,623,0,1,NaN,0,0,0,0.4,0.0484654241802777,NaN,750,0,1,congruent,0,852.147084751352,1662.38529340374
21,104,2,216,0.5,-0.5,0.5,1,4,0.2,1,170,1,1,170,0,0,0,NaN,-2.53890033070336,-2.53890033070336,750,0,0,incongruent,0,2561.83272519797,810.267282146109
21,104,2,217,0.5,-0.5,-0.5,3,3,0.2,3,505,1,1,505,0,0,0,NaN,-0.625506229409721,-0.625506229409721,750,1,0,congruent,0,1036.72017929685,2883.9058975552
21,104,2,218,0.5,-0.5,0.5,4,1,0.2,4,603,1,1,603,1,0,0,NaN,-0.0657670594790442,-0.0657670594790442,750,0,0,incongruent,1,1205.69265838466,21135.7122032251
21,104,2,219,0.5,0.5,0.5,2,3,0.2,3,681,0,1,NaN,0,0,0.4,NaN,0.379739626792311,NaN,750,1,0,incongruent,0,781.156412961473,5443.98742043467
21,104,2,220,0.5,0.5,0,4,NaN,0,3,592,0,1,NaN,0,0,0.4,NaN,-0.128594925491671,NaN,750,0,1,neutral,0,4778.89065975214,794.16068757524
21,104,2,221,-0.5,0.5,-0.5,3,3,0,3,680,1,1,680,1,0,0.4,0.4,0.374028002609345,0.374028002609345,750,1,0,congruent,0.1,1139.25273343132,1339.39099324025
21,104,2,222,-0.5,0.5,0,4,NaN,0.2,4,443,1,1,443,1,0,0.6,0.4,-0.979626928753619,-0.979626928753619,750,0,0,neutral,0.1,1397.22902594088,819.44915535265
21,104,2,223,0.5,0.5,-0.5,1,1,0.4,1,566,1,1,566,1,0,0.8,NaN,-0.27709715424879,-0.27709715424879,750,1,0,congruent,1,1347.76473450831,2373.55836071257
21,104,2,224,0.5,0.5,0,3,NaN,0.6,3,658,1,1,658,1,0,0.8,NaN,0.248372270584091,0.248372270584091,750,0,0,neutral,1,1869.08754052823,1724.21969318155
21,104,2,225,-0.5,-0.5,-0.5,4,4,0.8,4,517,1,1,517,1,0,1.2,0.4,-0.556966739214128,-0.556966739214128,750,1,0,congruent,0.1,967.398719858756,8763.23836956934
21,104,2,226,0.5,-0.5,0.5,3,2,0.8,3,787,1,0,787,0,0,1.4,NaN,0.985171790186717,0.985171790186717,750,0,0,incongruent,0,1471.25729932924,2197.53508248135
21,104,2,227,0.5,0.5,0,1,NaN,0.8,1,544,1,1,544,1,0,1.2,NaN,-0.402752886274044,-0.402752886274044,750,0,0,neutral,1,718.41920950378,1137.12216686077
21,104,2,228,-0.5,0.5,-0.5,2,2,1,3,523,0,1,NaN,0,0,1.4,0.4,-0.522696994116332,NaN,750,0,1,congruent,0,861.173207610117,686.980786372008
21,104,2,229,-0.5,0.5,-0.5,4,4,0.8,4,497,1,1,497,1,0,1,0.4,-0.67119922287345,-0.67119922287345,750,1,0,congruent,0.1,3865.86849449992,2071.84251732675
21,104,2,230,-0.5,0.5,0.5,1,3,0.8,4,510,0,1,NaN,0,0,0.8,0.6,-0.596948108494891,NaN,750,0,1,incongruent,0,684.286626048212,2968.43210800479
21,104,2,231,-0.5,0.5,0.5,2,1,0.6,3,553,0,1,NaN,0,0,0.6,0.6,-0.351348268627349,NaN,750,0,1,incongruent,0,2033.39486928711,2081.02753331226
21,104,2,232,0.5,0.5,-0.5,3,3,0.4,3,454,1,1,454,1,0,0.6,NaN,-0.916799062740992,-0.916799062740992,750,1,0,congruent,1,2522.83936286442,2136.581655749
21,104,2,233,0.5,-0.5,0.5,4,2,0.4,3,554,0,1,NaN,0,0,0.6,NaN,-0.345636644444383,NaN,750,0,1,incongruent,0,679.519961529178,2854.49032508656
21,104,2,234,0.5,0.5,0.5,1,4,0.4,4,631,0,1,NaN,0,0,0.6,NaN,0.0941584176440064,NaN,750,1,0,incongruent,0,2408.86815872952,2044.42650374979
21,104,2,235,0.5,-0.5,-0.5,3,3,0.4,2,538,0,1,NaN,1,0,0.4,NaN,-0.43702263137184,NaN,750,0,1,congruent,1,3672.54601262552,6228.09743478848
21,104,2,236,-0.5,-0.5,0.5,2,1,0.4,4,523,0,1,NaN,1,0,0.8,0.6,-0.522696994116332,NaN,750,0,1,incongruent,0.1,2408.55707901128,1700.27759366403
21,104,2,237,-0.5,-0.5,0,1,NaN,0.4,3,810,0,0,NaN,1,0,1,0.6,1.11653914639494,NaN,750,0,1,neutral,0.1,912.404190635482,3491.17092847487
21,104,2,238,0.5,0.5,-0.5,2,2,0.4,1,582,0,1,NaN,0,0,0.8,NaN,-0.185711167321332,NaN,750,0,1,congruent,0,1403.83320383772,6023.1127185988
21,104,2,239,-0.5,-0.5,-0.5,1,1,0.2,3,376,0,1,NaN,1,0,0.8,0.6,-1.36230574901235,NaN,750,0,1,congruent,0.1,912.120313549427,1401.97309215763
21,104,2,240,-0.5,0.5,-0.5,3,3,0.2,1,774,0,0,NaN,0,0,1,0.4,0.910920675808157,NaN,750,0,1,congruent,0,1748.81786547192,846.30728478379
21,104,2,241,0.5,0.5,0.5,4,1,0.2,3,502,0,1,NaN,0,0,0.6,NaN,-0.642641101958619,NaN,750,0,1,incongruent,0,300.160456589479,316.485757829055
21,104,2,242,-0.5,0.5,-0.5,2,2,0.2,3,596,0,1,NaN,0,0,0.4,0.2,-0.105748428759807,NaN,750,0,1,congruent,0,1741.63976951491,4747.97359274737
21,104,2,243,-0.5,-0.5,-0.5,1,1,0,3,209,0,1,NaN,0,0,0.2,0.8,-2.31614698756768,NaN,750,0,1,congruent,0,1359.38442732265,2836.16382101856
21,104,2,244,0.5,0.5,-0.5,2,2,0,2,445,1,1,445,1,0,0.2,NaN,-0.968203680387687,-0.968203680387687,750,1,0,congruent,1,779.931081949974,2455.74258639322
21,104,2,245,-0.5,-0.5,0.5,4,3,0.2,3,593,0,1,NaN,0,0,0.4,0.8,-0.122883301308705,NaN,750,1,0,incongruent,0,1676.91498788858,573.16299303762
21,104,2,246,0.5,0.5,0,2,NaN,0.2,1,445,0,1,NaN,0,0,0.4,NaN,-0.968203680387687,NaN,750,0,1,neutral,0,1539.91787222978,4535.95803020272
21,104,2,247,0.5,-0.5,-0.5,3,3,0.2,3,522,1,1,522,0,0,0.4,NaN,-0.528408618299298,-0.528408618299298,750,1,0,congruent,0,2214.87342215796,4092.89061961386
21,104,2,248,0.5,-0.5,0,4,NaN,0.2,2,606,0,1,NaN,0,0,0.4,NaN,-0.0486321869301459,NaN,750,0,1,neutral,0,3240.22901591069,1960.30349512288
21,104,2,249,-0.5,-0.5,-0.5,2,2,0.2,3,493,0,1,NaN,0,0,0.4,0.6,-0.694045719605314,NaN,750,0,1,congruent,0,1333.1904115094,1903.53336540578
21,104,2,250,0.5,0.5,0.5,3,4,0.2,2,476,0,1,NaN,0,0,0,NaN,-0.791143330715738,NaN,750,0,1,incongruent,0,2414.07651073854,1750.44338079869
21,104,2,251,-0.5,-0.5,0,2,NaN,0.2,3,649,0,1,NaN,1,0,0,0.4,0.196967652937396,NaN,750,0,1,neutral,0.1,3410.61675546365,4247.8109811255
21,104,2,252,-0.5,-0.5,-0.5,1,1,0.2,4,521,0,1,NaN,0,0,0.2,0.4,-0.534120242482264,NaN,750,0,1,congruent,0,1844.44738599861,1755.63330877061
21,104,2,253,-0.5,0.5,0,2,NaN,0.2,3,572,0,1,NaN,0,0,0.2,0.2,-0.242827409150993,NaN,750,0,1,neutral,0,1704.80351351013,609.797120964853
21,104,2,256,-0.5,0.5,0.5,3,1,0.2,3,434,1,1,434,1,0,0.2,0,-1.03103154640031,-1.03103154640031,750,0,0,incongruent,0.1,818.038197376071,1922.50630073034
21,104,2,257,-0.5,0.5,0,2,NaN,0.2,2,715,1,1,715,1,0,0.2,0.2,0.573934849013158,0.573934849013158,750,0,0,neutral,0.1,1309.32552952408,1906.10478530174
21,104,2,258,0.5,0.5,-0.5,1,1,0.4,1,401,1,1,401,1,0,0.4,NaN,-1.21951514443819,-1.21951514443819,750,1,0,congruent,1,181.322880057749,3191.07941724601
21,104,2,259,-0.5,-0.5,0,3,NaN,0.6,3,458,1,1,458,1,0,0.8,0.2,-0.893952566009127,-0.893952566009127,750,0,0,neutral,0.1,3657.86504970406,2817.32213730639
21,104,2,260,-0.5,0.5,-0.5,1,1,0.6,1,555,1,1,555,1,0,1,0.4,-0.339925020261417,-0.339925020261417,750,1,0,congruent,0.1,1369.15281451031,580.963765117578
21,104,2,261,-0.5,-0.5,0,4,NaN,0.8,4,580,1,1,580,1,0,1.2,0.4,-0.197134415687264,-0.197134415687264,750,0,0,neutral,0.1,2668.44490121639,1329.96988897894
21,104,2,262,0.5,-0.5,-0.5,1,1,0.8,1,605,1,1,605,1,0,1.2,NaN,-0.054343811113112,-0.054343811113112,750,1,0,congruent,1,2345.28275222434,1431.29213083435
21,104,2,263,0.5,-0.5,-0.5,3,3,0.8,2,616,0,1,NaN,1,0,1.4,NaN,0.00848405489951502,NaN,750,0,1,congruent,1,4319.11775012765,1224.9620355434
21,104,2,264,-0.5,0.5,-0.5,2,2,0.8,4,418,0,1,NaN,0,0,1.4,0.6,-1.12241753332777,NaN,750,0,1,congruent,0,3015.92500601385,3510.98692055122
21,104,2,265,-0.5,-0.5,0.5,3,4,0.8,4,652,0,1,NaN,0,0,1.2,0.6,0.214102525486294,NaN,750,1,0,incongruent,0,3048.20122888429,2396.86316353466
21,104,2,266,0.5,0.5,0,4,NaN,0.8,4,555,1,1,555,1,0,1,NaN,-0.339925020261417,-0.339925020261417,750,0,0,neutral,1,3801.4758562004,518.611585632558
21,104,2,267,0.5,-0.5,-0.5,1,1,0.8,1,482,1,1,482,1,0,1.2,NaN,-0.756873585617941,-0.756873585617941,750,1,0,congruent,1,843.283605958159,1473.92807147806
21,104,2,268,0.5,0.5,-0.5,3,3,0.8,2,540,0,1,NaN,0,0,1.2,NaN,-0.425599383005908,NaN,750,0,1,congruent,0,2553.97748878973,2524.75962492861
21,104,2,269,0.5,0.5,0,1,NaN,0.6,4,457,0,1,NaN,0,0,0.8,NaN,-0.899664190192094,NaN,750,0,1,neutral,0,1174.10107743894,2747.05418885943
21,104,2,271,-0.5,-0.5,-0.5,1,1,0.2,1,630,1,1,630,0,0,0.8,0.4,0.0884467934610403,0.0884467934610403,750,1,0,congruent,0,1214.72388888173,2633.94826619297
21,104,2,272,0.5,-0.5,0.5,4,3,0.2,2,635,0,1,NaN,0,0,0.4,NaN,0.117004914375871,NaN,750,0,1,incongruent,0,776.215790083457,2120.58070987499
21,104,2,273,-0.5,0.5,0.5,1,2,0.2,1,552,1,1,552,1,0,0,0.6,-0.357059892810315,-0.357059892810315,750,0,0,incongruent,0.1,1308.46608893974,2614.28898531354
21,104,2,275,0.5,0.5,0.5,3,1,0.4,1,496,0,1,NaN,0,0,0.4,NaN,-0.676910847056416,NaN,750,1,0,incongruent,0,3136.06544420699,1728.38788417227
21,104,2,276,-0.5,0.5,0.5,4,3,0.4,3,546,0,1,NaN,0,0,0.4,0.8,-0.391329637908111,NaN,750,1,0,incongruent,0,1150.97986589325,2221.39595482063
21,104,2,277,0.5,-0.5,0.5,3,1,0.4,1,508,0,1,NaN,1,0,0.4,NaN,-0.608371356860823,NaN,750,1,0,incongruent,1,2331.02571899327,1234.64654390293
21,104,2,278,0.5,-0.5,0.5,1,2,0.4,2,664,0,1,NaN,0,0,0.8,NaN,0.282642015681887,NaN,750,1,0,incongruent,0,2774.32605113831,2214.59374576561
21,104,2,279,0.5,-0.5,0.5,4,1,0.4,4,877,1,0,877,0,0,0.6,NaN,1.49921796665366,1.49921796665366,750,0,0,incongruent,0,739.103063506344,4826.27322221723
21,104,2,280,0.5,-0.5,-0.5,3,3,0.4,3,568,1,1,568,0,0,0.4,NaN,-0.265673905882857,-0.265673905882857,750,1,0,congruent,0,828.380315548023,1969.41469936036
21,104,2,281,0.5,-0.5,-0.5,4,4,0.4,1,499,0,1,NaN,1,0,0.4,NaN,-0.659775974507518,NaN,750,0,1,congruent,1,987.901615388893,3380.45153593743
21,104,2,282,0.5,0.5,0,2,NaN,0.4,3,632,0,1,NaN,0,0,0.8,NaN,0.0998700418269725,NaN,750,0,1,neutral,0,2587.01755064619,1840.25950241312
21,104,2,283,0.5,-0.5,-0.5,1,1,0.4,4,473,0,1,NaN,0,0,0.4,NaN,-0.808278203264636,NaN,750,0,1,congruent,0,1830.68434340518,1129.69733338342
21,104,2,284,0.5,0.5,0,2,NaN,0.4,3,444,0,1,NaN,0,0,0.4,NaN,-0.973915304570653,NaN,750,0,1,neutral,0,1114.61912819044,2061.5471932841
21,104,2,285,-0.5,0.5,-0.5,1,1,0.2,1,512,1,1,512,1,0,0.4,0.6,-0.585524860128959,-0.585524860128959,750,1,0,congruent,0.1,1151.50332131559,1170.68113740781
21,104,2,286,0.5,0.5,-0.5,3,3,0.2,2,597,0,1,NaN,0,0,0.6,NaN,-0.100036804576841,NaN,750,0,1,congruent,0,2927.53232895364,599.647481365953
21,104,2,287,-0.5,-0.5,-0.5,4,4,0.2,4,629,1,1,629,0,0,0.2,0.4,0.0827351692780742,0.0827351692780742,750,1,0,congruent,0,1056.54362737916,1209.71657508713
21,104,2,288,0.5,-0.5,-0.5,1,1,0.2,1,537,1,1,537,1,0,0.2,NaN,-0.442734255554806,-0.442734255554806,750,1,0,congruent,1,1520.76899633903,1101.2299111437
21,104,2,289,0.5,-0.5,0.5,2,4,0.2,3,469,0,1,NaN,1,0,0.6,NaN,-0.8311246999965,NaN,750,0,1,incongruent,1,920.558236157525,2341.74853908819
21,104,2,290,0.5,0.5,-0.5,3,3,0.2,4,565,0,1,NaN,0,0,1,NaN,-0.282808778431756,NaN,750,0,1,congruent,0,608.645250786565,4449.84487303947
21,104,2,291,-0.5,-0.5,-0.5,2,2,0.2,2,250,1,1,250,1,0,0.8,0.4,-2.08197039606607,-2.08197039606607,750,1,0,congruent,0.1,2670.18259282647,2205.49050739962
21,104,2,292,0.5,-0.5,-0.5,1,1,0.2,4,303,0,1,NaN,0,0,1,NaN,-1.77925431436887,NaN,750,0,1,congruent,0,6067.38636568417,990.598388723007
21,104,2,293,-0.5,-0.5,-0.5,3,3,0.2,3,733,1,1,733,0,0,1,0.4,0.676744084306548,0.676744084306548,750,1,0,congruent,0,336.830657962281,3225.81095961764
21,104,2,294,-0.5,-0.5,0.5,1,4,0.2,4,691,0,1,NaN,0,0,0.6,0.2,0.436855868621972,NaN,750,1,0,incongruent,0,1127.29113389046,2419.49921056739
21,104,2,295,0.5,-0.5,0,3,NaN,0.2,4,691,0,1,NaN,0,0,0.2,NaN,0.436855868621972,NaN,750,0,1,neutral,0,3202.72489993483,2176.79168892853
21,104,2,296,0.5,0.5,-0.5,2,2,0.2,3,550,0,1,NaN,0,0,0.2,NaN,-0.368483141176247,NaN,750,0,1,congruent,0,3218.35250770959,5303.02800309884
21,104,2,297,0.5,-0.5,-0.5,3,3,0.2,3,363,1,1,363,0,0,0,NaN,-1.43655686339091,-1.43655686339091,750,1,0,congruent,0,3317.29738493832,1422.46391286256
21,104,2,298,0.5,-0.5,-0.5,4,4,0.2,4,319,1,1,319,0,0,0,NaN,-1.68786832744141,-1.68786832744141,750,1,0,congruent,0,5550.05696637891,1821.60504007043
21,104,2,299,0.5,0.5,-0.5,3,3,0.2,3,706,1,1,706,1,0,0,NaN,0.522530231366463,0.522530231366463,750,1,0,congruent,1,799.105284322376,2681.16444656736
21,104,3,301,0.5,0.5,-0.5,3,3,0.2,1,568,0,1,NaN,0,0,0.4,NaN,-0.265673905882857,NaN,750,0,1,congruent,0,747.674933303774,2241.12838176241
21,104,3,302,-0.5,0.5,-0.5,1,1,0.2,1,678,1,1,678,1,0,0.4,0.6,0.362604754243413,0.362604754243413,750,1,0,congruent,0.1,1188.96104865532,2933.17351492128
21,104,3,303,-0.5,-0.5,0.5,4,3,0.4,3,755,0,0,NaN,1,0,0.6,0.2,0.802399816331802,NaN,750,1,0,incongruent,0.1,1271.1133317134,2623.70988550749
21,104,3,304,-0.5,0.5,-0.5,2,2,0.4,2,710,1,1,710,1,0,0.8,0.6,0.545376728098328,0.545376728098328,750,1,0,congruent,0.1,2711.57583146484,2087.19842876835
21,104,3,305,-0.5,-0.5,0.5,4,3,0.6,4,301,1,1,301,0,0,0.6,0.4,-1.7906775627348,-1.7906775627348,750,0,0,incongruent,0,2001.30582762318,2889.31893719432
21,104,3,306,-0.5,0.5,0,1,NaN,0.6,2,211,0,1,NaN,0,0,0.6,0.6,-2.30472373920175,NaN,750,0,1,neutral,0,2326.60273774014,3367.02373393982
21,104,3,307,0.5,-0.5,-0.5,2,2,0.4,3,615,0,1,NaN,0,0,0.6,NaN,0.00277243071654893,NaN,750,0,1,congruent,0,2421.03506657092,2805.34608675431
21,104,3,308,0.5,0.5,-0.5,1,1,0.4,1,435,1,1,435,1,0,0.4,NaN,-1.02531992221735,-1.02531992221735,750,1,0,congruent,1,2703.30893757992,456.476724512449
21,104,3,309,0.5,0.5,-0.5,3,3,0.6,2,421,0,1,NaN,0,0,0.6,NaN,-1.10528266077887,NaN,750,0,1,congruent,0,8852.68901080066,1321.01972755571
21,104,3,310,0.5,-0.5,-0.5,1,1,0.6,1,662,1,1,662,1,0,0.4,NaN,0.271218767315955,0.271218767315955,750,1,0,congruent,1,2402.43519489981,1525.44388405675
21,104,3,311,-0.5,-0.5,-0.5,4,4,0.6,3,593,0,1,NaN,1,0,0.8,0.4,-0.122883301308705,NaN,750,0,1,congruent,0.1,3714.44552660114,1041.01912272515
21,104,3,312,-0.5,-0.5,0.5,3,1,0.6,2,392,0,1,NaN,1,0,1,0.4,-1.27091976208489,NaN,750,0,1,incongruent,0.1,1445.53328425522,7780.08230090029
21,104,3,313,-0.5,-0.5,0,1,NaN,0.6,4,296,0,1,NaN,1,0,1.2,0.6,-1.81923568364963,NaN,750,0,1,neutral,0.1,365.199524038171,2619.03644289968
21,104,3,314,-0.5,0.5,0.5,2,4,0.6,3,790,0,0,NaN,0,0,1,0.6,1.00230666273561,NaN,750,0,1,incongruent,0,2872.91754366632,1092.14294395789
21,104,3,315,0.5,-0.5,-0.5,3,3,0.4,3,889,1,0,889,0,0,1,NaN,1.56775745684926,1.56775745684926,750,1,0,congruent,0,1739.63831928195,1466.50510891507
21,104,3,316,0.5,-0.5,-0.5,1,1,0.4,1,521,1,1,521,1,0,0.6,NaN,-0.534120242482264,-0.534120242482264,750,1,0,congruent,1,4219.04030109418,1050.17533314123
21,104,3,317,0.5,-0.5,-0.5,4,4,0.4,2,145,0,1,NaN,1,0,0.8,NaN,-2.68169093527751,NaN,750,0,1,congruent,1,4280.16916399194,2914.30290036421
21,104,3,318,-0.5,-0.5,0.5,2,1,0.4,4,140,0,1,NaN,1,0,1,0.8,-2.71024905619234,NaN,750,0,1,incongruent,0.1,2796.86591609279,942.466015239832
21,104,3,319,-0.5,-0.5,0.5,1,3,0.4,3,230,0,1,NaN,1,0,1,0.8,-2.1962028797254,NaN,750,1,0,incongruent,0.1,2122.08685013589,2213.45368752966
21,104,3,320,0.5,-0.5,-0.5,4,4,0.4,1,409,0,1,NaN,0,0,1.2,NaN,-1.17382215097447,NaN,750,0,1,congruent,0,828.303708804576,3074.70650691582
21,104,3,322,-0.5,-0.5,-0.5,1,1,0.4,4,648,0,1,NaN,0,0,0.8,0.8,0.19125602875443,NaN,750,0,1,congruent,0,711.426438321236,4119.77043120491
21,104,3,323,-0.5,0.5,0.5,2,4,0.4,2,672,1,1,672,1,0,0.4,0.4,0.328335009145616,0.328335009145616,750,0,0,incongruent,0.1,984.616267055366,2907.71263655178
21,104,3,324,-0.5,0.5,0,3,NaN,0.4,3,954,1,0,954,0,0,0.4,0.6,1.93901302874205,1.93901302874205,750,0,0,neutral,0,2161.75571443972,4908.39946368831
21,104,3,325,-0.5,-0.5,-0.5,2,2,0.4,1,662,0,1,NaN,0,0,0.2,0.6,0.271218767315955,NaN,750,0,1,congruent,0,2215.7145745118,2383.96226608903
21,104,3,326,0.5,-0.5,-0.5,3,3,0.4,3,337,1,1,337,0,0,0.2,NaN,-1.58505909214802,-1.58505909214802,750,1,0,congruent,0,1304.86838237633,7164.59949379905
21,104,3,327,0.5,-0.5,0,1,NaN,0.4,1,636,1,1,636,0,0,0.2,NaN,0.122716538558837,0.122716538558837,750,0,0,neutral,0,1062.06545615373,2392.1204552115
21,104,3,328,0.5,0.5,-0.5,2,2,0.4,3,650,0,1,NaN,0,0,0.2,NaN,0.202679277120362,NaN,750,0,1,congruent,0,1120.95793386036,1246.53755226374
21,104,3,329,-0.5,0.5,-0.5,4,4,0.2,3,497,0,1,NaN,0,0,0,0.4,-0.67119922287345,NaN,750,0,1,congruent,0,1203.9792448279,2765.14728977363
21,104,3,330,0.5,0.5,0.5,1,2,0.2,1,550,1,1,550,1,0,0,NaN,-0.368483141176247,-0.368483141176247,750,0,0,incongruent,1,675.122278649194,1445.67273142926
21,104,3,331,0.5,0.5,0.5,3,1,0.4,1,909,0,0,NaN,0,0,0.4,NaN,1.68198994050858,NaN,750,1,0,incongruent,0,4565.18750169531,1298.09409707803
21,104,3,332,-0.5,0.5,0.5,1,3,0.2,3,706,0,1,NaN,0,0,0.4,0.2,0.522530231366463,NaN,750,1,0,incongruent,0,619.756252408205,2762.58671300604
21,104,3,333,-0.5,0.5,-0.5,4,4,0.2,4,690,1,1,690,1,0,0.4,0.2,0.431144244439006,0.431144244439006,750,1,0,congruent,0.1,847.043748728615,685.345216906404
21,104,3,334,0.5,0.5,0.5,1,2,0.4,2,638,0,1,NaN,0,0,0.6,NaN,0.134139786924769,NaN,750,1,0,incongruent,0,1475.97571097182,3199.71872836071
21,104,3,335,-0.5,0.5,-0.5,4,4,0.4,4,764,1,0,764,0,0,0.6,0.4,0.853804433978497,0.853804433978497,750,1,0,congruent,0,2834.1766422662,1055.50545302142
21,104,3,336,0.5,-0.5,-0.5,2,2,0.2,3,640,0,1,NaN,0,0,0.2,NaN,0.145563035290701,NaN,750,0,1,congruent,0,1191.77643231269,1302.01099029264
21,104,3,337,-0.5,0.5,0.5,4,3,0.2,3,708,0,1,NaN,0,0,0.2,0.2,0.533953479732395,NaN,750,1,0,incongruent,0,618.486417355237,2792.45291304862
21,104,3,338,-0.5,0.5,0.5,3,2,0.2,4,687,0,1,NaN,0,0,0.2,0.2,0.414009371890108,NaN,750,0,1,incongruent,0,3344.09339246652,3741.46516948484
21,104,3,343,0.5,0.5,0,3,NaN,0.8,3,717,1,1,717,1,0,1.4,NaN,0.58535809737909,0.58535809737909,750,0,0,neutral,1,1871.03286392829,4352.91649892972
21,104,3,345,-0.5,0.5,-0.5,1,1,1,2,629,0,1,NaN,0,0,1.8,0.4,0.0827351692780742,NaN,750,0,1,congruent,0,4609.95450521178,3654.84715684649
21,104,3,346,-0.5,0.5,0,4,NaN,0.8,3,522,0,1,NaN,0,0,1.4,0.2,-0.528408618299298,NaN,750,0,1,neutral,0,2543.03629558538,1126.69726661844
21,104,3,348,0.5,0.5,0,2,NaN,0.4,3,565,0,1,NaN,0,0,0.8,NaN,-0.282808778431756,NaN,750,0,1,neutral,0,4535.8350425789,1837.39118837735
21,104,3,349,-0.5,-0.5,-0.5,4,4,0.2,4,413,1,1,413,0,0,0.4,0.4,-1.1509756542426,-1.1509756542426,750,1,0,congruent,0,5692.01934068895,1157.8579112158
21,104,3,350,-0.5,-0.5,0,2,NaN,0.2,3,570,0,1,NaN,0,0,0,0.2,-0.254250657516925,NaN,750,0,1,neutral,0,3842.09565677856,4590.0396733776
21,104,3,352,-0.5,0.5,0,2,NaN,0.2,2,531,1,1,531,1,0,0,0.2,-0.477004000652603,-0.477004000652603,750,0,0,neutral,0.1,2356.0082114909,1568.13992611051
21,104,3,353,0.5,-0.5,0.5,4,2,0.2,4,262,1,1,262,0,0,0.2,NaN,-2.01343090587048,-2.01343090587048,750,0,0,incongruent,0,1113.85731444827,4724.16452678031
21,104,3,354,-0.5,-0.5,-0.5,1,1,0.2,3,279,0,1,NaN,0,0,0.2,0,-1.91633329476006,NaN,750,0,1,congruent,0,1457.61145419682,2177.9913363442
21,104,3,355,-0.5,-0.5,-0.5,3,3,0.2,2,592,0,1,NaN,0,0,0.2,0,-0.128594925491671,NaN,750,0,1,congruent,0,3961.653144826,1751.88845333668
21,104,3,356,-0.5,0.5,0.5,1,4,0.2,2,808,0,0,NaN,0,0,0.2,0.4,1.105115898029,NaN,750,0,1,incongruent,0,3459.58599465629,4462.11418787034
21,104,3,357,0.5,-0.5,-0.5,3,3,0.2,1,631,0,1,NaN,0,0,0.2,NaN,0.0941584176440064,NaN,750,0,1,congruent,0,1975.61372843636,1311.47599631273
21,104,3,358,0.5,-0.5,0.5,4,1,0.2,3,773,0,0,NaN,0,0,0,NaN,0.905209051625191,NaN,750,0,1,incongruent,0,3148.15296922248,5410.27587246677
21,104,3,359,0.5,0.5,-0.5,2,2,0.2,2,606,1,1,606,1,0,0,NaN,-0.0486321869301459,-0.0486321869301459,750,1,0,congruent,1,2118.57713783269,883.772549958236
21,104,3,360,0.5,0.5,0.5,3,1,0.4,1,683,0,1,NaN,0,0,0.4,NaN,0.391162875158243,NaN,750,1,0,incongruent,0,2667.32989111132,3050.06294872267
21,104,3,361,-0.5,-0.5,0.5,4,2,0.4,3,706,0,1,NaN,0,0,0.4,0,0.522530231366463,NaN,750,0,1,incongruent,0,2671.27093113265,1990.78092948909
21,104,3,362,-0.5,-0.5,0,2,NaN,0.4,2,539,1,1,539,1,0,0.4,0,-0.431311007188874,-0.431311007188874,750,0,0,neutral,0.1,2661.8120859577,2506.30182512285
21,104,3,363,0.5,-0.5,-0.5,4,4,0.4,4,462,1,1,462,0,0,0.6,NaN,-0.871106069277263,-0.871106069277263,750,1,0,congruent,0,1231.60890366243,1168.08058753322
21,104,3,364,0.5,0.5,-0.5,3,3,0.4,2,588,0,1,NaN,0,0,0.6,NaN,-0.151441422223536,NaN,750,0,1,congruent,0,1898.48011812577,3483.98354185413
21,104,3,365,0.5,-0.5,0.5,2,1,0.4,1,617,0,1,NaN,1,0,0.2,NaN,0.0141956790824811,NaN,750,1,0,incongruent,1,854.485361696184,6197.16127711076
21,104,3,366,-0.5,0.5,-0.5,4,4,0.4,3,618,0,1,NaN,0,0,0.6,0.2,0.0199073032654472,NaN,750,0,1,congruent,0,5336.28313390866,951.850512757288
21,104,3,367,0.5,0.5,-0.5,2,2,0.2,1,443,0,1,NaN,0,0,0.6,NaN,-0.979626928753619,NaN,750,0,1,congruent,0,3419.85518788635,3250.95898088361
21,104,3,368,0.5,0.5,-0.5,3,3,0.2,3,581,1,1,581,1,0,0.4,NaN,-0.191422791504298,-0.191422791504298,750,1,0,congruent,1,2106.97373441623,2293.8126406736
21,104,3,369,0.5,-0.5,-0.5,1,1,0.2,1,411,1,1,411,0,0,0.8,NaN,-1.16239890260853,-1.16239890260853,750,1,0,congruent,0,838.003638274636,2563.88702688573
21,104,3,370,0.5,-0.5,0.5,3,2,0.2,3,577,1,1,577,0,0,0.8,NaN,-0.214269288236163,-0.214269288236163,750,0,0,incongruent,0,1683.22042746011,4176.30963391954
21,104,3,371,0.5,0.5,-0.5,1,1,0.2,1,530,1,1,530,1,0,0.4,NaN,-0.482715624835569,-0.482715624835569,750,1,0,congruent,1,1362.35642345215,4283.61670179132
21,104,3,372,0.5,-0.5,-0.5,2,2,0.4,4,201,0,1,NaN,0,0,0.8,NaN,-2.36183998103141,NaN,750,0,1,congruent,0,699.780222640201,891.273582332213
21,104,3,373,0.5,-0.5,0.5,3,4,0.4,1,712,0,1,NaN,0,0,0.8,NaN,0.55679997646426,NaN,750,0,1,incongruent,0,693.743405970449,1030.23829667391
21,104,3,374,0.5,0.5,0,2,NaN,0.4,3,699,0,1,NaN,0,0,0.4,NaN,0.482548862085701,NaN,750,0,1,neutral,0,2987.13230775202,2229.02535076896
21,104,3,375,0.5,0.5,-0.5,1,1,0.4,1,460,1,1,460,1,0,0.4,NaN,-0.882529317643195,-0.882529317643195,750,1,0,congruent,1,291.884920860373,1340.60173308289
21,104,3,376,-0.5,0.5,-0.5,2,2,0.6,2,809,1,0,809,0,0,0.8,0.2,1.11082752221197,1.11082752221197,750,1,0,congruent,0,845.547352664705,1706.65392937314
21,104,3,377,-0.5,-0.5,-0.5,1,1,0.6,1,418,1,1,418,1,0,0.4,0.2,-1.12241753332777,-1.12241753332777,750,1,0,congruent,0.1,2442.81966483891,1561.2953928883
21,104,3,378,-0.5,0.5,0,4,NaN,0.6,3,816,0,0,NaN,0,0,0.6,0.2,1.15080889149273,NaN,750,0,1,neutral,0,2244.23315978624,964.857239090892
21,104,3,379,-0.5,-0.5,-0.5,3,3,0.4,2,618,0,1,NaN,0,0,0.6,0.4,0.0199073032654472,NaN,750,0,1,congruent,0,2032.98482380128,1228.40493520438
21,104,3,380,0.5,-0.5,0.5,1,2,0.4,3,741,0,1,NaN,1,0,0.6,NaN,0.722437077770276,NaN,750,0,1,incongruent,1,1008.28097652072,1008.13158228045
21,104,3,381,-0.5,0.5,0,4,NaN,0.4,4,933,1,0,933,0,0,0.6,0.2,1.81906892089977,1.81906892089977,750,0,0,neutral,0,4287.94414707986,1270.13804289862
21,104,3,382,0.5,-0.5,-0.5,1,1,0.2,1,597,1,1,597,0,0,0.6,NaN,-0.100036804576841,-0.100036804576841,750,1,0,congruent,0,3271.71721976287,3862.48144910413
21,104,3,383,0.5,-0.5,0.5,3,4,0.2,3,475,1,1,475,0,0,0.4,NaN,-0.796854954898704,-0.796854954898704,750,0,0,incongruent,0,1565.24557679731,1568.6792647858
21,104,3,384,-0.5,-0.5,0,2,NaN,0.2,2,575,1,1,575,0,0,0.4,0.4,-0.225692536602095,-0.225692536602095,750,0,0,neutral,0,2674.07011595632,5421.17838546774
21,104,3,385,-0.5,0.5,0.5,3,4,0.2,4,214,0,1,NaN,0,0,0.4,0,-2.28758886665285,NaN,750,1,0,incongruent,0,2749.55172212303,608.606333117136
21,104,3,386,-0.5,-0.5,0.5,4,3,0.2,3,627,0,1,NaN,0,0,0,0.4,0.071311920912142,NaN,750,1,0,incongruent,0,767.597053400474,4922.18442531268
21,104,3,387,0.5,-0.5,0.5,3,4,0.2,1,479,0,1,NaN,1,0,0,NaN,-0.774008458166839,NaN,750,0,1,incongruent,1,4220.04396639678,1871.2298693251
21,104,3,388,0.5,-0.5,0,1,NaN,0.2,1,614,1,1,614,0,0,0.4,NaN,-0.00293919346641717,-0.00293919346641717,750,0,0,neutral,0,2136.83048617736,1288.99048139951
21,104,3,389,-0.5,0.5,-0.5,3,3,0.2,3,458,1,1,458,1,0,0.4,0,-0.893952566009127,-0.893952566009127,750,1,0,congruent,0.1,641.325171780817,1846.11486118191
21,104,3,390,0.5,-0.5,-0.5,4,4,0.2,3,574,0,1,NaN,0,0,0.6,NaN,-0.231404160785061,NaN,750,0,1,congruent,0,2087.10351854523,728.221140169828
21,104,3,391,0.5,0.5,-0.5,3,3,0.2,3,601,1,1,601,1,0,0.6,NaN,-0.0771903078449764,-0.0771903078449764,750,1,0,congruent,1,584.692647752327,2671.1387500678
21,104,3,392,-0.5,-0.5,-0.5,1,1,0.4,1,666,1,1,666,0,0,1,0.4,0.29406526404782,0.29406526404782,750,1,0,congruent,0,1096.54641087921,4297.19301382487
21,104,3,393,-0.5,-0.5,-0.5,3,3,0.4,1,587,0,1,NaN,1,0,0.6,0.2,-0.157153046406502,NaN,750,0,1,congruent,0.1,1701.61744081427,1707.77962788813
21,104,3,394,-0.5,0.5,0.5,2,1,0.4,2,926,1,0,926,0,0,0.8,0.2,1.779087551619,1.779087551619,750,0,0,incongruent,0,1164.4934494458,1004.55773958459
21,104,3,395,0.5,0.5,0.5,3,4,0.4,3,887,1,0,887,0,0,0.6,NaN,1.55633420848333,1.55633420848333,750,0,0,incongruent,0,581.788835696816,6231.14133169307
21,104,3,396,0.5,0.5,0,2,NaN,0.4,2,756,1,0,756,0,0,0.6,NaN,0.808111440514768,0.808111440514768,750,0,0,neutral,0,487.347588182832,2657.09720795037
21,104,3,397,-0.5,0.5,-0.5,3,3,0.4,3,702,1,1,702,1,0,0.2,0.2,0.499683734634599,0.499683734634599,750,1,0,congruent,0.1,7812.15781265685,2075.40173635401
21,104,3,398,0.5,-0.5,-0.5,4,4,0.4,2,482,0,1,NaN,1,0,0.4,NaN,-0.756873585617941,NaN,750,0,1,congruent,1,637.217936060754,618.448175978577
21,104,3,399,-0.5,0.5,0,1,NaN,0.4,2,699,0,1,NaN,0,0,0.6,0.4,0.482548862085701,NaN,750,0,1,neutral,0,1678.61290960963,5081.24968592457
21,104,3,400,-0.5,0.5,0.5,4,2,0.2,3,519,0,1,NaN,0,0,0.6,0.4,-0.545543490848196,NaN,750,0,1,incongruent,0,792.370303660177,987.796243032298
21,104,3,401,-0.5,0.5,-0.5,3,3,0.2,2,368,0,1,NaN,0,0,0.6,0.4,-1.40799874247608,NaN,750,0,1,congruent,0,1523.29999323452,462.651925926375
21,104,3,403,-0.5,-0.5,-0.5,4,4,0.2,3,833,0,0,NaN,1,0,0.4,0.2,1.24790650260316,NaN,750,0,1,congruent,0.1,3065.86602900966,1984.51320266122
21,104,3,404,0.5,-0.5,-0.5,2,2,0.2,3,273,0,1,NaN,0,0,0.2,NaN,-1.95060303985785,NaN,750,0,1,congruent,0,3309.67069432083,1303.59913391239
21,104,3,406,0.5,-0.5,-0.5,3,3,0.2,2,463,0,1,NaN,0,0,0.4,NaN,-0.865394445094297,NaN,750,0,1,congruent,0,751.337787345069,892.268164051846
21,104,3,407,0.5,0.5,0.5,1,2,0.2,3,509,0,1,NaN,0,0,0.4,NaN,-0.602659732677857,NaN,750,0,1,incongruent,0,1061.08216913366,1351.43951174797
21,104,3,408,-0.5,0.5,0,3,NaN,0,3,857,1,0,857,0,0,0.4,0.2,1.38498548299434,1.38498548299434,750,0,0,neutral,0,1758.14814147298,1636.16696278116
21,104,3,409,0.5,-0.5,0.5,4,3,0,4,617,1,1,617,0,0,0.2,NaN,0.0141956790824811,0.0141956790824811,750,0,0,incongruent,0,2600.36095300305,3017.42661779788
21,104,3,410,-0.5,-0.5,0,2,NaN,0,3,706,0,1,NaN,0,0,0.2,0.6,0.522530231366463,NaN,750,0,1,neutral,0,2438.45978904189,3034.10781456247
21,104,3,411,0.5,-0.5,-0.5,3,3,0,3,600,1,1,600,0,0,0,NaN,-0.0829019320279425,-0.0829019320279425,750,1,0,congruent,0,12246.175478498,2338.94201478182
21,104,3,412,-0.5,0.5,-0.5,4,4,0,3,221,0,1,NaN,0,0,0,0.2,-2.24760749737209,NaN,750,0,1,congruent,0,996.302283502714,6208.95591277457
21,104,3,413,-0.5,0.5,0.5,2,1,0,1,624,0,1,NaN,0,0,0,0,0.0541770483632438,NaN,750,1,0,incongruent,0,1301.47762375211,1636.86417141512
21,104,3,414,0.5,0.5,0.5,1,4,0,4,586,0,1,NaN,0,0,0,NaN,-0.162864670589468,NaN,750,1,0,incongruent,0,1045.57019732186,1705.18013087315
21,104,3,415,0.5,0.5,0,3,NaN,0,3,570,1,1,570,1,0,0,NaN,-0.254250657516925,-0.254250657516925,750,0,0,neutral,1,1264.12182170414,1076.51246883976
21,104,3,416,0.5,-0.5,-0.5,4,4,0.2,4,673,1,1,673,0,0,0.4,NaN,0.334046633328582,0.334046633328582,750,1,0,congruent,0,3738.48227697242,11984.4767823544
21,104,3,417,-0.5,0.5,0,2,NaN,0.2,2,605,1,1,605,1,0,0.4,0,-0.054343811113112,-0.054343811113112,750,0,0,neutral,0.1,2126.62430904966,3750.77151747348
21,104,3,418,-0.5,0.5,-0.5,1,1,0.4,3,533,0,1,NaN,0,0,0.6,0.2,-0.465580752286671,NaN,750,0,1,congruent,0,2924.29795444946,2917.83994808848
21,104,3,420,0.5,-0.5,0,3,NaN,0.4,2,624,0,1,NaN,0,0,0.6,NaN,0.0541770483632438,NaN,750,0,1,neutral,0,1052.36167829113,917.799255179546
21,104,3,421,0.5,-0.5,-0.5,4,4,0.4,3,294,0,1,NaN,0,0,0.2,NaN,-1.83065893201557,NaN,750,0,1,congruent,0,653.56429072682,2295.85176012684
21,104,3,422,-0.5,-0.5,0,1,NaN,0.4,4,615,0,1,NaN,0,0,0.2,0.6,0.00277243071654893,NaN,750,0,1,neutral,0,3683.02881021161,1448.65189855395
21,104,3,423,0.5,0.5,-0.5,4,4,0.4,3,678,0,1,NaN,0,0,0,NaN,0.362604754243413,NaN,750,0,1,congruent,0,1879.57279259753,1004.99429671177
21,104,3,424,0.5,-0.5,0,1,NaN,0.4,1,579,1,1,579,0,0,0,NaN,-0.20284603987023,-0.20284603987023,750,0,0,neutral,0,744.657173475694,2163.35698259043
21,104,3,425,0.5,0.5,-0.5,3,3,0.4,2,564,0,1,NaN,0,0,0,NaN,-0.288520402614722,NaN,750,0,1,congruent,0,3320.72086964686,4125.49213013693
21,104,3,426,-0.5,0.5,0,2,NaN,0.2,1,590,0,1,NaN,0,0,0,0.2,-0.140018173857603,NaN,750,0,1,neutral,0,3905.38416219878,2325.93796386331
21,104,3,427,0.5,0.5,0.5,4,2,0,4,678,1,1,678,1,0,0,NaN,0.362604754243413,0.362604754243413,750,0,0,incongruent,1,1862.96462531446,1834.03704922359
21,104,3,428,-0.5,0.5,-0.5,3,3,0.2,2,779,0,0,NaN,0,0,0.4,0.2,0.939478796722988,NaN,750,0,1,congruent,0,1026.44072593303,2602.09247660172
21,104,3,429,-0.5,0.5,-0.5,2,2,0.2,3,717,0,1,NaN,0,0,0.4,0.2,0.58535809737909,NaN,750,0,1,congruent,0,2886.26009926319,1210.95541691302
21,104,3,430,0.5,-0.5,-0.5,3,3,0.2,3,751,1,0,751,0,0,0.4,NaN,0.779553319599937,0.779553319599937,750,1,0,congruent,0,948.440036868687,5096.88751185914
21,104,3,431,-0.5,0.5,-0.5,2,2,0.2,2,618,1,1,618,1,0,0.4,0.2,0.0199073032654472,0.0199073032654472,750,1,0,congruent,0.1,588.662214423844,1634.55864330414
21,104,3,432,0.5,0.5,0,1,NaN,0.4,3,630,0,1,NaN,0,0,0.6,NaN,0.0884467934610403,NaN,750,0,1,neutral,0,3173.01204509136,445.877261126492
21,104,3,433,-0.5,-0.5,-0.5,3,3,0.4,2,732,0,1,NaN,0,0,0.2,0.6,0.671032460123582,NaN,750,0,1,congruent,0,1446.62370595847,657.391308621499
21,104,3,434,-0.5,-0.5,0,2,NaN,0.4,3,786,0,0,NaN,0,0,0.2,0.4,0.979460166003751,NaN,750,0,1,neutral,0,1921.07993567304,3240.07167563405
21,104,3,435,0.5,0.5,0.5,3,4,0.4,4,628,0,1,NaN,0,0,0.2,NaN,0.0770235450951081,NaN,750,1,0,incongruent,0,1650.91701930334,2786.47030588773
21,104,3,436,0.5,0.5,0,2,NaN,0.2,2,517,1,1,517,1,0,0.2,NaN,-0.556966739214128,-0.556966739214128,750,0,0,neutral,1,2125.51974301978,1703.96566507539
21,104,3,437,-0.5,0.5,-0.5,3,3,0.4,3,797,1,0,797,0,0,0.4,0.2,1.04228803201638,1.04228803201638,750,1,0,congruent,0,2653.08040243599,1403.74496971829
21,104,3,439,-0.5,-0.5,-0.5,3,3,0.2,4,361,0,1,NaN,0,0,0.4,0.2,-1.44798011175684,NaN,750,0,1,congruent,0,2038.39420422574,1046.82728189922
21,104,3,440,0.5,-0.5,-0.5,1,1,0.2,2,265,0,1,NaN,0,0,0.4,NaN,-1.99629603332158,NaN,750,0,1,congruent,0,3004.8232943089,1789.914178073
21,104,3,441,-0.5,0.5,-0.5,3,3,0.2,3,572,1,1,572,1,0,0.4,0.2,-0.242827409150993,-0.242827409150993,750,1,0,congruent,0.1,1430.21766172528,2075.77008750426
21,104,3,442,0.5,-0.5,0,1,NaN,0.4,2,483,0,1,NaN,0,0,0.2,NaN,-0.751161961434975,NaN,750,0,1,neutral,0,1586.96708804254,2239.1279521445
21,104,3,443,0.5,0.5,0.5,3,1,0.4,3,760,1,0,760,0,0,0.2,NaN,0.830957937246632,0.830957937246632,750,0,0,incongruent,0,611.337893201502,1692.15552825966
21,104,3,444,-0.5,0.5,0.5,1,2,0.4,4,552,0,1,NaN,0,0,0.2,0.4,-0.357059892810315,NaN,750,0,1,incongruent,0,3778.75122776702,3116.00647355013
21,104,3,445,0.5,-0.5,0.5,3,1,0.2,1,606,0,1,NaN,0,0,0.2,NaN,-0.0486321869301459,NaN,750,1,0,incongruent,0,3556.81366873427,2567.36050430469
21,104,3,446,-0.5,-0.5,0.5,1,3,0.2,3,512,0,1,NaN,0,0,0.2,0,-0.585524860128959,NaN,750,1,0,incongruent,0,1800.0104614621,5187.70066839006
21,104,3,447,0.5,-0.5,0,4,NaN,0.2,4,262,1,1,262,1,0,0,NaN,-2.01343090587048,-2.01343090587048,750,0,0,neutral,1,2666.27082259286,1041.23474525162
21,104,3,448,0.5,-0.5,0.5,1,3,0.2,2,664,0,1,NaN,0,0,0.4,NaN,0.282642015681887,NaN,750,0,1,incongruent,0,4261.91278063909,1660.31768420847
21,104,3,449,0.5,0.5,-0.5,2,2,0.2,3,595,0,1,NaN,0,0,0.4,NaN,-0.111460052942773,NaN,750,0,1,congruent,0,1079.44450705995,1430.10610222656
21,104,3,450,0.5,-0.5,-0.5,3,3,0.2,3,299,1,1,299,1,0,0.4,NaN,-1.80210081110074,-1.80210081110074,750,1,0,congruent,1,1596.88318785508,1584.15425235456
21,104,4,451,-0.5,-0.5,-0.5,1,1,0.2,4,218,0,1,NaN,0,0,0.8,0,-2.26474236992099,NaN,750,0,1,congruent,0,2968.88370708804,958.07259666724
21,104,4,452,0.5,0.5,-0.5,3,3,0.2,2,597,0,1,NaN,0,0,0.8,NaN,-0.100036804576841,NaN,750,0,1,congruent,0,783.868407038615,2555.67192219744
21,104,4,454,0.5,0.5,-0.5,4,4,0.2,4,468,1,1,468,1,0,0.8,NaN,-0.836836324179467,-0.836836324179467,750,1,0,congruent,1,4696.57328253222,1061.10455658627
21,104,4,455,-0.5,0.5,-0.5,3,3,0.4,4,649,0,1,NaN,0,0,1.2,0.4,0.196967652937396,NaN,750,0,1,congruent,0,1316.8941540468,1302.7626869585
21,104,4,456,-0.5,0.5,-0.5,4,4,0.4,4,580,1,1,580,1,0,0.8,0.4,-0.197134415687264,-0.197134415687264,750,1,0,congruent,0.1,458.300363590656,4050.03724922276
21,104,4,457,-0.5,0.5,0.5,2,1,0.6,3,849,0,0,NaN,0,0,1,0.4,1.33929248953061,NaN,750,0,1,incongruent,0,3557.26816580905,5699.47584186146
21,104,4,458,-0.5,-0.5,0,3,NaN,0.6,4,821,0,0,NaN,1,0,1,0,1.17936701240756,NaN,750,0,1,neutral,0.1,1702.44564261481,8876.74974024642
21,104,4,459,-0.5,0.5,-0.5,2,2,0.6,2,889,1,0,889,0,0,0.8,0.4,1.56775745684926,1.56775745684926,750,1,0,congruent,0,2016.50419105119,2388.60644370517
21,104,4,460,-0.5,-0.5,0,4,NaN,0.4,4,633,1,1,633,0,0,0.4,0.2,0.105581666009939,0.105581666009939,750,0,0,neutral,0,803.03863382987,1779.96498537403
21,104,4,461,-0.5,0.5,-0.5,2,2,0.4,2,547,1,1,547,1,0,0.4,0.2,-0.385618013725145,-0.385618013725145,750,1,0,congruent,0.1,2770.27337345685,2586.22908736477
21,104,4,462,0.5,0.5,0.5,1,3,0.4,2,747,0,1,NaN,0,0,0.4,NaN,0.756706822868073,NaN,750,0,1,incongruent,0,641.676793188063,1940.92480563492
21,104,4,463,-0.5,-0.5,0,3,NaN,0.4,3,803,1,0,803,1,0,0.4,0.2,1.07655777711417,1.07655777711417,750,0,0,neutral,0.1,1146.10080793573,957.767825973991
21,104,4,464,-0.5,-0.5,-0.5,1,1,0.4,1,613,1,1,613,1,0,0.4,0.4,-0.00865081764938326,-0.00865081764938326,750,1,0,congruent,0.1,1255.56475722958,7476.00553524807
21,104,4,465,-0.5,-0.5,0.5,2,4,0.4,4,798,0,0,NaN,1,0,0.6,0.6,1.04799965619934,NaN,750,1,0,incongruent,0.1,1510.36347994995,4732.79059243507
21,104,4,467,0.5,0.5,-0.5,3,3,0.4,3,613,1,1,613,1,0,1,NaN,-0.00865081764938326,-0.00865081764938326,750,1,0,congruent,1,1353.09998221167,2616.46676131867
21,104,4,468,0.5,0.5,0,1,NaN,0.4,1,360,1,1,360,1,0,1.4,NaN,-1.4536917359398,-1.4536917359398,750,0,0,neutral,1,1970.8293174628,3630.98983943679
21,104,4,469,0.5,0.5,-0.5,3,3,0.6,3,629,1,1,629,1,0,1.6,NaN,0.0827351692780742,0.0827351692780742,750,1,0,congruent,1,3583.71720826294,2618.37199945995
21,104,4,470,0.5,-0.5,-0.5,2,2,0.8,1,707,0,1,NaN,0,0,1.8,NaN,0.528241855549429,NaN,750,0,1,congruent,0,2528.73160858695,1392.77250520723
21,104,4,471,-0.5,0.5,0,3,NaN,0.8,3,675,1,1,675,1,0,1.6,0.4,0.345469881694514,0.345469881694514,750,0,0,neutral,0.1,2565.00016343782,1550.90162577221
21,104,4,473,0.5,-0.5,0.5,2,3,0.8,2,468,1,1,468,0,0,1.2,NaN,-0.836836324179467,-0.836836324179467,750,0,0,incongruent,0,2257.84290680308,2389.32350843744
21,104,4,474,-0.5,-0.5,-0.5,1,1,0.8,3,770,0,0,NaN,1,0,0.8,0.8,0.888074179076293,NaN,750,0,1,congruent,0.1,1579.42893091711,4326.62213118933
21,104,4,475,0.5,-0.5,0.5,3,2,0.8,3,606,1,1,606,0,0,0.6,NaN,-0.0486321869301459,-0.0486321869301459,750,0,0,incongruent,0,1693.75985311809,3052.25191380799
21,104,4,476,0.5,-0.5,-0.5,1,1,0.8,1,33,1,1,33,0,0,0.6,NaN,-3.32139284376972,-3.32139284376972,750,1,0,congruent,0,2463.3692683502,1145.29905596261
21,104,4,477,-0.5,-0.5,0,2,NaN,0.8,3,608,0,1,NaN,0,0,0.4,1,-0.0372089385642137,NaN,750,0,1,neutral,0,3077.30057738716,4292.38755357958
21,104,4,479,-0.5,0.5,0,3,NaN,0.8,2,786,0,0,NaN,0,0,0.6,0.6,0.979460166003751,NaN,750,0,1,neutral,0,1901.32774325043,1833.656909353
21,104,4,480,0.5,0.5,-0.5,2,2,0.8,3,715,0,1,NaN,0,0,0.4,NaN,0.573934849013158,NaN,750,0,1,congruent,0,1622.21486674868,3703.89710873363
21,104,4,482,0.5,-0.5,-0.5,4,4,0.6,4,480,1,1,480,0,0,0.8,NaN,-0.768296833983873,-0.768296833983873,750,1,0,congruent,0,4395.57817478824,1886.56659275667
21,104,4,483,-0.5,0.5,-0.5,1,1,0.6,1,602,1,1,602,1,0,0.8,0.4,-0.0714786836620103,-0.0714786836620103,750,1,0,congruent,0.1,2260.86579524927,1108.28143479873
21,104,4,484,0.5,-0.5,0,3,NaN,0.6,3,529,1,1,529,0,0,0.6,NaN,-0.488427249018535,-0.488427249018535,750,0,0,neutral,0,1539.57196336955,4573.37322545957
21,104,4,485,0.5,-0.5,-0.5,4,4,0.6,2,713,0,1,NaN,0,0,0.6,NaN,0.562511600647226,NaN,750,0,1,congruent,0,1170.92693181677,1541.97757978347
21,104,4,486,-0.5,-0.5,0,1,NaN,0.6,3,857,0,0,NaN,0,0,0.6,0.8,1.38498548299434,NaN,750,0,1,neutral,0,1611.50148061977,1017.55756578301
21,104,4,487,0.5,-0.5,0.5,4,1,0.6,3,308,0,1,NaN,1,0,0.2,NaN,-1.75069619345404,NaN,750,0,1,incongruent,1,4633.48671313547,1452.31362771
21,104,4,488,-0.5,-0.5,0.5,2,3,0.6,3,658,0,1,NaN,0,0,0.6,0.6,0.248372270584091,NaN,750,1,0,incongruent,0,2947.39377544386,1299.86872590845
21,104,4,489,0.5,0.5,-0.5,1,1,0.6,1,648,1,1,648,1,0,0.4,NaN,0.19125602875443,0.19125602875443,750,1,0,congruent,1,2593.10954404986,5533.42697551559
21,104,4,490,0.5,-0.5,-0.5,4,4,0.6,3,467,0,1,NaN,1,0,0.8,NaN,-0.842547948362433,NaN,750,0,1,congruent,1,6806.59470899687,3709.90033079861
21,104,4,491,0.5,-0.5,-0.5,1,1,0.6,1,587,1,1,587,0,0,1.2,NaN,-0.157153046406502,-0.157153046406502,750,1,0,congruent,0,875.940214474693,6625.16319548631
21,104,4,492,0.5,-0.5,0,3,NaN,0.6,2,420,0,1,NaN,1,0,1.2,NaN,-1.11099428496184,NaN,750,0,1,neutral,1,490.881013033598,1701.35627158565
21,104,4,493,0.5,-0.5,-0.5,2,2,0.6,4,649,0,1,NaN,1,0,1.2,NaN,0.196967652937396,NaN,750,0,1,congruent,1,889.754865407663,1594.08159186644
21,104,4,494,-0.5,0.5,0,3,NaN,0.6,1,936,0,0,NaN,0,0,1.6,0.6,1.83620379344866,NaN,750,0,1,neutral,0,3926.33707909614,3205.25099261134
21,104,4,497,-0.5,-0.5,0.5,4,2,0.4,3,655,0,1,NaN,0,0,0.8,0.4,0.231237398035193,NaN,750,0,1,incongruent,0,1185.44674874878,3121.00431201744
21,104,4,498,0.5,0.5,-0.5,1,1,0.4,1,544,1,1,544,1,0,0.4,NaN,-0.402752886274044,-0.402752886274044,750,1,0,congruent,1,1433.26082896795,1103.38915309646
21,104,4,499,-0.5,-0.5,0.5,2,3,0.4,3,616,0,1,NaN,1,0,0.4,0.2,0.00848405489951502,NaN,750,1,0,incongruent,0.1,1742.04901038658,3155.13673515745
21,104,4,500,0.5,-0.5,-0.5,1,1,0.4,2,541,0,1,NaN,0,0,0.6,NaN,-0.419887758822942,NaN,750,0,1,congruent,0,2096.63919365995,2576.85805273327
21,104,4,501,0.5,-0.5,-0.5,4,4,0.4,3,547,0,1,NaN,0,0,0.6,NaN,-0.385618013725145,NaN,750,0,1,congruent,0,1481.49769016116,1804.16101070897
21,104,4,502,-0.5,0.5,-0.5,2,2,0.4,3,617,0,1,NaN,0,0,0.6,0.2,0.0141956790824811,NaN,750,0,1,congruent,0,2315.93437853746,1427.05167822519
21,104,4,503,0.5,0.5,0,1,NaN,0.2,1,565,1,1,565,1,0,0.6,NaN,-0.282808778431756,-0.282808778431756,750,0,0,neutral,1,881.298250304453,546.677310380829
21,104,4,505,-0.5,-0.5,-0.5,4,4,0.4,4,668,1,1,668,0,0,0.4,0.2,0.305488512413752,0.305488512413752,750,1,0,congruent,0,2123.45400364134,5652.33084464464
21,104,4,506,-0.5,-0.5,0,1,NaN,0.4,3,680,0,1,NaN,1,0,0.4,0.2,0.374028002609345,NaN,750,0,1,neutral,0.1,4222.8963059036,2037.07171844374
21,104,4,507,-0.5,-0.5,-0.5,4,4,0.4,3,980,0,0,NaN,1,0,0.6,0.4,2.08751525749917,NaN,750,0,1,congruent,0.1,3340.28039478872,478.642890756043
21,104,4,508,0.5,0.5,0.5,1,2,0.4,3,813,0,0,NaN,0,0,0.8,NaN,1.13367401894384,NaN,750,0,1,incongruent,0,1913.89025629253,2267.5575746026
21,104,4,509,0.5,0.5,0.5,3,4,0.4,4,613,0,1,NaN,0,0,0.4,NaN,-0.00865081764938326,NaN,750,1,0,incongruent,0,3347.5785397046,2845.15862677043
21,104,4,510,0.5,0.5,0,1,NaN,0.2,1,582,1,1,582,1,0,0.4,NaN,-0.185711167321332,-0.185711167321332,750,0,0,neutral,1,818.462238625339,1521.17880228067
21,104,4,511,-0.5,-0.5,0.5,4,2,0.4,2,375,0,1,NaN,1,0,0.8,0.6,-1.36801737319531,NaN,750,1,0,incongruent,0.1,2006.50509201166,5987.49950437498
21,104,4,513,0.5,0.5,-0.5,4,4,0.4,4,734,1,1,734,1,0,0.6,NaN,0.682455708489514,0.682455708489514,750,1,0,congruent,1,1478.76966786323,1857.60339074981
21,104,4,515,-0.5,0.5,0.5,1,4,0.4,3,658,0,1,NaN,0,0,1.2,0.2,0.248372270584091,NaN,750,0,1,incongruent,0,3484.65676145457,4780.04867359198
21,104,4,516,0.5,-0.5,0.5,3,2,0.4,4,838,0,0,NaN,0,0,0.8,NaN,1.27646462351799,NaN,750,0,1,incongruent,0,1475.83443138213,2840.60275942557
21,104,4,517,-0.5,-0.5,-0.5,4,4,0.4,3,576,0,1,NaN,1,0,0.6,0.8,-0.219980912419129,NaN,750,0,1,congruent,0.1,635.792119909317,2431.63104104654
21,104,4,518,-0.5,-0.5,-0.5,3,3,0.4,2,75,0,1,NaN,0,0,0.8,1,-3.08150462808514,NaN,750,0,1,congruent,0,4258.22310826513,1626.10421037581
21,104,4,519,0.5,0.5,0.5,2,1,0.4,4,657,0,1,NaN,0,0,0.4,NaN,0.242660646401125,NaN,750,0,1,incongruent,0,2661.45396245785,1570.01238121939
21,104,4,520,0.5,0.5,0,3,NaN,0.4,1,514,0,1,NaN,0,0,0.2,NaN,-0.574101611763026,NaN,750,0,1,neutral,0,3229.48709713264,922.06364922693
21,104,4,521,-0.5,0.5,-0.5,4,4,0.4,4,617,1,1,617,1,0,0.2,0,0.0141956790824811,0.0141956790824811,750,1,0,congruent,0.1,640.439574225817,4636.60417323368
21,104,4,522,-0.5,-0.5,0,2,NaN,0.4,3,752,0,0,NaN,0,0,0.4,0.8,0.785264943782903,NaN,750,0,1,neutral,0,2076.5177502664,1483.30501607267
21,104,4,523,-0.5,0.5,-0.5,1,1,0.4,1,554,1,1,554,1,0,0.2,0.2,-0.345636644444383,-0.345636644444383,750,1,0,congruent,0.1,3989.54946988267,1165.62624336408
21,104,4,524,0.5,-0.5,0.5,2,4,0.4,4,508,0,1,NaN,1,0,0.4,NaN,-0.608371356860823,NaN,750,1,0,incongruent,1,2823.98831065937,1397.90541979707
21,104,4,525,0.5,0.5,0,1,NaN,0.4,3,594,0,1,NaN,0,0,0.8,NaN,-0.117171677125739,NaN,750,0,1,neutral,0,228.554849417091,1997.4271738495
21,104,4,526,-0.5,0.5,-0.5,2,2,0.4,1,691,0,1,NaN,0,0,0.8,0.4,0.436855868621972,NaN,750,0,1,congruent,0,630.077907958703,7982.34701544214
21,104,4,528,0.5,0.5,-0.5,4,4,0.4,3,611,0,1,NaN,0,0,0.6,NaN,-0.0200740660153154,NaN,750,0,1,congruent,0,2228.42730944691,2639.72606907853
21,104,4,529,0.5,-0.5,0,1,NaN,0.2,1,546,1,1,546,0,0,0.4,NaN,-0.391329637908111,-0.391329637908111,750,0,0,neutral,0,5243.35565619619,2663.30026603006
21,104,4,531,0.5,0.5,0.5,1,2,0.2,2,878,0,0,NaN,0,0,0,NaN,1.50492959083663,NaN,750,1,0,incongruent,0,2045.37969958087,552.987102267706
21,104,4,532,-0.5,-0.5,0.5,4,1,0,4,827,1,0,827,0,0,0,0.6,1.21363675750536,1.21363675750536,750,0,0,incongruent,0,3343.32879878477,1851.85917370709
21,104,4,533,0.5,0.5,0.5,3,4,0,4,766,0,0,NaN,0,0,0,NaN,0.865227682344429,NaN,750,1,0,incongruent,0,208.541556839258,1300.43123961073
21,104,4,534,0.5,-0.5,0,2,NaN,0,3,927,0,0,NaN,0,0,0,NaN,1.78479917580197,NaN,750,0,1,neutral,0,912.245560436635,4269.62286968004
21,104,4,535,0.5,0.5,0.5,4,3,0,4,643,1,1,643,1,0,0,NaN,0.1626979078396,0.1626979078396,750,0,0,incongruent,1,885.149211885003,1945.73600488691
21,104,4,536,-0.5,-0.5,0,2,NaN,0.2,2,683,1,1,683,0,0,0.4,0.4,0.391162875158243,0.391162875158243,750,0,0,neutral,0,1732.83563959886,1593.02282402079
21,104,4,537,0.5,-0.5,0.5,3,4,0.2,3,535,1,1,535,0,0,0.4,NaN,-0.454157503920738,-0.454157503920738,750,0,0,incongruent,0,1729.86345544881,3860.62747696389
21,104,4,538,0.5,0.5,0.5,2,3,0.2,3,844,0,0,NaN,0,0,0.4,NaN,1.31073436861578,NaN,750,1,0,incongruent,0,1320.42706780873,2398.42239071813
21,104,4,539,0.5,-0.5,0,1,NaN,0.2,1,564,1,1,564,1,0,0.4,NaN,-0.288520402614722,-0.288520402614722,750,0,0,neutral,1,2420.6104592196,968.396759106017
21,104,4,541,-0.5,-0.5,0.5,1,2,0.2,1,583,1,1,583,0,0,0.4,0,-0.179999543138366,-0.179999543138366,750,0,0,incongruent,0,2086.27747121612,5767.28583098314
21,104,4,542,-0.5,-0.5,0.5,3,1,0.2,2,654,0,1,NaN,1,0,0.4,0,0.225525773852226,NaN,750,0,1,incongruent,0.1,751.22448095596,2568.08278363911
21,104,4,543,-0.5,0.5,0.5,4,2,0.2,4,762,1,0,762,0,0,0.6,0.4,0.842381185612564,0.842381185612564,750,0,0,incongruent,0,3865.82587780609,1163.46728872821
21,104,4,544,0.5,-0.5,0,2,NaN,0.2,1,568,0,1,NaN,0,0,0.6,NaN,-0.265673905882857,NaN,750,0,1,neutral,0,2917.66119536347,429.744617105031
21,104,4,545,0.5,-0.5,0.5,3,1,0.2,3,722,1,1,722,0,0,0.2,NaN,0.613916218293921,0.613916218293921,750,0,0,incongruent,0,849.440006593988,4837.0441605894
21,104,4,546,0.5,0.5,-0.5,2,2,0.2,1,571,0,1,NaN,0,0,0.2,NaN,-0.248539033333959,NaN,750,0,1,congruent,0,1160.65938375279,1967.17832651585
21,104,4,547,0.5,-0.5,0,3,NaN,0.2,1,706,0,1,NaN,0,0,0.2,NaN,0.522530231366463,NaN,750,0,1,neutral,0,3140.35163831416,2521.25301575519
21,104,4,548,-0.5,-0.5,0.5,4,2,0.2,4,616,1,1,616,0,0,0,0.2,0.00848405489951502,0.00848405489951502,750,0,0,incongruent,0,1935.15259529953,2673.41842607458
21,104,4,549,0.5,-0.5,0.5,2,3,0.2,2,455,1,1,455,0,0,0,NaN,-0.911087438558026,-0.911087438558026,750,0,0,incongruent,0,4401.16495609756,469.080086103333
21,104,4,550,-0.5,-0.5,0.5,4,2,0.2,3,278,0,1,NaN,0,0,0,0.2,-1.92204491894302,NaN,750,0,1,incongruent,0,4635.97740760385,3469.2349257407
21,104,4,551,-0.5,-0.5,0.5,1,4,0.2,1,456,1,1,456,1,0,0,0.2,-0.90537581437506,-0.90537581437506,750,0,0,incongruent,0.1,1046.13665319823,1276.35071255876
21,104,4,552,0.5,-0.5,0.5,2,1,0.2,3,461,0,1,NaN,0,0,0.2,NaN,-0.876817693460229,NaN,750,0,1,incongruent,0,3040.97456671593,1860.36099287568
21,104,4,553,-0.5,0.5,-0.5,4,4,0.2,4,516,1,1,516,1,0,0.2,0.4,-0.562678363397094,-0.562678363397094,750,1,0,congruent,0.1,1207.0209000935,1286.66529258845
21,104,4,554,-0.5,0.5,0,3,NaN,0.4,4,742,0,1,NaN,0,0,0.4,0.4,0.728148701953243,NaN,750,0,1,neutral,0,1358.78220245308,2550.06842336498
21,104,4,555,-0.5,-0.5,0.5,1,4,0.2,4,603,0,1,NaN,1,0,0.4,0.4,-0.0657670594790442,NaN,750,1,0,incongruent,0.1,1140.25356401271,1903.82783179629
21,104,4,556,-0.5,0.5,-0.5,3,3,0.2,1,596,0,1,NaN,0,0,0.6,0.2,-0.105748428759807,NaN,750,0,1,congruent,0,2792.29692032162,4688.89609477727
21,104,4,557,-0.5,0.5,-0.5,1,1,0.2,2,595,0,1,NaN,0,0,0.4,0.2,-0.111460052942773,NaN,750,0,1,congruent,0,3952.66968592651,2540.78815994263
21,104,4,558,-0.5,-0.5,0.5,2,4,0.2,4,706,0,1,NaN,0,0,0.4,0.6,0.522530231366463,NaN,750,1,0,incongruent,0,641.112830769151,6375.52912089471
21,104,4,559,0.5,0.5,0,3,NaN,0.2,1,573,0,1,NaN,0,0,0.2,NaN,-0.237115784968027,NaN,750,0,1,neutral,0,559.120863024409,886.412362911918
21,104,4,560,-0.5,-0.5,0.5,2,1,0.2,4,650,0,1,NaN,0,0,0.2,0.4,0.202679277120362,NaN,750,0,1,incongruent,0,1309.73334845144,2423.85824073316
21,104,4,561,0.5,0.5,0.5,3,2,0.2,3,616,1,1,616,1,0,0,NaN,0.00848405489951502,0.00848405489951502,750,0,0,incongruent,1,332.887737247043,556.39606147196
21,104,4,562,0.5,0.5,0.5,2,1,0.2,2,833,1,0,833,0,0,0.4,NaN,1.24790650260316,1.24790650260316,750,0,0,incongruent,0,2501.99547492399,1044.105079714
21,104,4,563,-0.5,-0.5,0,1,NaN,0.2,1,697,1,1,697,1,0,0.4,0.4,0.471125613719768,0.471125613719768,750,0,0,neutral,0.1,3319.05201652975,2523.32097845354
21,104,4,564,-0.5,0.5,0.5,4,3,0.2,3,265,0,1,NaN,0,0,0.6,0.2,-1.99629603332158,NaN,750,1,0,incongruent,0,2638.9154504309,961.072461588621
21,104,4,565,0.5,-0.5,-0.5,2,2,0.2,3,593,0,1,NaN,0,0,0.6,NaN,-0.122883301308705,NaN,750,0,1,congruent,0,2928.27091883827,1030.978771929
21,104,4,566,0.5,0.5,0,4,NaN,0.2,1,597,0,1,NaN,0,0,0.6,NaN,-0.100036804576841,NaN,750,0,1,neutral,0,1333.78076157624,2310.71387496141
21,104,4,567,-0.5,-0.5,-0.5,3,3,0.2,3,325,1,1,325,1,0,0.2,0.6,-1.65359858234362,-1.65359858234362,750,1,0,congruent,0.1,2591.56859335159,1189.84457251328
21,104,4,568,0.5,0.5,0,1,NaN,0.2,1,449,1,1,449,1,0,0.4,NaN,-0.945357183655822,-0.945357183655822,750,0,0,neutral,1,1735.71178377698,2746.68681368005
21,104,4,569,0.5,-0.5,-0.5,4,4,0.4,4,409,1,1,409,0,0,0.6,NaN,-1.17382215097447,-1.17382215097447,750,1,0,congruent,0,840.090823038611,1613.86908750301
21,104,4,570,0.5,-0.5,0.5,3,1,0.4,3,203,1,1,203,0,0,0.6,NaN,-2.35041673266548,-2.35041673266548,750,0,0,incongruent,0,1268.47797492845,2542.65861631947
21,104,4,571,0.5,0.5,0.5,2,3,0.4,2,654,1,1,654,1,0,0.6,NaN,0.225525773852226,0.225525773852226,750,0,0,incongruent,1,862.385428385485,498.179683089224
21,104,4,572,-0.5,0.5,0.5,3,4,0.4,4,664,0,1,NaN,0,0,1,0.2,0.282642015681887,NaN,750,1,0,incongruent,0,2142.345557484,1317.04418279225
21,104,4,573,0.5,0.5,-0.5,2,2,0.4,3,611,0,1,NaN,0,0,0.8,NaN,-0.0200740660153154,NaN,750,0,1,congruent,0,758.207461360448,4222.40424828415
21,104,4,574,0.5,-0.5,0.5,1,4,0.4,2,126,0,1,NaN,0,0,0.4,NaN,-2.79021179475387,NaN,750,0,1,incongruent,0,4042.37651223614,1918.50299572706
21,104,4,575,-0.5,-0.5,-0.5,2,2,0.4,3,578,0,1,NaN,0,0,0.4,0.6,-0.208557664053196,NaN,750,0,1,congruent,0,3150.09204627216,2147.76247870203
21,104,4,576,-0.5,0.5,0.5,1,4,0.4,4,459,0,1,NaN,0,0,0.4,0,-0.888240941826161,NaN,750,1,0,incongruent,0,2180.90864946511,1647.02758236616
21,104,4,577,0.5,-0.5,0,4,NaN,0.4,4,790,1,0,790,0,0,0,NaN,1.00230666273561,1.00230666273561,750,0,0,neutral,0,1890.2424439798,1575.89171785197
21,104,4,578,0.5,-0.5,0.5,3,4,0.4,3,299,1,1,299,1,0,0,NaN,-1.80210081110074,-1.80210081110074,750,0,0,incongruent,1,717.594305017263,1702.86975307863
21,104,4,579,0.5,-0.5,0,1,NaN,0.4,4,821,0,0,NaN,1,0,0.4,NaN,1.17936701240756,NaN,750,0,1,neutral,1,992.683835411463,5998.403628753
21,104,4,580,-0.5,0.5,0.5,3,4,0.4,3,731,1,1,731,1,0,0.8,0,0.665320835940616,0.665320835940616,750,0,0,incongruent,0.1,783.376233364547,2118.629502061
21,104,4,581,-0.5,-0.5,0.5,2,3,0.4,4,545,0,1,NaN,0,0,1,0.4,-0.397041262091077,NaN,750,0,1,incongruent,0,3466.51397260909,1832.33199225866
21,104,4,582,-0.5,0.5,0.5,3,4,0.4,1,226,0,1,NaN,0,0,1,0.2,-2.21904937645726,NaN,750,0,1,incongruent,0,2617.1060652591,2137.65558522639
21,104,4,583,-0.5,0.5,0.5,4,2,0.2,4,492,1,1,492,1,0,1,0.2,-0.69975734378828,-0.69975734378828,750,0,0,incongruent,0.1,1492.53634540829,1532.29278765059
21,104,4,584,0.5,-0.5,0.5,1,3,0.4,2,596,0,1,NaN,0,0,0.8,NaN,-0.105748428759807,NaN,750,0,1,incongruent,0,1319.90736778352,3794.75676887545
21,104,4,585,-0.5,0.5,-0.5,4,4,0.4,4,634,1,1,634,1,0,0.4,0.4,0.111293290192905,0.111293290192905,750,1,0,congruent,0.1,354.708010912625,2706.80262083158
21,104,4,586,0.5,-0.5,-0.5,3,3,0.6,3,725,1,1,725,1,0,0.4,NaN,0.631051090842819,0.631051090842819,750,1,0,congruent,1,2547.53996780922,1226.84586860028
21,104,4,587,0.5,0.5,0.5,1,4,0.6,1,602,1,1,602,1,0,0.8,NaN,-0.0714786836620103,-0.0714786836620103,750,0,0,incongruent,1,490.525323942168,3139.61785573278
21,104,4,588,-0.5,0.5,-0.5,3,3,0.8,3,409,1,1,409,1,0,1.2,0.6,-1.17382215097447,-1.17382215097447,750,1,0,congruent,0.1,2285.75920533714,3211.75780384505
21,104,4,589,-0.5,0.5,0.5,4,1,0.8,4,728,1,1,728,1,0,1.2,0.8,0.648185963391717,0.648185963391717,750,0,0,incongruent,0.1,2026.60390060588,1178.88423018974
21,104,4,590,-0.5,0.5,0.5,3,4,1,4,513,0,1,NaN,0,0,1.4,0.8,-0.579813235945992,NaN,750,1,0,incongruent,0,2542.11064819618,5246.3722160565
21,104,4,591,0.5,-0.5,0.5,1,3,0.8,4,664,0,1,NaN,1,0,1.2,NaN,0.282642015681887,NaN,750,0,1,incongruent,1,4765.59258632609,2454.86163469855
21,104,4,592,0.5,0.5,0,3,NaN,0.8,1,575,0,1,NaN,0,0,1.2,NaN,-0.225692536602095,NaN,750,0,1,neutral,0,752.688067446683,1765.84206160332
21,104,4,593,-0.5,0.5,0.5,2,3,0.6,2,596,1,1,596,1,0,0.8,0.8,-0.105748428759807,-0.105748428759807,750,0,0,incongruent,0.1,862.386289133588,2684.54061539593
21,104,4,594,-0.5,-0.5,0,1,NaN,0.6,4,318,0,1,NaN,1,0,0.8,0.4,-1.69357995162438,NaN,750,0,1,neutral,0.1,1239.72290609301,5269.7842583601
21,104,4,595,-0.5,-0.5,-0.5,4,4,0.6,4,508,1,1,508,0,0,0.8,0.6,-0.608371356860823,-0.608371356860823,750,1,0,congruent,0,2026.53909058904,7570.94274676787
21,104,4,596,-0.5,-0.5,0.5,2,3,0.6,2,581,1,1,581,0,0,0.8,0.4,-0.191422791504298,-0.191422791504298,750,0,0,incongruent,0,2006.67917126721,1510.72719423562
21,104,4,597,0.5,-0.5,-0.5,4,4,0.6,3,454,0,1,NaN,0,0,0.4,NaN,-0.916799062740992,NaN,750,0,1,congruent,0,951.172591891032,2122.34923457633
21,104,4,598,0.5,-0.5,0.5,2,3,0.6,4,354,0,1,NaN,1,0,0.4,NaN,-1.4879614810376,NaN,750,0,1,incongruent,1,2345.23517458971,697.599359055374
21,104,4,599,-0.5,-0.5,0.5,3,4,0.6,1,238,0,1,NaN,1,0,0.6,0.2,-2.15050988626167,NaN,750,0,1,incongruent,0.1,1237.52472299106,3213.13309659634
21,104,4,600,0.5,0.5,-0.5,1,1,0.6,3,285,0,1,NaN,0,0,0.6,NaN,-1.88206354966226,NaN,750,0,1,congruent,0,3778.7836561356,2827.07768512214
