subid,vers,block,trial,rewlvl,efflvl,congruency,targetresp,distractorresp,rollingefflvl,resp,rt,acc,fast,accrt,isrewarded,ismiss,runavgrrgen,runavgrrcond,zrt,acczrt,rtthreshold,isdisterror,isranderror,congruence,feedback,fcz_resp_theta,fcz_resp_theta_baseline
23,104,1,1,-0.5,0.5,-0.5,3,3,0.5,3,675,1,1,675,1,0,0,0,-0.0214465938201411,-0.0214465938201411,750,1,0,congruent,0.1,2468.01632679463,2237.75910755527
23,104,1,2,0.5,0.5,0,1,NaN,0.7,1,510,1,1,510,1,0,0.2,NaN,-1.20317756764135,-1.20317756764135,750,0,0,neutral,1,7764.80348820315,1717.97051419644
23,104,1,3,0.5,0.5,-0.5,3,3,0.8,3,464,1,1,464,1,0,0.6,NaN,-1.5326298391309,-1.5326298391309,750,1,0,congruent,1,917.249905107238,8363.73444235934
23,104,1,4,-0.5,0.5,0,4,NaN,0.9,4,426,1,1,426,1,0,1,0.2,-1.80478606340487,-1.80478606340487,750,0,0,neutral,0.1,2332.02029027533,2959.17591353185
23,104,1,5,-0.5,-0.5,-0.5,3,3,1,3,608,1,1,608,1,0,1.2,0,-0.501300989250571,-0.501300989250571,750,1,0,congruent,0.1,2326.71620305369,1295.06531853988
23,104,1,6,-0.5,0.5,0,1,NaN,1,2,625,0,1,NaN,0,0,1.4,0.4,-0.379546888917477,NaN,750,0,1,neutral,0,3344.1730524124,1966.02683483133
23,104,1,7,0.5,-0.5,-0.5,3,3,0.8,3,844,1,0,844,1,0,1.2,NaN,1.18893240360885,1.18893240360885,750,1,0,congruent,1,3263.85457026767,9570.31581492594
23,104,1,9,0.5,0.5,-0.5,3,3,0.8,3,704,1,1,704,1,0,1,NaN,0.186251577336314,0.186251577336314,750,1,0,congruent,1,8276.70646400523,8269.26631924019
23,104,1,10,0.5,0.5,0.5,4,2,0.8,4,339,1,1,339,1,0,1.2,NaN,-2.42788057687424,-2.42788057687424,750,0,0,incongruent,1,8968.87278513566,1696.5202417453
23,104,1,11,-0.5,-0.5,0,1,NaN,0.8,1,358,1,1,358,1,0,1.4,0.4,-2.29180246473725,-2.29180246473725,750,0,0,neutral,0.1,5956.73198239269,1854.24706309888
23,104,1,12,0.5,0.5,-0.5,4,4,0.8,3,803,0,0,NaN,0,0,1.6,NaN,0.895290161629039,NaN,750,0,1,congruent,0,10997.5289889406,1625.05450355491
23,104,1,13,-0.5,0.5,-0.5,3,3,0.6,3,777,1,0,777,0,0,1.2,0.4,0.709078008178424,0.709078008178424,750,1,0,congruent,0,1649.21118030552,4449.60249330837
23,104,1,14,-0.5,-0.5,0,1,NaN,0.4,1,664,1,1,664,1,0,1,0.6,-0.100228658741555,-0.100228658741555,750,0,0,neutral,0.1,5419.71403171088,11752.5467822128
23,104,1,15,-0.5,-0.5,-0.5,2,2,0.4,2,400,1,1,400,0,0,0.8,0.8,-1.99099821685549,-1.99099821685549,750,1,0,congruent,0,8600.06035352344,1868.56992499093
23,104,1,16,0.5,-0.5,0,3,NaN,0.4,3,561,1,1,561,1,0,0.4,NaN,-0.837915266642067,-0.837915266642067,750,0,0,neutral,1,1367.35141904868,7275.28533032204
23,104,1,17,0.5,-0.5,-0.5,2,2,0.4,2,609,1,1,609,0,0,0.6,NaN,-0.494138983348625,-0.494138983348625,750,1,0,congruent,0,3634.92126961265,1565.69671093241
23,104,1,19,0.5,0.5,-0.5,4,4,0.4,4,656,1,1,656,1,0,0.6,NaN,-0.157524705957129,-0.157524705957129,750,1,0,congruent,1,6278.84760675418,2580.5493963004
23,104,1,21,-0.5,0.5,0.5,4,2,0.2,4,935,1,0,935,0,0,0.8,0.4,1.84067494068601,1.84067494068601,750,0,0,incongruent,0,980.657025620026,4803.91218063181
23,104,1,22,-0.5,-0.5,0,2,NaN,0.2,2,535,1,1,535,1,0,0.4,0.8,-1.02412742009268,-1.02412742009268,750,0,0,neutral,0.1,5311.15366878407,2440.90042877261
23,104,1,23,-0.5,0.5,-0.5,4,4,0.2,4,462,1,1,462,1,0,0.6,0.2,-1.54695385093479,-1.54695385093479,750,1,0,congruent,0.1,4947.44173393976,3274.55349120593
23,104,1,24,-0.5,-0.5,0.5,3,1,0.4,1,473,0,1,NaN,0,0,0.8,0.8,-1.46817178601338,NaN,750,1,0,incongruent,0,2887.4139767241,3970.75878300051
23,104,1,25,0.5,0.5,-0.5,2,2,0.4,2,588,1,1,588,1,0,0.4,NaN,-0.644541107289506,-0.644541107289506,750,1,0,congruent,1,2459.24581421315,3632.19887917973
23,104,1,26,0.5,-0.5,0,4,NaN,0.6,4,733,1,1,733,0,0,0.8,NaN,0.393949748492769,0.393949748492769,750,0,0,neutral,0,7564.9669512024,3526.21632457175
23,104,1,27,-0.5,-0.5,-0.5,1,1,0.6,1,653,1,1,653,1,0,0.8,0.6,-0.179010723662969,-0.179010723662969,750,1,0,congruent,0.1,3464.76593083179,2148.21830885132
23,104,1,28,0.5,0.5,0,4,NaN,0.6,4,686,1,1,686,1,0,0.8,NaN,0.0573354711012728,0.0573354711012728,750,0,0,neutral,1,4442.91302967451,3044.72188587714
23,104,1,29,0.5,-0.5,-0.5,3,3,0.6,3,613,1,1,613,1,0,1,NaN,-0.465490959740838,-0.465490959740838,750,1,0,congruent,1,3691.51450171887,9060.55361913517
23,104,1,30,0.5,-0.5,0.5,1,4,0.6,1,666,1,1,666,1,0,1.4,NaN,-0.0859046469376616,-0.0859046469376616,750,0,0,incongruent,1,1118.1454092718,5769.97566848602
23,104,1,31,-0.5,0.5,0.5,4,3,0.6,4,815,1,0,815,0,0,1.4,0.2,0.9812342324524,0.9812342324524,750,0,0,incongruent,0,10770.3324706663,11260.306238869
23,104,1,32,-0.5,0.5,0.5,3,2,0.6,3,895,1,0,895,0,0,1.4,0.2,1.55419470460814,1.55419470460814,750,0,0,incongruent,0,4436.25516888022,4604.76034877577
23,104,1,33,0.5,-0.5,0,4,NaN,0.6,4,718,1,1,718,0,0,1.2,NaN,0.286519659963568,0.286519659963568,750,0,0,neutral,0,2923.5745168556,7668.67244331029
23,104,1,34,0.5,-0.5,0.5,3,1,0.6,3,928,1,0,928,1,0,0.8,NaN,1.79054089937238,1.79054089937238,750,0,0,incongruent,1,1966.34059904014,7090.63628948237
23,104,1,35,0.5,0.5,0.5,2,3,0.6,3,888,0,0,NaN,0,0,0.8,NaN,1.50406066329451,NaN,750,1,0,incongruent,0,13061.5250855684,2350.64595892166
23,104,1,36,-0.5,-0.5,0,4,NaN,0.4,4,762,1,0,762,1,0,0.4,0.6,0.601647919649224,0.601647919649224,750,0,0,neutral,0.1,6471.00750312303,6870.94623727969
23,104,1,37,0.5,-0.5,0.5,2,4,0.4,2,975,1,0,975,0,0,0.6,NaN,2.12715517676388,2.12715517676388,750,0,0,incongruent,0,4695.54502111163,4229.72538340464
23,104,1,38,0.5,0.5,-0.5,1,1,0.4,1,612,1,1,612,1,0,0.6,NaN,-0.472652965642785,-0.472652965642785,750,1,0,congruent,1,4395.47866951615,3315.33564876088
23,104,1,39,-0.5,0.5,0,4,NaN,0.4,4,522,1,1,522,1,0,1,0.2,-1.11723349681799,-1.11723349681799,750,0,0,neutral,0.1,3186.06410929986,3352.86004549002
23,104,1,41,-0.5,-0.5,0.5,3,1,0.4,2,670,0,1,NaN,0,0,1.2,0.6,-0.0572566233298747,NaN,750,0,1,incongruent,0,3553.80959561052,5768.88202814891
23,104,1,43,-0.5,0.5,-0.5,3,3,0.4,3,682,1,1,682,1,0,1,0.4,0.0286874474934859,0.0286874474934859,750,1,0,congruent,0.1,2183.3606093555,3141.18704098095
23,104,1,44,0.5,0.5,-0.5,2,2,0.6,2,712,1,1,712,1,0,0.8,NaN,0.243547624551888,0.243547624551888,750,1,0,congruent,1,3050.10496253398,4173.64094544838
23,104,1,45,-0.5,0.5,-0.5,3,3,0.8,3,469,1,1,469,1,0,1,0.4,-1.49681980962117,-1.49681980962117,750,1,0,congruent,0.1,3037.94067507138,2153.29955930938
23,104,1,46,-0.5,-0.5,0,4,NaN,0.8,4,547,1,1,547,1,0,0.8,0.6,-0.938183349269321,-0.938183349269321,750,0,0,neutral,0.1,2358.03105156063,1191.13882719625
23,104,1,47,-0.5,0.5,-0.5,3,3,0.8,3,617,1,1,617,1,0,1,0.6,-0.436842936133051,-0.436842936133051,750,1,0,congruent,0.1,12618.9878304323,3695.42567908683
23,104,1,48,-0.5,-0.5,0.5,1,2,0.8,1,556,1,1,556,1,0,1.2,0.6,-0.873725296151801,-0.873725296151801,750,0,0,incongruent,0.1,1980.52478904764,1061.91329010087
23,104,1,49,0.5,-0.5,-0.5,3,3,0.8,3,748,1,1,748,1,0,1.2,NaN,0.50137983702197,0.50137983702197,750,1,0,congruent,1,1834.46985980708,2689.22346678065
23,104,1,50,0.5,-0.5,-0.5,2,2,0.8,2,725,1,1,725,1,0,1.2,NaN,0.336653701277195,0.336653701277195,750,1,0,congruent,1,3874.29860775009,6575.03695022951
23,104,1,51,-0.5,0.5,0.5,4,3,0.8,4,574,1,1,574,1,0,1.4,0.8,-0.74480918991676,-0.74480918991676,750,0,0,incongruent,0.1,1136.50141760381,1242.16245613464
23,104,1,52,-0.5,0.5,0.5,2,1,1,2,807,1,0,807,0,0,1.4,0.8,0.923938185236826,0.923938185236826,750,0,0,incongruent,0,7464.31951484279,8542.32122655208
23,104,1,53,-0.5,-0.5,0.5,3,4,0.8,3,761,1,0,761,1,0,1.2,0.8,0.594485913747277,0.594485913747277,750,0,0,incongruent,0.1,357.44740071354,2436.97432904622
23,104,1,54,-0.5,0.5,0,1,NaN,0.8,1,729,1,1,729,1,0,1.2,0.8,0.365301724884982,0.365301724884982,750,0,0,neutral,0.1,3039.50546465319,4191.53611938438
23,104,1,55,0.5,-0.5,-0.5,4,4,0.8,4,574,1,1,574,1,0,1,NaN,-0.74480918991676,-0.74480918991676,750,1,0,congruent,1,1780.35951262642,2435.01187291256
23,104,1,56,0.5,-0.5,0.5,2,1,0.8,2,794,1,0,794,1,0,1,NaN,0.830832108511519,0.830832108511519,750,0,0,incongruent,1,1981.09430168987,2037.4063904659
23,104,1,57,-0.5,-0.5,-0.5,3,3,0.8,3,646,1,1,646,1,0,1.2,0.8,-0.229144764976596,-0.229144764976596,750,1,0,congruent,0.1,6454.66280672366,1325.7644591533
23,104,1,58,-0.5,-0.5,-0.5,1,1,0.8,1,602,1,1,602,1,0,1.4,0.8,-0.544273024662252,-0.544273024662252,750,1,0,congruent,0.1,3478.14232977601,2329.1746808027
23,104,1,59,0.5,-0.5,-0.5,2,2,0.8,2,595,1,1,595,1,0,1.4,NaN,-0.594407065975879,-0.594407065975879,750,1,0,congruent,1,8952.32984913974,1498.9440186475
23,104,1,60,-0.5,-0.5,-0.5,1,1,0.8,1,902,1,0,902,1,0,1.6,1,1.60432874592176,1.60432874592176,750,1,0,congruent,0.1,3986.13596958627,5124.41238837903
23,104,1,61,-0.5,0.5,0,4,NaN,0.8,4,834,1,0,834,0,0,1.4,0.8,1.11731234458939,1.11731234458939,750,0,0,neutral,0,4679.43469885795,2848.72102382618
23,104,1,62,-0.5,0.5,-0.5,3,3,0.6,3,510,1,1,510,1,0,1,0.6,-1.20317756764135,-1.20317756764135,750,1,0,congruent,0.1,1747.27054398795,4571.59951309601
23,104,1,63,0.5,0.5,-0.5,4,4,0.6,4,534,1,1,534,1,0,1,NaN,-1.03128942599463,-1.03128942599463,750,1,0,congruent,1,2405.72866417446,5819.94291265697
23,104,1,64,0.5,0.5,0.5,2,1,0.6,2,872,1,0,872,0,0,1.2,NaN,1.38946856886336,1.38946856886336,750,0,0,incongruent,0,4687.38400210343,1814.25291822285
23,104,1,65,0.5,-0.5,-0.5,3,3,0.6,3,803,1,0,803,1,0,0.8,NaN,0.895290161629039,0.895290161629039,750,1,0,congruent,1,3980.11809106715,6065.40636557264
23,104,1,66,0.5,0.5,-0.5,1,1,0.6,2,503,0,1,NaN,0,0,1,NaN,-1.25331160895498,NaN,750,0,1,congruent,0,6646.76478887951,1275.97677264728
23,104,1,67,-0.5,-0.5,0,3,NaN,0.4,3,791,1,0,791,0,0,1,1,0.809346090805678,0.809346090805678,750,0,0,neutral,0,3970.31140682793,4058.60338763771
23,104,1,69,0.5,-0.5,0,4,NaN,0.4,4,563,1,1,563,0,0,0.4,NaN,-0.823591254838174,-0.823591254838174,750,0,0,neutral,0,3176.1727546994,2062.54622556551
23,104,1,70,-0.5,-0.5,-0.5,3,3,0.4,3,376,1,1,376,1,0,0.4,0.8,-2.16288635850221,-2.16288635850221,750,1,0,congruent,0.1,2375.40991552864,1628.57047145189
23,104,1,71,0.5,-0.5,-0.5,4,4,0.4,4,567,1,1,567,0,0,0.2,NaN,-0.794943231230387,-0.794943231230387,750,1,0,congruent,0,2344.23577236482,2472.87708469728
23,104,1,72,-0.5,-0.5,-0.5,2,2,0.4,2,631,1,1,631,1,0,0.2,0.8,-0.336574853505797,-0.336574853505797,750,1,0,congruent,0.1,3261.74545912587,3449.70100189769
23,104,1,73,0.5,0.5,0,1,NaN,0.4,1,755,1,0,755,0,0,0.4,NaN,0.551513878335597,0.551513878335597,750,0,0,neutral,0,3920.42672814971,1700.5502278103
23,104,1,75,-0.5,-0.5,0.5,3,2,0,3,757,1,0,757,0,0,0.4,0.8,0.56583789013949,0.56583789013949,750,0,0,incongruent,0,1661.09282614758,844.431988374898
23,104,1,76,-0.5,0.5,0,2,NaN,0,2,887,1,0,887,0,0,0.2,0.6,1.49689865739256,1.49689865739256,750,0,0,neutral,0,3469.76481068882,1101.24790596913
23,104,1,77,-0.5,-0.5,-0.5,1,1,0,1,589,1,1,589,0,0,0.2,0.6,-0.637379101387559,-0.637379101387559,750,1,0,congruent,0,1581.61551991849,2142.39007784621
23,104,1,78,-0.5,0.5,0,3,NaN,0,3,494,1,1,494,1,0,0,0.4,-1.3177696620725,-1.3177696620725,750,0,0,neutral,0.1,1639.02998892777,1860.80650619113
23,104,1,79,-0.5,0.5,-0.5,4,4,0.2,4,479,1,1,479,1,0,0.2,0.6,-1.4251997506017,-1.4251997506017,750,1,0,congruent,0.1,3108.25832603956,6201.81269499616
23,104,1,80,-0.5,0.5,0.5,3,2,0.4,3,653,1,1,653,1,0,0.4,0.6,-0.179010723662969,-0.179010723662969,750,0,0,incongruent,0.1,2546.01839098969,3489.77195989922
23,104,1,81,0.5,0.5,0,4,NaN,0.6,4,659,1,1,659,1,0,0.6,NaN,-0.136038688251289,-0.136038688251289,750,0,0,neutral,1,2578.65376637878,2229.17182344982
23,104,1,82,0.5,0.5,-0.5,1,1,0.8,1,579,1,1,579,1,0,1,NaN,-0.708999160407026,-0.708999160407026,750,1,0,congruent,1,3941.72365285226,2177.97155620959
23,104,1,83,0.5,-0.5,0,2,NaN,1,2,431,1,1,431,1,0,1.4,NaN,-1.76897603389514,-1.76897603389514,750,0,0,neutral,1,4397.93909940196,1077.3788004006
23,104,1,84,0.5,0.5,-0.5,4,4,1,3,499,0,1,NaN,0,0,1.6,NaN,-1.28195963256276,NaN,750,0,1,congruent,0,13265.5921044621,3753.79356447163
23,104,1,85,-0.5,-0.5,0.5,1,2,0.8,2,932,0,0,NaN,0,0,1.4,0.4,1.81918892298017,NaN,750,1,0,incongruent,0,12766.2916925244,2689.79768573407
23,104,1,87,0.5,-0.5,0.5,4,2,0.8,4,830,1,0,830,1,0,1,NaN,1.0886643209816,1.0886643209816,750,0,0,incongruent,1,1178.63697744251,1896.436526179
23,104,1,88,-0.5,0.5,0,1,NaN,0.8,1,655,1,1,655,1,0,1,0.8,-0.164686711859076,-0.164686711859076,750,0,0,neutral,0.1,12050.2809095017,1412.07352502966
23,104,1,89,-0.5,0.5,-0.5,2,2,0.8,2,484,1,1,484,1,0,0.8,0.8,-1.38938972109196,-1.38938972109196,750,1,0,congruent,0.1,1835.21696896377,1416.25013359778
23,104,1,90,-0.5,0.5,0,3,NaN,0.8,3,407,1,1,407,1,0,1,1,-1.94086417554186,-1.94086417554186,750,0,0,neutral,0.1,11602.2832293576,5068.29803924156
23,104,1,92,0.5,-0.5,0.5,2,3,0.6,2,684,1,1,684,1,0,1,NaN,0.0430114592973794,0.0430114592973794,750,0,0,incongruent,1,2168.30999453198,12635.7995026525
23,104,1,94,0.5,0.5,0,1,NaN,0.6,1,812,1,0,812,0,0,0.8,NaN,0.95974821474656,0.95974821474656,750,0,0,neutral,0,3719.93417818077,3112.59747525083
23,104,1,95,0.5,0.5,0.5,3,1,0.4,2,906,0,0,NaN,0,0,0.6,NaN,1.63297676952955,NaN,750,0,1,incongruent,0,3957.23021519888,2340.75900035658
23,104,1,96,-0.5,0.5,0,2,NaN,0.2,2,856,1,0,856,0,0,0.4,0.8,1.27487647443222,1.27487647443222,750,0,0,neutral,0,4495.96339843315,1177.07444132002
23,104,1,98,0.5,-0.5,-0.5,4,4,0,4,464,1,1,464,0,0,0,NaN,-1.5326298391309,-1.5326298391309,750,1,0,congruent,0,8226.13030643944,5345.8568663801
23,104,1,99,0.5,0.5,-0.5,3,3,0,3,643,1,1,643,1,0,0,NaN,-0.250630782682436,-0.250630782682436,750,1,0,congruent,1,7115.00428709844,5436.12688995663
23,104,1,100,-0.5,0.5,0,1,NaN,0.2,1,579,1,1,579,1,0,0.4,0.4,-0.708999160407026,-0.708999160407026,750,0,0,neutral,0.1,1258.61095257051,2437.22474276122
23,104,1,101,-0.5,0.5,0.5,2,1,0.4,2,717,1,1,717,1,0,0.6,0.4,0.279357654061621,0.279357654061621,750,0,0,incongruent,0.1,6000.12847583461,3179.70508117807
23,104,1,102,0.5,0.5,0,1,NaN,0.6,1,655,1,1,655,1,0,0.8,NaN,-0.164686711859076,-0.164686711859076,750,0,0,neutral,1,2320.43555484275,1624.36635035626
23,104,1,103,-0.5,-0.5,0.5,4,3,0.8,4,840,1,0,840,0,0,1.2,0.4,1.16028438000107,1.16028438000107,750,0,0,incongruent,0,2531.8614391264,1591.2030893375
23,104,1,104,0.5,-0.5,0,1,NaN,0.8,1,527,1,1,527,1,0,1.2,NaN,-1.08142346730826,-1.08142346730826,750,0,0,neutral,1,2017.5526380838,2042.6992177703
23,104,1,105,0.5,0.5,-0.5,3,3,0.8,2,636,0,1,NaN,0,0,1.2,NaN,-0.300764823996063,NaN,750,0,1,congruent,0,4878.14530004903,4347.18476735709
23,104,1,106,-0.5,0.5,0,1,NaN,0.8,1,587,1,1,587,1,0,1,0.4,-0.651703113191453,-0.651703113191453,750,0,0,neutral,0.1,3717.54682750023,3593.6861249298
23,104,1,107,0.5,-0.5,-0.5,3,3,0.8,3,608,1,1,608,1,0,1,NaN,-0.501300989250571,-0.501300989250571,750,1,0,congruent,1,5838.16288670759,2281.26258716538
23,104,1,108,0.5,-0.5,0,1,NaN,0.8,1,952,1,0,952,1,0,1,NaN,1.9624290410191,1.9624290410191,750,0,0,neutral,1,5588.81753064469,2558.0240024395
23,104,1,109,0.5,0.5,-0.5,2,2,0.8,2,803,1,0,803,0,0,1.4,NaN,0.895290161629039,0.895290161629039,750,1,0,congruent,0,3714.53429654721,2355.67432084276
23,104,1,110,-0.5,-0.5,-0.5,4,4,0.6,3,829,0,0,NaN,1,0,1,0.2,1.08150231507965,NaN,750,0,1,congruent,0.1,924.7702238687,6337.28264051652
23,104,1,112,0.5,0.5,-0.5,4,4,0.4,4,431,1,1,431,1,0,1,NaN,-1.76897603389514,-1.76897603389514,750,1,0,congruent,1,467.802807146137,5215.83212796749
23,104,1,113,-0.5,-0.5,-0.5,3,3,0.4,3,680,1,1,680,0,0,1,0.4,0.0143634356895925,0.0143634356895925,750,1,0,congruent,0,3199.28461483451,4650.04253619182
23,104,1,114,0.5,0.5,0,2,NaN,0.4,2,570,1,1,570,1,0,0.6,NaN,-0.773457213524547,-0.773457213524547,750,0,0,neutral,1,3141.83689229894,2562.83577479337
23,104,1,115,0.5,-0.5,-0.5,1,1,0.6,1,651,1,1,651,0,0,1,NaN,-0.193334735466862,-0.193334735466862,750,1,0,congruent,0,2310.09485249913,508.496300958378
23,104,1,116,0.5,-0.5,0.5,3,2,0.6,3,579,1,1,579,1,0,0.8,NaN,-0.708999160407026,-0.708999160407026,750,0,0,incongruent,1,1599.40638886665,8896.97054798912
23,104,1,117,-0.5,0.5,0.5,4,1,0.6,4,743,1,1,743,1,0,1.2,0.6,0.465569807512236,0.465569807512236,750,0,0,incongruent,0.1,9463.62403005336,8432.77242724758
23,104,1,118,0.5,0.5,-0.5,2,2,0.6,2,772,1,0,772,0,0,1,NaN,0.673267978668691,0.673267978668691,750,1,0,congruent,0,3170.09646787045,1536.68575372274
23,104,1,119,0.5,0.5,0.5,3,1,0.6,2,645,0,1,NaN,0,0,1,NaN,-0.236306770878543,NaN,750,0,1,incongruent,0,2024.82052348567,1072.55871957851
23,104,1,120,-0.5,-0.5,-0.5,2,2,0.6,2,602,1,1,602,0,0,0.6,0.4,-0.544273024662252,-0.544273024662252,750,1,0,congruent,0,6776.7086702755,1621.91912412291
23,104,1,121,0.5,0.5,0.5,3,4,0.6,3,865,1,0,865,0,0,0.6,NaN,1.33933452754974,1.33933452754974,750,0,0,incongruent,0,5399.43239889393,1256.46453499385
23,104,1,122,0.5,-0.5,0,1,NaN,0.4,2,543,0,1,NaN,0,0,0.2,NaN,-0.966831372877108,NaN,750,0,1,neutral,0,13738.6945063454,1919.53681487309
23,104,1,123,0.5,0.5,-0.5,2,2,0.4,2,813,1,0,813,0,0,0,NaN,0.966910220648506,0.966910220648506,750,1,0,congruent,0,2692.50290333471,2713.91466179163
23,104,1,124,0.5,-0.5,-0.5,3,3,0.2,3,688,1,1,688,0,0,0,NaN,0.0716594829051662,0.0716594829051662,750,1,0,congruent,0,7858.95084998138,3056.66457198555
23,104,1,125,-0.5,-0.5,0,4,NaN,0.2,4,663,1,1,663,1,0,0,0.4,-0.107390664643502,-0.107390664643502,750,0,0,neutral,0.1,5607.34074671513,5369.06830311899
23,104,1,126,0.5,0.5,-0.5,2,2,0.2,2,626,1,1,626,1,0,0.2,NaN,-0.37238488301553,-0.37238488301553,750,1,0,congruent,1,5089.36356355876,1851.18736326185
23,104,1,127,-0.5,0.5,-0.5,4,4,0.2,4,910,1,0,910,0,0,0.6,0.8,1.66162479313734,1.66162479313734,750,1,0,congruent,0,879.339795905852,716.252599199048
23,104,1,128,-0.5,0.5,0.5,1,2,0.2,1,751,1,0,751,0,0,0.6,0.8,0.52286585472781,0.52286585472781,750,0,0,incongruent,0,3005.87561692476,2644.63515623352
23,104,1,130,-0.5,-0.5,0.5,4,3,0.2,4,665,1,1,665,1,0,0.6,0.4,-0.0930666528396083,-0.0930666528396083,750,0,0,incongruent,0.1,4073.2635608026,1867.10405975395
23,104,1,131,-0.5,0.5,0.5,2,1,0.2,2,837,1,0,837,0,0,0.6,0.6,1.13879836229523,1.13879836229523,750,0,0,incongruent,0,1211.1410705439,1698.80419621122
23,104,1,132,-0.5,-0.5,0,3,NaN,0.2,3,760,1,0,760,0,0,0.2,0.6,0.58732390784533,0.58732390784533,750,0,0,neutral,0,3186.27184167106,1052.93301575852
23,104,1,133,-0.5,-0.5,0.5,1,2,0.2,1,712,1,1,712,0,0,0.2,0.4,0.243547624551888,0.243547624551888,750,0,0,incongruent,0,560.744283909569,4785.92919554775
23,104,1,134,0.5,-0.5,0,4,NaN,0.2,3,684,0,1,NaN,0,0,0.2,NaN,0.0430114592973794,NaN,750,0,1,neutral,0,4037.33893152636,2213.04699608845
23,104,1,135,-0.5,0.5,0.5,3,4,0.2,3,857,1,0,857,0,0,0.2,0.4,1.28203848033416,1.28203848033416,750,0,0,incongruent,0,8875.2120814026,5466.37994051555
23,104,1,136,0.5,-0.5,0,1,NaN,0.2,1,484,1,1,484,0,0,0,NaN,-1.38938972109196,-1.38938972109196,750,0,0,neutral,0,1673.6540262095,5158.57248681065
23,104,1,137,-0.5,0.5,-0.5,4,4,0.2,4,644,1,1,644,1,0,0,0.2,-0.243468776780489,-0.243468776780489,750,1,0,congruent,0.1,1634.49630841466,3083.4073628834
23,104,1,138,-0.5,-0.5,0,3,NaN,0.2,3,685,1,1,685,1,0,0.2,0.4,0.0501734651993261,0.0501734651993261,750,0,0,neutral,0.1,1653.74421620249,2382.37059009449
23,104,1,139,0.5,-0.5,0.5,1,3,0.2,1,511,1,1,511,0,0,0.4,NaN,-1.1960155617394,-1.1960155617394,750,0,0,incongruent,0,4864.89935124589,1204.81983685077
23,104,1,140,-0.5,0.5,-0.5,2,2,0.2,2,534,1,1,534,1,0,0.4,0.2,-1.03128942599463,-1.03128942599463,750,1,0,congruent,0.1,3713.96131178608,2530.00334522965
23,104,1,141,0.5,-0.5,0.5,1,3,0.4,1,808,1,0,808,1,0,0.6,NaN,0.931100191138773,0.931100191138773,750,0,0,incongruent,1,2397.50126203768,2066.09385754452
23,104,1,142,0.5,-0.5,-0.5,2,2,0.4,2,637,1,1,637,1,0,1,NaN,-0.293602818094117,-0.293602818094117,750,1,0,congruent,1,8705.56878227562,4211.64674076005
23,104,1,143,0.5,-0.5,-0.5,4,4,0.4,4,717,1,1,717,1,0,1.2,NaN,0.279357654061621,0.279357654061621,750,1,0,congruent,1,1889.88154084406,6475.03591691176
23,104,1,144,-0.5,0.5,0.5,1,2,0.4,2,541,0,1,NaN,0,0,1.4,0.4,-0.981155384681002,NaN,750,1,0,incongruent,0,10201.6202603258,3113.60256191344
23,104,1,145,0.5,0.5,0,4,NaN,0.4,4,716,1,1,716,1,0,1.4,NaN,0.272195648159674,0.272195648159674,750,0,0,neutral,1,2366.80295042392,2310.9705267054
23,104,1,146,0.5,-0.5,0.5,1,3,0.6,1,632,1,1,632,0,0,1.6,NaN,-0.32941284760385,-0.32941284760385,750,0,0,incongruent,0,1136.65146830347,5315.60022334208
23,104,1,147,-0.5,-0.5,-0.5,4,4,0.6,4,956,1,0,956,0,0,1.2,0.6,1.99107706462689,1.99107706462689,750,1,0,congruent,0,3179.84836933776,3326.284944854
23,104,1,148,-0.5,0.5,0,2,NaN,0.6,2,679,1,1,679,1,0,0.8,0.4,0.00720142978764575,0.00720142978764575,750,0,0,neutral,0.1,2199.02061791547,2576.37353448425
23,104,1,149,-0.5,-0.5,0.5,3,2,0.8,3,785,1,0,785,1,0,0.6,0.4,0.766374055393998,0.766374055393998,750,0,0,incongruent,0.1,2681.94735667955,8832.58961125322
23,104,1,150,-0.5,0.5,0.5,4,1,0.8,4,771,1,0,771,0,0,0.8,0.6,0.666105972766744,0.666105972766744,750,0,0,incongruent,0,3984.44068528102,6307.1753516108
23,104,2,151,0.5,-0.5,0.5,1,4,0.6,2,761,0,0,NaN,1,0,0.4,NaN,0.594485913747277,NaN,750,0,1,incongruent,1,5736.94797558499,2752.7618455381
23,104,2,152,0.5,-0.5,-0.5,2,2,0.6,2,543,1,1,543,0,0,0.8,NaN,-0.966831372877108,-0.966831372877108,750,1,0,congruent,0,4190.81473175129,1602.29290368171
23,104,2,153,-0.5,-0.5,-0.5,4,4,0.6,4,692,1,1,692,0,0,0.8,0.4,0.100307506512953,0.100307506512953,750,1,0,congruent,0,1398.87147854713,1852.08396950677
23,104,2,155,0.5,0.5,0,2,NaN,0.4,2,729,1,1,729,1,0,0.4,NaN,0.365301724884982,0.365301724884982,750,0,0,neutral,1,1953.89780329193,13523.9038083546
23,104,2,156,0.5,-0.5,-0.5,4,4,0.6,4,687,1,1,687,1,0,0.8,NaN,0.0644974770032195,0.0644974770032195,750,1,0,congruent,1,9671.1090407404,17289.069065117
23,104,2,157,-0.5,-0.5,0.5,1,3,0.6,1,790,1,0,790,1,0,0.8,0.4,0.802184084903732,0.802184084903732,750,0,0,incongruent,0.1,964.941712360207,3801.2921103518
23,104,2,158,0.5,-0.5,0.5,2,1,0.6,2,598,1,1,598,1,0,1,NaN,-0.572921048270039,-0.572921048270039,750,0,0,incongruent,1,7412.12641695001,1659.63366244497
23,104,2,159,-0.5,0.5,0,1,NaN,0.6,1,543,1,1,543,1,0,1.4,0.4,-0.966831372877108,-0.966831372877108,750,0,0,neutral,0.1,5440.17723496058,2466.88085117071
23,104,2,160,0.5,0.5,-0.5,4,4,0.6,4,757,1,0,757,0,0,1.6,NaN,0.56583789013949,0.56583789013949,750,1,0,congruent,0,3972.32900837956,6306.49994345973
23,104,2,161,0.5,0.5,0.5,1,3,0.4,1,729,1,1,729,1,0,1.2,NaN,0.365301724884982,0.365301724884982,750,0,0,incongruent,1,859.269156291702,4600.84048625102
23,104,2,162,-0.5,-0.5,0.5,3,2,0.6,3,899,1,0,899,1,0,1.2,0.6,1.58284272821592,1.58284272821592,750,0,0,incongruent,0.1,6707.29961057322,1030.79064114499
23,104,2,163,-0.5,0.5,0,1,NaN,0.6,1,637,1,1,637,1,0,1.2,0.4,-0.293602818094117,-0.293602818094117,750,0,0,neutral,0.1,4571.11399303932,4462.90091663929
23,104,2,164,0.5,0.5,-0.5,4,4,0.8,3,656,0,1,NaN,0,0,1,NaN,-0.157524705957129,NaN,750,0,1,congruent,0,5867.22807613927,7628.67019770843
23,104,2,165,0.5,0.5,0.5,1,3,0.6,1,678,1,1,678,1,0,0.8,NaN,3.94238856990298e-05,3.94238856990298e-05,750,0,0,incongruent,1,2884.5129383639,3643.1583646566
23,104,2,166,-0.5,0.5,0.5,4,1,0.6,4,573,1,1,573,1,0,1.2,0.6,-0.751971195818707,-0.751971195818707,750,0,0,incongruent,0.1,3166.58454802055,1320.10709216173
23,104,2,167,0.5,0.5,0,2,NaN,0.8,1,829,0,0,NaN,0,0,1,NaN,1.08150231507965,NaN,750,0,1,neutral,0,8749.19133797915,6771.53279293111
23,104,2,168,-0.5,-0.5,-0.5,3,3,0.6,3,812,1,0,812,0,0,0.8,0.6,0.95974821474656,0.95974821474656,750,1,0,congruent,0,7504.95929737543,1695.62818970892
23,104,2,169,0.5,0.5,0.5,2,4,0.6,2,836,1,0,836,0,0,0.6,NaN,1.13163635639328,1.13163635639328,750,0,0,incongruent,0,2028.40352058734,7385.8998178307
23,104,2,170,0.5,-0.5,-0.5,1,1,0.4,1,686,1,1,686,1,0,0.6,NaN,0.0573354711012728,0.0573354711012728,750,1,0,congruent,1,1977.51185922223,1683.05882006766
23,104,2,172,0.5,-0.5,0.5,3,2,0.4,3,680,1,1,680,1,0,0.4,NaN,0.0143634356895925,0.0143634356895925,750,0,0,incongruent,1,4266.82080116715,9264.20469210165
23,104,2,173,-0.5,0.5,-0.5,1,1,0.4,1,632,1,1,632,1,0,0.8,0.6,-0.32941284760385,-0.32941284760385,750,1,0,congruent,0.1,3313.64221119911,3468.57868295586
23,104,2,174,-0.5,0.5,0.5,4,3,0.4,4,563,1,1,563,1,0,1,0.8,-0.823591254838174,-0.823591254838174,750,0,0,incongruent,0.1,826.809916660977,2130.17184326886
23,104,2,175,0.5,0.5,0.5,3,4,0.4,3,887,1,0,887,0,0,1.2,NaN,1.49689865739256,1.49689865739256,750,0,0,incongruent,0,5225.36882458846,10364.3847906618
23,104,2,176,-0.5,-0.5,-0.5,2,2,0.4,2,631,1,1,631,0,0,0.8,0.6,-0.336574853505797,-0.336574853505797,750,1,0,congruent,0,4220.61361219233,4091.03194633788
23,104,2,177,-0.5,0.5,0,1,NaN,0.4,1,631,1,1,631,1,0,0.8,0.8,-0.336574853505797,-0.336574853505797,750,0,0,neutral,0.1,5911.69433046648,6620.32113751058
23,104,2,178,0.5,0.5,-0.5,4,4,0.6,2,692,0,1,NaN,0,0,0.6,NaN,0.100307506512953,NaN,750,0,1,congruent,0,657.212509774872,4383.09387309559
23,104,2,180,0.5,-0.5,-0.5,3,3,0.6,3,555,1,1,555,1,0,0.4,NaN,-0.880887302053748,-0.880887302053748,750,1,0,congruent,1,6770.01128833251,1619.26611879793
23,104,2,181,-0.5,-0.5,0,2,NaN,0.6,3,457,0,1,NaN,1,0,0.8,0.6,-1.58276388044453,NaN,750,0,1,neutral,0.1,2768.23596089832,2755.82434436798
23,104,2,182,-0.5,-0.5,0.5,1,2,0.6,1,653,1,1,653,1,0,1,0.6,-0.179010723662969,-0.179010723662969,750,0,0,incongruent,0.1,2713.13585067857,2826.64732501272
23,104,2,184,0.5,-0.5,-0.5,1,1,0.6,1,579,1,1,579,1,0,1.2,NaN,-0.708999160407026,-0.708999160407026,750,1,0,congruent,1,5661.33492537723,2960.72906964363
23,104,2,185,-0.5,-0.5,0,4,NaN,0.6,4,648,1,1,648,1,0,1.4,0.8,-0.214820753172703,-0.214820753172703,750,0,0,neutral,0.1,5273.58696415106,2665.74823209735
23,104,2,186,0.5,-0.5,-0.5,3,3,0.6,3,413,1,1,413,1,0,1.2,NaN,-1.89789214013018,-1.89789214013018,750,1,0,congruent,1,5434.08642310938,2870.18698511186
23,104,2,187,0.5,0.5,0.5,1,4,0.6,1,964,1,0,964,0,0,1.4,NaN,2.04837311184246,2.04837311184246,750,0,0,incongruent,0,1824.46005223444,2898.22628998719
23,104,2,188,0.5,0.5,0,3,NaN,0.4,3,536,1,1,536,1,0,1.2,NaN,-1.01696541419074,-1.01696541419074,750,0,0,neutral,1,4015.35329971228,3039.07483954894
23,104,2,189,-0.5,-0.5,0.5,2,4,0.4,2,832,1,0,832,0,0,1.4,1,1.10298833278549,1.10298833278549,750,0,0,incongruent,0,4076.76251166228,567.767409673055
23,104,2,190,0.5,0.5,0,3,NaN,0.4,3,930,1,0,930,0,0,1,NaN,1.80486491117627,1.80486491117627,750,0,0,neutral,0,21796.1566812633,4483.25384045361
23,104,2,191,-0.5,-0.5,-0.5,4,4,0.4,4,421,1,1,421,0,0,0.8,0.8,-1.84059609291461,-1.84059609291461,750,1,0,congruent,0,8497.41371632325,1482.23228323448
23,104,2,192,0.5,0.5,0,1,NaN,0.4,1,679,1,1,679,1,0,0.4,NaN,0.00720142978764575,0.00720142978764575,750,0,0,neutral,1,787.424691464783,8628.55685865051
23,104,2,193,0.5,-0.5,-0.5,2,2,0.4,2,483,1,1,483,1,0,0.8,NaN,-1.39655172699391,-1.39655172699391,750,1,0,congruent,1,4037.98686911375,417.199291617897
23,104,2,194,-0.5,0.5,0,4,NaN,0.4,3,780,0,0,NaN,0,0,0.8,0.8,0.730564025884265,NaN,750,0,1,neutral,0,5040.5707169105,3647.18704060932
23,104,2,195,-0.5,0.5,-0.5,2,2,0.4,2,835,1,0,835,0,0,0.8,0.6,1.12447435049133,1.12447435049133,750,1,0,congruent,0,2407.39429752341,2094.85767416436
23,104,2,196,-0.5,-0.5,-0.5,4,4,0.4,4,980,1,0,980,0,0,0.8,0.6,2.16296520627361,2.16296520627361,750,1,0,congruent,0,1287.00544892976,3753.25971885944
23,104,2,198,-0.5,0.5,0,3,NaN,0.2,3,772,1,0,772,0,0,0.4,0.4,0.673267978668691,0.673267978668691,750,0,0,neutral,0,3851.94216677817,860.533191977489
23,104,2,199,-0.5,-0.5,0.5,1,4,0.2,1,900,1,0,900,1,0,0,0.4,1.59000473411787,1.59000473411787,750,0,0,incongruent,0.1,4138.01713864685,2538.25442798691
23,104,2,200,0.5,-0.5,0,3,NaN,0.2,3,682,1,1,682,0,0,0.2,NaN,0.0286874474934859,0.0286874474934859,750,0,0,neutral,0,1964.07476120517,1207.4454138345
23,104,2,201,-0.5,-0.5,0.5,2,3,0.2,2,733,1,1,733,0,0,0.2,0.4,0.393949748492769,0.393949748492769,750,0,0,incongruent,0,644.725490610824,614.472163240721
23,104,2,202,0.5,0.5,0,4,NaN,0.2,4,802,1,0,802,0,0,0.2,NaN,0.888128155727092,0.888128155727092,750,0,0,neutral,0,2335.75195897801,1609.0275265236
23,104,2,203,-0.5,0.5,-0.5,2,2,0,2,732,1,1,732,1,0,0.2,0.2,0.386787742590822,0.386787742590822,750,1,0,congruent,0.1,1073.56152595251,872.902330065826
23,104,2,204,-0.5,-0.5,0,3,NaN,0.2,2,579,0,1,NaN,0,0,0.4,0.2,-0.708999160407026,NaN,750,0,1,neutral,0,5021.58685834846,1127.63362359113
23,104,2,205,-0.5,0.5,0.5,2,3,0.2,2,703,1,1,703,1,0,0.2,0.2,0.179089571434367,0.179089571434367,750,0,0,incongruent,0.1,1823.20646143686,1825.31398229032
23,104,2,206,0.5,0.5,0,4,NaN,0.4,4,746,1,1,746,1,0,0.4,NaN,0.487055825218076,0.487055825218076,750,0,0,neutral,1,5784.42348072436,2867.96456015969
23,104,2,207,-0.5,-0.5,-0.5,1,1,0.6,1,567,1,1,567,0,0,0.8,0.2,-0.794943231230387,-0.794943231230387,750,1,0,congruent,0,6465.59744200573,5919.61144554248
23,104,2,208,0.5,-0.5,0,2,NaN,0.6,2,602,1,1,602,1,0,0.8,NaN,-0.544273024662252,-0.544273024662252,750,0,0,neutral,1,2843.60779932133,9304.12231753489
23,104,2,209,-0.5,-0.5,-0.5,4,4,0.6,4,646,1,1,646,1,0,1,0.2,-0.229144764976596,-0.229144764976596,750,1,0,congruent,0.1,3753.55251385775,7331.95081670439
23,104,2,210,-0.5,0.5,0,3,NaN,0.6,3,562,1,1,562,1,0,1.2,0.4,-0.830753260740121,-0.830753260740121,750,0,0,neutral,0.1,2993.25291692227,5790.29781647239
23,104,2,211,-0.5,0.5,-0.5,2,2,0.8,2,721,1,1,721,1,0,1.2,0.6,0.308005677669408,0.308005677669408,750,1,0,congruent,0.1,3842.13524244998,3450.72556438975
23,104,2,213,-0.5,0.5,-0.5,4,4,0.8,4,631,1,1,631,1,0,1,0.8,-0.336574853505797,-0.336574853505797,750,1,0,congruent,0.1,2624.1600260627,5358.79676494897
23,104,2,215,0.5,0.5,0.5,4,3,0.8,3,666,0,1,NaN,0,0,1,NaN,-0.0859046469376616,NaN,750,1,0,incongruent,0,4517.61838073964,2006.28447525332
23,104,2,216,0.5,0.5,0.5,3,2,0.6,4,646,0,1,NaN,0,0,0.8,NaN,-0.229144764976596,NaN,750,0,1,incongruent,0,3493.74443199858,973.02103010579
23,104,2,217,0.5,-0.5,-0.5,4,4,0.4,4,692,1,1,692,1,0,0.6,NaN,0.100307506512953,0.100307506512953,750,1,0,congruent,1,3840.39181350247,3600.2334453985
23,104,2,218,0.5,0.5,0,1,NaN,0.4,1,636,1,1,636,1,0,1,NaN,-0.300764823996063,-0.300764823996063,750,0,0,neutral,1,3069.66144155665,2676.449262162
23,104,2,219,0.5,0.5,-0.5,4,4,0.4,4,739,1,1,739,1,0,1.2,NaN,0.436921783904449,0.436921783904449,750,1,0,congruent,1,2982.31563748323,6499.86369176793
23,104,2,220,0.5,-0.5,0,3,NaN,0.6,3,516,1,1,516,1,0,1.2,NaN,-1.16020553222967,-1.16020553222967,750,0,0,neutral,1,2109.5573053099,4098.11355537444
23,104,2,221,-0.5,-0.5,-0.5,4,4,0.6,4,642,1,1,642,1,0,1.6,0.4,-0.257792788584383,-0.257792788584383,750,1,0,congruent,0.1,779.259406155059,3505.63171584292
23,104,2,222,0.5,-0.5,0.5,2,3,0.6,2,665,1,1,665,1,0,1.8,NaN,-0.0930666528396083,-0.0930666528396083,750,0,0,incongruent,1,4358.30677100729,3653.92495079748
23,104,2,223,-0.5,0.5,0.5,3,2,0.6,3,896,1,0,896,0,0,1.8,1,1.56135671051008,1.56135671051008,750,0,0,incongruent,0,1848.48669022731,2687.35478427143
23,104,2,224,0.5,-0.5,0,1,NaN,0.4,1,382,1,1,382,0,0,1.4,NaN,-2.11991432309053,-2.11991432309053,750,0,0,neutral,0,2836.98567781123,654.929761779853
23,104,2,225,0.5,0.5,-0.5,2,2,0.4,2,445,1,1,445,1,0,1,NaN,-1.66870795126789,-1.66870795126789,750,1,0,congruent,1,2707.68453420002,1807.0589273502
23,104,2,226,0.5,-0.5,-0.5,1,1,0.6,1,533,1,1,533,1,0,1,NaN,-1.03845143189658,-1.03845143189658,750,1,0,congruent,1,5052.64337459933,1626.23565541186
23,104,2,227,0.5,-0.5,0,2,NaN,0.6,2,640,1,1,640,0,0,1.2,NaN,-0.272116800388276,-0.272116800388276,750,0,0,neutral,0,4514.80321942342,1415.56777309395
23,104,2,228,0.5,0.5,-0.5,3,3,0.6,3,863,1,0,863,0,0,0.8,NaN,1.32501051574584,1.32501051574584,750,1,0,congruent,0,6297.04914324687,2942.78630154945
23,104,2,229,0.5,0.5,0.5,2,1,0.6,2,815,1,0,815,0,0,0.8,NaN,0.9812342324524,0.9812342324524,750,0,0,incongruent,0,1006.14138237379,2155.44421006109
23,104,2,230,0.5,-0.5,0,1,NaN,0.4,2,479,0,1,NaN,1,0,0.8,NaN,-1.4251997506017,NaN,750,0,1,neutral,1,8900.3282217474,3833.77543277889
23,104,2,231,-0.5,0.5,-0.5,2,2,0.4,1,470,0,1,NaN,0,0,0.8,0.8,-1.48965780371922,NaN,750,0,1,congruent,0,6261.55337093635,2472.86887165399
23,104,2,232,-0.5,0.5,-0.5,3,3,0.2,3,615,1,1,615,1,0,0.4,0.6,-0.451166947936944,-0.451166947936944,750,1,0,congruent,0.1,4198.70853654758,2501.05034336368
23,104,2,233,0.5,-0.5,0,1,NaN,0.4,1,695,1,1,695,1,0,0.6,NaN,0.121793524218793,0.121793524218793,750,0,0,neutral,1,1204.19412899993,3781.60188849904
23,104,2,234,0.5,-0.5,-0.5,2,2,0.4,2,473,1,1,473,0,0,1,NaN,-1.46817178601338,-1.46817178601338,750,1,0,congruent,0,2071.82212815473,2118.56108710249
23,104,2,235,-0.5,0.5,0,3,NaN,0.4,3,518,1,1,518,1,0,1,0.6,-1.14588152042578,-1.14588152042578,750,0,0,neutral,0.1,2788.42492146098,1390.82211070559
23,104,2,236,-0.5,-0.5,-0.5,1,1,0.4,1,415,1,1,415,0,0,0.8,0.4,-1.88356812832629,-1.88356812832629,750,1,0,congruent,0,1546.24643400878,3138.09990858919
23,104,2,237,-0.5,-0.5,-0.5,3,3,0.4,3,541,1,1,541,1,0,0.8,0.4,-0.981155384681002,-0.981155384681002,750,1,0,congruent,0.1,1745.43087485582,3170.76669529971
23,104,2,238,-0.5,0.5,-0.5,4,4,0.4,4,405,1,1,405,1,0,0.8,0.6,-1.95518818734576,-1.95518818734576,750,1,0,congruent,0.1,1930.01932859277,1462.00414254165
23,104,2,240,-0.5,-0.5,-0.5,2,2,0.6,2,548,1,1,548,1,0,0.6,0.6,-0.931021343367375,-0.931021343367375,750,1,0,congruent,0.1,3925.56484844511,687.125940657333
23,104,2,241,-0.5,-0.5,0.5,3,4,0.6,3,797,1,0,797,0,0,0.6,0.8,0.852318126217359,0.852318126217359,750,0,0,incongruent,0,3547.33035357263,5432.7839539747
23,104,2,244,-0.5,-0.5,0.5,1,3,0.6,1,767,1,0,767,0,0,0.6,0.6,0.637457949158957,0.637457949158957,750,0,0,incongruent,0,1817.14929786935,5423.16131170734
23,104,2,245,-0.5,0.5,0,4,NaN,0.6,3,913,0,0,NaN,0,0,0.6,0.6,1.68311081084318,NaN,750,0,1,neutral,0,5076.41602005425,920.164339185144
23,104,2,246,0.5,-0.5,0.5,1,2,0.4,1,966,1,0,966,0,0,0.4,NaN,2.06269712364635,2.06269712364635,750,0,0,incongruent,0,7825.38960034601,1241.18418862294
23,104,2,247,-0.5,-0.5,0,4,NaN,0.4,4,712,1,1,712,1,0,0.4,0.4,0.243547624551888,0.243547624551888,750,0,0,neutral,0.1,11691.9889421908,1590.61614079231
23,104,2,248,0.5,-0.5,-0.5,1,1,0.4,1,876,1,0,876,1,0,0.6,NaN,1.41811659247115,1.41811659247115,750,1,0,congruent,1,524.40680711416,5169.86264829573
23,104,2,249,-0.5,-0.5,0.5,2,3,0.4,2,769,1,0,769,0,0,0.6,0.6,0.651781960962851,0.651781960962851,750,0,0,incongruent,0,2787.5970203041,1774.36580000773
23,104,2,250,0.5,0.5,-0.5,4,4,0.4,3,918,0,0,NaN,0,0,0.6,NaN,1.71892084035291,NaN,750,0,1,congruent,0,3356.11178411542,2544.34351792614
23,104,2,251,-0.5,0.5,-0.5,3,3,0.2,3,728,1,1,728,1,0,0.6,0.4,0.358139718983035,0.358139718983035,750,1,0,congruent,0.1,3929.37743541323,6516.72551582334
23,104,2,252,0.5,-0.5,0,2,NaN,0.2,2,667,1,1,667,0,0,0.8,NaN,-0.0787426410357149,-0.0787426410357149,750,0,0,neutral,0,1599.88560806046,6789.67432771479
23,104,2,253,0.5,-0.5,-0.5,1,1,0.2,1,649,1,1,649,1,0,0.6,NaN,-0.207658747270756,-0.207658747270756,750,1,0,congruent,1,1363.61459783379,4142.6645971759
23,104,2,254,-0.5,0.5,-0.5,3,3,0.2,3,517,1,1,517,1,0,0.6,0.4,-1.15304352632772,-1.15304352632772,750,1,0,congruent,0.1,2976.16081061065,6365.40792507681
23,104,2,255,0.5,0.5,0,4,NaN,0.4,4,734,1,1,734,1,0,0.8,NaN,0.401111754394715,0.401111754394715,750,0,0,neutral,1,3023.25842871576,2176.16630687527
23,104,2,256,0.5,-0.5,-0.5,3,3,0.6,3,816,1,0,816,1,0,1.2,NaN,0.988396238354347,0.988396238354347,750,1,0,congruent,1,5849.26827831232,5178.49312873675
23,104,2,257,-0.5,0.5,0,1,NaN,0.6,1,705,1,1,705,1,0,1.4,0.4,0.19341358323826,0.19341358323826,750,0,0,neutral,0.1,4234.63970608823,6174.85419986708
23,104,2,258,0.5,0.5,0.5,3,1,0.8,3,800,1,0,800,0,0,1.6,NaN,0.873804143923199,0.873804143923199,750,0,0,incongruent,0,9795.48561255351,3898.02680323562
23,104,2,259,0.5,-0.5,0,2,NaN,0.8,2,368,1,1,368,1,0,1.2,NaN,-2.22018240571778,-2.22018240571778,750,0,0,neutral,1,5518.72442145585,1710.18997850865
23,104,2,260,0.5,-0.5,-0.5,4,4,0.8,4,395,1,1,395,1,0,1.4,NaN,-2.02680824636522,-2.02680824636522,750,1,0,congruent,1,1719.67876495085,3328.21139326235
23,104,2,261,0.5,0.5,0.5,1,3,0.8,1,726,1,1,726,1,0,1.4,NaN,0.343815707179142,0.343815707179142,750,0,0,incongruent,1,3054.40580266897,6435.80052130062
23,104,2,262,0.5,-0.5,0,2,NaN,0.8,2,514,1,1,514,0,0,1.4,NaN,-1.17452954403356,-1.17452954403356,750,0,0,neutral,0,3120.93491016565,2305.12735319569
23,104,2,263,-0.5,-0.5,0.5,1,3,0.8,1,577,1,1,577,0,0,1.2,0.4,-0.72332317221092,-0.72332317221092,750,0,0,incongruent,0,3998.74292217092,2404.7233200973
23,104,2,264,-0.5,-0.5,0,4,NaN,0.8,4,773,1,0,773,1,0,1.2,0.2,0.680429984570638,0.680429984570638,750,0,0,neutral,0.1,2250.29772337666,1543.68824923512
23,104,2,265,-0.5,-0.5,0.5,3,4,0.8,3,619,1,1,619,1,0,1,0.4,-0.422518924329157,-0.422518924329157,750,0,0,incongruent,0.1,1320.02021139375,1933.69958515027
23,104,2,266,0.5,0.5,0.5,4,3,0.8,3,710,0,1,NaN,0,0,0.8,NaN,0.229223612747994,NaN,750,1,0,incongruent,0,8202.71954999355,2678.44457394892
23,104,2,267,-0.5,0.5,-0.5,1,1,0.6,1,533,1,1,533,1,0,0.4,0.6,-1.03845143189658,-1.03845143189658,750,1,0,congruent,0.1,2449.99995248323,909.969240494019
23,104,2,268,-0.5,-0.5,0,3,NaN,0.6,3,736,1,1,736,0,0,0.6,0.6,0.415435766198609,0.415435766198609,750,0,0,neutral,0,8343.94051908343,6749.72053351744
23,104,2,269,0.5,-0.5,-0.5,1,1,0.6,1,570,1,1,570,1,0,0.6,NaN,-0.773457213524547,-0.773457213524547,750,1,0,congruent,1,7136.14554663999,1152.59677721974
23,104,2,270,-0.5,0.5,-0.5,4,4,0.6,4,592,1,1,592,1,0,0.8,0.8,-0.615893083681719,-0.615893083681719,750,1,0,congruent,0.1,1241.27740961785,4165.32498795555
23,104,2,271,-0.5,0.5,0,2,NaN,0.6,2,607,1,1,607,1,0,0.8,1,-0.508462995152518,-0.508462995152518,750,0,0,neutral,0.1,1264.91286226438,2900.29120301028
23,104,2,273,-0.5,0.5,0.5,2,4,0.8,2,840,1,0,840,0,0,1.2,1,1.16028438000107,1.16028438000107,750,0,0,incongruent,0,2442.30333934425,2963.19829034785
23,104,2,274,-0.5,-0.5,-0.5,3,3,0.6,3,447,1,1,447,0,0,1.2,0.4,-1.65438393946399,-1.65438393946399,750,1,0,congruent,0,926.69476856766,1803.83760605057
23,104,2,275,0.5,0.5,0,2,NaN,0.6,2,568,1,1,568,1,0,0.8,NaN,-0.78778122532844,-0.78778122532844,750,0,0,neutral,1,3956.98154300603,9369.30721016214
23,104,2,276,-0.5,-0.5,-0.5,4,4,0.8,4,687,1,1,687,0,0,1,0.4,0.0644974770032195,0.0644974770032195,750,1,0,congruent,0,3097.28518941997,6725.60878886838
23,104,2,277,0.5,0.5,-0.5,2,2,0.8,2,642,1,1,642,1,0,0.8,NaN,-0.257792788584383,-0.257792788584383,750,1,0,congruent,1,2788.43037796279,2795.12811387747
23,104,2,279,0.5,0.5,0.5,4,2,0.8,4,445,1,1,445,1,0,1.2,NaN,-1.66870795126789,-1.66870795126789,750,0,0,incongruent,1,2407.90278679585,2544.13370203301
23,104,2,280,-0.5,0.5,-0.5,3,3,0.8,3,940,1,0,940,0,0,1.6,0.8,1.87648497019574,1.87648497019574,750,1,0,congruent,0,3560.51896061922,3050.65315745893
23,104,2,281,-0.5,-0.5,0.5,2,4,0.6,2,528,1,1,528,1,0,1.2,0.4,-1.07426146140631,-1.07426146140631,750,0,0,incongruent,0.1,2731.95909550024,1802.52389943374
23,104,2,282,0.5,0.5,0.5,4,3,0.6,4,753,1,0,753,0,0,1.4,NaN,0.537189866531703,0.537189866531703,750,0,0,incongruent,0,3601.88277572019,916.769831897019
23,104,2,283,0.5,0.5,-0.5,1,1,0.6,1,597,1,1,597,1,0,1,NaN,-0.580083054171985,-0.580083054171985,750,1,0,congruent,1,6999.89072384842,2250.9855701636
23,104,2,284,0.5,-0.5,-0.5,2,2,0.6,2,665,1,1,665,1,0,1,NaN,-0.0930666528396083,-0.0930666528396083,750,1,0,congruent,1,13192.3181391753,3238.43337992367
23,104,2,285,-0.5,0.5,0,4,NaN,0.6,3,650,0,1,NaN,0,0,1,0.6,-0.200496741368809,NaN,750,0,1,neutral,0,6195.86966684356,2058.06369245993
23,104,2,287,0.5,0.5,0,2,NaN,0.2,2,718,1,1,718,1,0,0.8,NaN,0.286519659963568,0.286519659963568,750,0,0,neutral,1,10458.1825582508,6674.94351444751
23,104,2,288,-0.5,-0.5,-0.5,4,4,0.4,4,440,1,1,440,0,0,1.2,0.4,-1.70451798077762,-1.70451798077762,750,1,0,congruent,0,4379.26143682664,839.931141489246
23,104,2,289,-0.5,0.5,0,3,NaN,0.4,3,803,1,0,803,0,0,0.8,0.4,0.895290161629039,0.895290161629039,750,0,0,neutral,0,1374.86200658301,1276.62577812334
23,104,2,290,0.5,-0.5,-0.5,1,1,0.4,2,587,0,1,NaN,0,0,0.4,NaN,-0.651703113191453,NaN,750,0,1,congruent,0,2387.31826169874,2857.7621527419
23,104,2,291,-0.5,0.5,-0.5,2,2,0.4,2,757,1,0,757,0,0,0.4,0.2,0.56583789013949,0.56583789013949,750,1,0,congruent,0,8152.21216720372,2056.31243544861
23,104,2,292,-0.5,-0.5,0,1,NaN,0.2,1,533,1,1,533,0,0,0.4,0.2,-1.03845143189658,-1.03845143189658,750,0,0,neutral,0,2330.88142493979,1808.85629507699
23,104,2,293,0.5,0.5,-0.5,3,3,0.2,3,750,1,1,750,0,0,0,NaN,0.515703848825863,0.515703848825863,750,1,0,congruent,0,1423.19377416552,7206.54367794387
23,104,2,294,-0.5,-0.5,0.5,4,2,0.2,4,669,1,1,669,0,0,0,0.2,-0.0644186292318215,-0.0644186292318215,750,0,0,incongruent,0,5662.25678502463,1905.68316789944
23,104,2,295,-0.5,-0.5,0,2,NaN,0.2,2,845,1,0,845,0,0,0,0.2,1.1960944095108,1.1960944095108,750,0,0,neutral,0,2856.28857576094,5656.37502200139
23,104,2,296,-0.5,0.5,0.5,3,1,0.2,3,663,1,1,663,1,0,0,0,-0.107390664643502,-0.107390664643502,750,0,0,incongruent,0.1,4105.41067889936,1143.38778289174
23,104,2,297,0.5,-0.5,-0.5,2,2,0.4,2,734,1,1,734,1,0,0.2,NaN,0.401111754394715,0.401111754394715,750,1,0,congruent,1,2192.81337335593,2656.60484265637
23,104,2,298,-0.5,0.5,-0.5,4,4,0.4,4,996,1,0,996,0,0,0.6,0.2,2.27755730070476,2.27755730070476,750,1,0,congruent,0,4939.91293650845,1776.472490417
23,104,2,300,-0.5,0.5,0.5,2,1,0.2,2,598,1,1,598,1,0,0.6,0.2,-0.572921048270039,-0.572921048270039,750,0,0,incongruent,0.1,3878.00301802224,4437.22241666406
23,104,3,301,-0.5,0.5,0.5,1,4,0.4,1,968,1,0,968,0,0,0.8,0.4,2.07702113545025,2.07702113545025,750,0,0,incongruent,0,1457.59164731128,1275.33257175089
23,104,3,302,-0.5,-0.5,0.5,3,1,0.4,3,775,1,0,775,1,0,0.6,0.2,0.694753996374531,0.694753996374531,750,0,0,incongruent,0.1,3176.78669043859,1803.08800441547
23,104,3,303,-0.5,0.5,0.5,1,2,0.4,2,538,0,1,NaN,0,0,0.4,0.4,-1.00264140238684,NaN,750,1,0,incongruent,0,9689.5798023101,496.098137689325
23,104,3,304,-0.5,-0.5,0.5,2,4,0.2,2,597,1,1,597,0,0,0.4,0.2,-0.580083054171985,-0.580083054171985,750,0,0,incongruent,0,1897.49017014094,1581.04114071309
23,104,3,305,0.5,-0.5,-0.5,1,1,0.2,1,391,1,1,391,0,0,0.4,NaN,-2.05545626997301,-2.05545626997301,750,1,0,congruent,0,5444.31571060316,1823.75545996551
23,104,3,306,-0.5,-0.5,0,3,NaN,0.2,3,835,1,0,835,0,0,0.2,0.2,1.12447435049133,1.12447435049133,750,0,0,neutral,0,5474.17505829075,4423.71748591741
23,104,3,307,0.5,-0.5,0.5,1,3,0.2,2,830,0,0,NaN,1,0,0.2,NaN,1.0886643209816,NaN,750,0,1,incongruent,1,4122.58058025294,2866.96398044193
23,104,3,309,0.5,-0.5,0.5,3,4,0.2,3,634,1,1,634,0,0,0.4,NaN,-0.315088835799957,-0.315088835799957,750,0,0,incongruent,0,4746.96548347044,1538.98373403638
23,104,3,310,-0.5,-0.5,0.5,1,2,0.2,1,750,1,1,750,0,0,0.4,0.2,0.515703848825863,0.515703848825863,750,0,0,incongruent,0,4391.19332550246,6131.7420554715
23,104,3,311,-0.5,0.5,0,3,NaN,0.2,3,882,1,0,882,0,0,0.4,0.2,1.46108862788283,1.46108862788283,750,0,0,neutral,0,1142.26531771355,3496.79872247405
23,104,3,312,-0.5,-0.5,-0.5,1,1,0.2,1,722,1,1,722,1,0,0.4,0.2,0.315167683571355,0.315167683571355,750,1,0,congruent,0.1,1967.94188689765,2391.87950302925
23,104,3,313,0.5,0.5,-0.5,3,3,0.2,3,842,1,0,842,0,0,0.2,NaN,1.17460839180496,1.17460839180496,750,1,0,congruent,0,4477.47073073871,5417.04391796745
23,104,3,314,0.5,0.5,0,4,NaN,0.2,4,830,1,0,830,0,0,0.2,NaN,1.0886643209816,1.0886643209816,750,0,0,neutral,0,4595.64272495002,1681.16193601334
23,104,3,317,0.5,-0.5,0,1,NaN,0,1,766,1,0,766,0,0,0.2,NaN,0.63029594325701,0.63029594325701,750,0,0,neutral,0,2655.02092812651,2399.04423879252
23,104,3,318,-0.5,0.5,0.5,3,2,0,4,510,0,1,NaN,0,0,0,0.2,-1.20317756764135,NaN,750,0,1,incongruent,0,4682.1785682986,1512.46244454352
23,104,3,319,0.5,-0.5,0.5,2,3,0,2,897,1,0,897,0,0,0,NaN,1.56851871641203,1.56851871641203,750,0,0,incongruent,0,2668.56706856957,4289.49788898681
23,104,3,320,-0.5,-0.5,0,3,NaN,0,3,544,1,1,544,0,0,0,0.4,-0.959669366975162,-0.959669366975162,750,0,0,neutral,0,932.333687548214,2366.53728920535
23,104,3,321,-0.5,-0.5,-0.5,1,1,0,1,586,1,1,586,0,0,0,0.2,-0.658865119093399,-0.658865119093399,750,1,0,congruent,0,2629.29532353555,1735.193805426
23,104,3,322,-0.5,0.5,0,3,NaN,0,3,804,1,0,804,0,0,0,0,0.902452167530986,0.902452167530986,750,0,0,neutral,0,1933.94960565613,2457.9917225201
23,104,3,323,0.5,-0.5,-0.5,4,4,0,4,427,1,1,427,0,0,0,NaN,-1.79762405750293,-1.79762405750293,750,1,0,congruent,0,2425.80111874551,1996.77855346619
23,104,3,324,-0.5,0.5,0.5,3,2,0,3,600,1,1,600,1,0,0,0,-0.558597036466145,-0.558597036466145,750,0,0,incongruent,0.1,7451.48902929854,1504.39325162613
23,104,3,325,-0.5,-0.5,0,1,NaN,0.2,1,878,1,0,878,0,0,0.2,0.2,1.43244060427504,1.43244060427504,750,0,0,neutral,0,3790.29711057556,2173.14679226138
23,104,3,326,-0.5,0.5,0.5,4,3,0.2,4,772,1,0,772,0,0,0.2,0.2,0.673267978668691,0.673267978668691,750,0,0,incongruent,0,2236.83337034327,2659.18530621257
23,104,3,328,0.5,-0.5,0,1,NaN,0.2,1,805,1,0,805,0,0,0.2,NaN,0.909614173432933,0.909614173432933,750,0,0,neutral,0,1346.77445311861,2539.51451644663
23,104,3,329,0.5,-0.5,-0.5,2,2,0.2,2,877,1,0,877,0,0,0.2,NaN,1.4252785983731,1.4252785983731,750,1,0,congruent,0,3750.07395906472,2044.97229497917
23,104,3,330,-0.5,0.5,-0.5,4,4,0.2,4,845,1,0,845,0,0,0,0.2,1.1960944095108,1.1960944095108,750,1,0,congruent,0,2387.42615975442,3589.10523726023
23,104,3,331,0.5,0.5,0,3,NaN,0.2,3,482,1,1,482,1,0,0,NaN,-1.40371373289586,-1.40371373289586,750,0,0,neutral,1,3201.22236837462,5949.99020228763
23,104,3,332,-0.5,-0.5,-0.5,1,1,0.4,1,685,1,1,685,0,0,0.4,0.2,0.0501734651993261,0.0501734651993261,750,1,0,congruent,0,2187.26304432162,3720.84019003639
23,104,3,333,0.5,0.5,0,2,NaN,0.4,2,833,1,0,833,0,0,0.4,NaN,1.11015033868744,1.11015033868744,750,0,0,neutral,0,4493.23751085056,2699.16471879951
23,104,3,334,0.5,-0.5,-0.5,3,3,0.4,3,560,1,1,560,0,0,0.4,NaN,-0.845077272544014,-0.845077272544014,750,1,0,congruent,0,2626.0087884755,2148.20889635073
23,104,3,335,-0.5,0.5,0.5,4,1,0.4,4,364,1,1,364,1,0,0.4,0.2,-2.24883042932557,-2.24883042932557,750,0,0,incongruent,0.1,4209.54330401307,952.078152744319
23,104,3,336,0.5,-0.5,-0.5,3,3,0.4,3,717,1,1,717,0,0,0.6,NaN,0.279357654061621,0.279357654061621,750,1,0,congruent,0,2863.86188894659,4408.73961632905
23,104,3,337,-0.5,0.5,0,4,NaN,0.4,4,777,1,0,777,0,0,0.2,0.4,0.709078008178424,0.709078008178424,750,0,0,neutral,0,2211.17904667593,6765.26429451374
23,104,3,338,0.5,0.5,-0.5,3,3,0.4,3,605,1,1,605,1,0,0.2,NaN,-0.522787006956412,-0.522787006956412,750,1,0,congruent,1,921.831161079956,4115.20864060542
23,104,3,339,-0.5,0.5,-0.5,2,2,0.6,2,597,1,1,597,1,0,0.6,0.4,-0.580083054171985,-0.580083054171985,750,1,0,congruent,0.1,2289.59406186509,990.629966198802
23,104,3,340,0.5,-0.5,-0.5,4,4,0.6,4,635,1,1,635,1,0,0.8,NaN,-0.30792682989801,-0.30792682989801,750,1,0,congruent,1,1045.70960652839,1858.45978593669
23,104,3,341,-0.5,-0.5,0,3,NaN,0.6,3,613,1,1,613,1,0,1,0,-0.465490959740838,-0.465490959740838,750,0,0,neutral,0.1,2116.4727007764,4967.85993969081
23,104,3,343,-0.5,0.5,0,1,NaN,0.6,1,691,1,1,691,1,0,1.2,0.4,0.0931455006110064,0.0931455006110064,750,0,0,neutral,0.1,3473.04584895533,1165.56867146653
23,104,3,344,0.5,-0.5,-0.5,4,4,0.6,4,585,1,1,585,0,0,1,NaN,-0.666027124995346,-0.666027124995346,750,1,0,congruent,0,4552.63580107073,1705.08400290797
23,104,3,345,-0.5,-0.5,0,3,NaN,0.6,3,696,1,1,696,1,0,0.8,0.2,0.12895553012074,0.12895553012074,750,0,0,neutral,0.1,1297.21410901911,2041.21292952311
23,104,3,346,0.5,0.5,-0.5,1,1,0.6,2,889,0,0,NaN,0,0,0.6,NaN,1.51122266919646,NaN,750,0,1,congruent,0,5575.19331152075,2061.50636273553
23,104,3,348,0.5,0.5,-0.5,3,3,0.4,3,617,1,1,617,1,0,0.4,NaN,-0.436842936133051,-0.436842936133051,750,1,0,congruent,1,10101.1506213306,1898.34920184883
23,104,3,349,0.5,0.5,0,4,NaN,0.4,4,587,1,1,587,1,0,0.6,NaN,-0.651703113191453,-0.651703113191453,750,0,0,neutral,1,6774.87647105007,3939.93945884398
23,104,3,350,0.5,0.5,-0.5,1,1,0.6,2,953,0,0,NaN,0,0,1,NaN,1.96959104692105,NaN,750,0,1,congruent,0,6705.53900520722,339.076212919495
23,104,3,351,0.5,0.5,0,2,NaN,0.4,2,605,1,1,605,1,0,0.8,NaN,-0.522787006956412,-0.522787006956412,750,0,0,neutral,1,265.936590082783,2858.18517874312
23,104,3,352,-0.5,0.5,-0.5,1,1,0.6,1,474,1,1,474,1,0,1.2,0.4,-1.46100978011143,-1.46100978011143,750,1,0,congruent,0.1,1843.75104281692,1622.49323803783
23,104,3,353,0.5,0.5,-0.5,3,3,0.8,3,759,1,0,759,0,0,1.4,NaN,0.580161901943383,0.580161901943383,750,1,0,congruent,0,1682.49333981903,2933.97332169492
23,104,3,354,-0.5,0.5,0,2,NaN,0.6,2,514,1,1,514,1,0,1,0.6,-1.17452954403356,-1.17452954403356,750,0,0,neutral,0.1,1043.13043137857,3455.52399584078
23,104,3,355,-0.5,-0.5,0.5,3,2,0.6,1,383,0,1,NaN,1,0,0.8,0.4,-2.11275231718858,NaN,750,0,1,incongruent,0.1,8455.03876935608,349.137238786015
23,104,3,356,-0.5,0.5,0.5,2,4,0.6,2,812,1,0,812,0,0,1,0.6,0.95974821474656,0.95974821474656,750,0,0,incongruent,0,14546.9959746126,3692.76958616884
23,104,3,357,0.5,-0.5,0.5,1,3,0.6,1,645,1,1,645,0,0,0.6,NaN,-0.236306770878543,-0.236306770878543,750,0,0,incongruent,0,810.688000469349,4915.67892073556
23,104,3,358,0.5,-0.5,-0.5,2,2,0.6,2,663,1,1,663,1,0,0.4,NaN,-0.107390664643502,-0.107390664643502,750,1,0,congruent,1,5071.97740583744,1959.99211625139
23,104,3,359,-0.5,0.5,-0.5,1,1,0.6,1,678,1,1,678,1,0,0.8,0.6,3.94238856990298e-05,3.94238856990298e-05,750,1,0,congruent,0.1,2391.1137073824,3586.50600316271
23,104,3,360,-0.5,0.5,-0.5,3,3,0.6,4,704,0,1,NaN,0,0,0.8,0.6,0.186251577336314,NaN,750,0,1,congruent,0,9061.94603191104,3643.02033633166
23,104,3,361,-0.5,0.5,0,4,NaN,0.4,3,740,0,1,NaN,0,0,0.6,0.6,0.444083789806396,NaN,750,0,1,neutral,0,2994.58314046608,1300.37805766697
23,104,3,362,0.5,-0.5,-0.5,3,3,0.4,3,654,1,1,654,0,0,0.6,NaN,-0.171848717761022,-0.171848717761022,750,1,0,congruent,0,1834.54876453041,4429.45392965011
23,104,3,364,0.5,-0.5,-0.5,1,1,0.2,1,683,1,1,683,0,0,0.2,NaN,0.0358494533954326,0.0358494533954326,750,1,0,congruent,0,881.755018053352,4093.94022005721
23,104,3,365,0.5,-0.5,-0.5,2,2,0.2,2,409,1,1,409,1,0,0,NaN,-1.92654016373797,-1.92654016373797,750,1,0,congruent,1,5641.66758425748,2319.77482732345
23,104,3,366,0.5,0.5,0,3,NaN,0.2,4,719,0,1,NaN,0,0,0.4,NaN,0.293681665865515,NaN,750,0,1,neutral,0,5823.4395043338,1844.50850842999
23,104,3,368,0.5,0.5,0.5,4,1,0.2,4,592,1,1,592,1,0,0.6,NaN,-0.615893083681719,-0.615893083681719,750,0,0,incongruent,1,1941.94166457534,3042.39638456388
23,104,3,369,0.5,0.5,-0.5,3,3,0.2,3,482,1,1,482,1,0,1,NaN,-1.40371373289586,-1.40371373289586,750,1,0,congruent,1,1192.2070410999,2453.80825906379
23,104,3,370,0.5,-0.5,-0.5,1,1,0.4,1,675,1,1,675,1,0,1.4,NaN,-0.0214465938201411,-0.0214465938201411,750,1,0,congruent,1,565.882006602601,5578.03117652119
23,104,3,371,0.5,0.5,-0.5,4,4,0.4,4,719,1,1,719,1,0,1.4,NaN,0.293681665865515,0.293681665865515,750,1,0,congruent,1,2780.35480290873,2970.85993101861
23,104,3,372,0.5,-0.5,0,3,NaN,0.6,3,594,1,1,594,0,0,1.8,NaN,-0.601569071877825,-0.601569071877825,750,0,0,neutral,0,2357.83890914577,1453.05263548851
23,104,3,373,-0.5,0.5,-0.5,1,1,0.6,1,628,1,1,628,1,0,1.6,0.2,-0.358060871211637,-0.358060871211637,750,1,0,congruent,0.1,1660.1463046681,2151.41028502316
23,104,3,374,0.5,0.5,0,2,NaN,0.8,2,451,1,1,451,1,0,1.4,NaN,-1.62573591585621,-1.62573591585621,750,0,0,neutral,1,1849.10471169406,1521.46220901539
23,104,3,375,-0.5,-0.5,0.5,1,3,1,1,667,1,1,667,1,0,1.4,0.8,-0.0787426410357149,-0.0787426410357149,750,0,0,incongruent,0.1,658.690673870537,1825.96996365493
23,104,3,377,-0.5,-0.5,0.5,3,1,1,3,608,1,1,608,1,0,1,1,-0.501300989250571,-0.501300989250571,750,0,0,incongruent,0.1,2303.04132197451,2253.57666113622
23,104,3,378,-0.5,0.5,0,2,NaN,1,2,616,1,1,616,1,0,1.2,0.4,-0.444004942034998,-0.444004942034998,750,0,0,neutral,0.1,6155.84052223839,3336.06508644246
23,104,3,379,0.5,0.5,-0.5,3,3,1,4,558,0,1,NaN,0,0,1.2,NaN,-0.859401284347907,NaN,750,0,1,congruent,0,3761.65703861587,5607.17803479359
23,104,3,380,-0.5,-0.5,0,1,NaN,0.8,1,633,1,1,633,1,0,0.8,1,-0.322250841701903,-0.322250841701903,750,0,0,neutral,0.1,3438.84684974018,2120.08000566543
23,104,3,382,-0.5,0.5,0.5,4,2,0.8,4,600,1,1,600,1,0,0.8,0.4,-0.558597036466145,-0.558597036466145,750,0,0,incongruent,0.1,4756.20826452559,4069.73300904834
23,104,3,384,-0.5,0.5,0.5,2,3,0.8,2,670,1,1,670,1,0,0.8,0.6,-0.0572566233298747,-0.0572566233298747,750,0,0,incongruent,0.1,7328.0594372355,2148.00948671091
23,104,3,385,-0.5,0.5,0,1,NaN,0.8,1,628,1,1,628,1,0,1,0.8,-0.358060871211637,-0.358060871211637,750,0,0,neutral,0.1,5938.29142337819,2973.33410564468
23,104,3,386,0.5,-0.5,0.5,3,4,0.8,3,946,1,0,946,1,0,1,NaN,1.91945700560742,1.91945700560742,750,0,0,incongruent,1,3422.31350813183,1304.31144183658
23,104,3,387,0.5,0.5,0,4,NaN,0.8,4,717,1,1,717,1,0,1.2,NaN,0.279357654061621,0.279357654061621,750,0,0,neutral,1,3695.32983136011,989.265629045109
23,104,3,388,0.5,0.5,0.5,1,2,0.8,1,943,1,0,943,0,0,1.4,NaN,1.89797098790158,1.89797098790158,750,0,0,incongruent,0,2644.41398144174,1660.25670372132
23,104,3,389,0.5,-0.5,-0.5,3,3,0.8,3,888,1,0,888,1,0,1.2,NaN,1.50406066329451,1.50406066329451,750,1,0,congruent,1,2177.93957657127,4137.38183407471
23,104,3,390,0.5,-0.5,-0.5,1,1,0.8,1,583,1,1,583,1,0,1.4,NaN,-0.680351136799239,-0.680351136799239,750,1,0,congruent,1,3968.96573174567,2397.3472222718
23,104,3,391,-0.5,-0.5,-0.5,4,4,0.8,4,579,1,1,579,1,0,1.6,1,-0.708999160407026,-0.708999160407026,750,1,0,congruent,0.1,2737.46363531811,672.439010074677
23,104,3,392,-0.5,-0.5,0,3,NaN,0.8,3,349,1,1,349,1,0,1.4,1,-2.35626051785477,-2.35626051785477,750,0,0,neutral,0.1,1049.48561414163,1609.63044952471
23,104,3,393,0.5,-0.5,0.5,1,3,0.8,1,636,1,1,636,1,0,1.2,NaN,-0.300764823996063,-0.300764823996063,750,0,0,incongruent,1,3562.65618101831,3393.46918849116
23,104,3,394,-0.5,0.5,0,3,NaN,0.8,3,432,1,1,432,1,0,1.6,1,-1.76181402799319,-1.76181402799319,750,0,0,neutral,0.1,1100.00569837944,1285.21763151515
23,104,3,396,-0.5,0.5,0.5,1,2,0.8,1,587,1,1,587,1,0,1,1,-0.651703113191453,-0.651703113191453,750,0,0,incongruent,0.1,2521.83144227807,3892.2957412355
23,104,3,397,0.5,-0.5,0.5,2,4,0.8,2,810,1,0,810,1,0,1,NaN,0.945424202942666,0.945424202942666,750,0,0,incongruent,1,837.621446304069,7999.79294906058
23,104,3,398,-0.5,-0.5,0.5,3,2,0.8,3,539,1,1,539,1,0,1.2,1,-0.995479396484895,-0.995479396484895,750,0,0,incongruent,0.1,819.738075746358,7084.16645733766
23,104,3,399,-0.5,0.5,-0.5,1,1,0.8,1,763,1,0,763,0,0,1,1,0.60880992555117,0.60880992555117,750,1,0,congruent,0,2577.15974391737,4164.99700217046
23,104,3,400,0.5,-0.5,0.5,3,4,0.6,2,886,0,0,NaN,0,0,0.8,NaN,1.48973665149062,NaN,750,0,1,incongruent,0,1530.84715355214,2891.00640517443
23,104,3,401,0.5,0.5,0.5,2,1,0.6,3,650,0,1,NaN,0,0,0.8,NaN,-0.200496741368809,NaN,750,0,1,incongruent,0,2599.90617011485,4445.83537483895
23,104,3,402,-0.5,-0.5,0,4,NaN,0.4,3,644,0,1,NaN,0,0,0.6,1,-0.243468776780489,NaN,750,0,1,neutral,0,3295.5193928378,1998.9483008794
23,104,3,403,-0.5,-0.5,-0.5,2,2,0.4,2,620,1,1,620,0,0,0.2,0.8,-0.415356918427211,-0.415356918427211,750,1,0,congruent,0,6263.68022929288,4298.29131128974
23,104,3,404,0.5,0.5,0.5,3,4,0.4,3,791,1,0,791,0,0,0,NaN,0.809346090805678,0.809346090805678,750,0,0,incongruent,0,2597.82197142885,2898.33720267855
23,104,3,405,-0.5,-0.5,0.5,2,3,0.4,2,691,1,1,691,0,0,0,0.6,0.0931455006110064,0.0931455006110064,750,0,0,incongruent,0,4660.30439831087,1747.43220413139
23,104,3,406,0.5,-0.5,0,4,NaN,0.4,4,732,1,1,732,1,0,0,NaN,0.386787742590822,0.386787742590822,750,0,0,neutral,1,7273.46763053747,4240.19599533064
23,104,3,407,0.5,0.5,0.5,3,1,0.4,3,777,1,0,777,0,0,0.4,NaN,0.709078008178424,0.709078008178424,750,0,0,incongruent,0,881.891017690168,6499.88106019462
23,104,3,408,-0.5,-0.5,0.5,1,3,0.2,2,828,0,0,NaN,0,0,0.4,0.4,1.07434030917771,NaN,750,0,1,incongruent,0,3888.02435532485,2710.41905538547
23,104,3,409,0.5,-0.5,0,2,NaN,0.2,2,705,1,1,705,0,0,0.4,NaN,0.19341358323826,0.19341358323826,750,0,0,neutral,0,2628.22469759526,5583.53893837078
23,104,3,411,-0.5,-0.5,-0.5,3,3,0.2,3,951,1,0,951,0,0,0.4,0.2,1.95526703511715,1.95526703511715,750,1,0,congruent,0,988.490326664356,3095.92771034001
23,104,3,412,0.5,-0.5,0.5,2,1,0.2,2,745,1,1,745,0,0,0,NaN,0.479893819316129,0.479893819316129,750,0,0,incongruent,0,7649.69047571211,4764.05885627135
23,104,3,413,0.5,0.5,0.5,1,3,0.2,1,718,1,1,718,1,0,0,NaN,0.286519659963568,0.286519659963568,750,0,0,incongruent,1,2578.7098320195,1960.5249573667
23,104,3,414,-0.5,-0.5,0,2,NaN,0.2,2,552,1,1,552,0,0,0.4,0,-0.902373319759588,-0.902373319759588,750,0,0,neutral,0,2464.31891776682,1904.52119851762
23,104,3,416,-0.5,0.5,-0.5,2,2,0.4,2,650,1,1,650,1,0,0.6,0.8,-0.200496741368809,-0.200496741368809,750,1,0,congruent,0.1,6874.39656742638,2808.59678313588
23,104,3,417,-0.5,-0.5,0.5,4,1,0.6,4,841,1,0,841,0,0,0.8,0,1.16744638590301,1.16744638590301,750,0,0,incongruent,0,4683.53864629843,3111.09362016751
23,104,3,418,-0.5,-0.5,-0.5,3,3,0.6,3,743,1,1,743,1,0,0.8,0,0.465569807512236,0.465569807512236,750,1,0,congruent,0.1,4047.68420544407,3651.70544766949
23,104,3,419,-0.5,0.5,-0.5,1,1,0.6,1,703,1,1,703,1,0,0.6,0.8,0.179089571434367,0.179089571434367,750,1,0,congruent,0.1,1763.25289101704,2195.804868436
23,104,3,420,-0.5,0.5,-0.5,2,2,0.8,2,779,1,0,779,0,0,0.8,0.8,0.723402019982318,0.723402019982318,750,1,0,congruent,0,2436.56969484389,1405.20314968716
23,104,3,421,0.5,0.5,-0.5,3,3,0.8,3,680,1,1,680,1,0,0.6,NaN,0.0143634356895925,0.0143634356895925,750,1,0,congruent,1,3740.36210753487,12417.5107486596
23,104,3,422,-0.5,0.5,-0.5,4,4,0.8,4,499,1,1,499,1,0,0.8,0.6,-1.28195963256276,-1.28195963256276,750,1,0,congruent,0.1,2021.80512550953,414.662555459279
23,104,3,423,0.5,0.5,-0.5,2,2,0.8,3,561,0,1,NaN,0,0,1,NaN,-0.837915266642067,NaN,750,0,1,congruent,0,2396.94359005576,1576.06153444454
23,104,3,424,-0.5,-0.5,0.5,1,3,0.6,1,561,1,1,561,1,0,0.8,0.2,-0.837915266642067,-0.837915266642067,750,0,0,incongruent,0.1,2013.53920409867,715.051039451244
23,104,3,425,-0.5,0.5,0.5,3,4,0.6,3,767,1,0,767,0,0,0.8,0.8,0.637457949158957,0.637457949158957,750,0,0,incongruent,0,2375.52373760592,4836.98963207739
23,104,3,426,0.5,-0.5,-0.5,1,1,0.4,1,689,1,1,689,1,0,0.8,NaN,0.078821488807113,0.078821488807113,750,1,0,congruent,1,2510.41329193473,3651.88901900511
23,104,3,427,0.5,-0.5,0.5,2,4,0.4,2,823,1,0,823,0,0,0.8,NaN,1.03853027966797,1.03853027966797,750,0,0,incongruent,0,3540.85778510942,3217.06712767304
23,104,3,428,0.5,0.5,-0.5,1,1,0.4,1,684,1,1,684,1,0,0.6,NaN,0.0430114592973794,0.0430114592973794,750,1,0,congruent,1,5023.77028327127,1704.18161243184
23,104,3,429,-0.5,0.5,-0.5,4,4,0.6,4,555,1,1,555,1,0,1,0.6,-0.880887302053748,-0.880887302053748,750,1,0,congruent,0.1,984.780940442618,1770.15893542315
23,104,3,430,-0.5,-0.5,-0.5,2,2,0.6,2,741,1,1,741,1,0,1,0.4,0.451245795708342,0.451245795708342,750,1,0,congruent,0.1,5722.25468431352,3498.98445579432
23,104,3,431,0.5,0.5,0.5,4,3,0.6,2,871,0,0,NaN,0,0,1.2,NaN,1.38230656296142,NaN,750,0,1,incongruent,0,2830.85561952784,5839.59497805791
23,104,3,432,-0.5,-0.5,0,3,NaN,0.4,3,765,1,0,765,0,0,0.8,0.6,0.623133937355064,0.623133937355064,750,0,0,neutral,0,7440.35254152179,3413.46597505578
23,104,3,433,-0.5,-0.5,0.5,2,4,0.4,2,702,1,1,702,0,0,0.8,0.6,0.17192756553242,0.17192756553242,750,0,0,incongruent,0,1683.62818575231,1548.06689339553
23,104,3,434,-0.5,0.5,0.5,1,3,0.4,1,847,1,0,847,0,0,0.4,0.6,1.21041842131469,1.21041842131469,750,0,0,incongruent,0,2659.72286516165,3527.00554404368
23,104,3,435,-0.5,-0.5,-0.5,4,4,0.4,1,798,0,0,NaN,0,0,0.2,0.6,0.859480132119306,NaN,750,0,1,congruent,0,5530.25449191852,6204.8916302455
23,104,3,436,0.5,0.5,0,3,NaN,0.4,3,628,1,1,628,1,0,0,NaN,-0.358060871211637,-0.358060871211637,750,0,0,neutral,1,4384.18461764538,2328.82531347469
23,104,3,437,0.5,0.5,-0.5,2,2,0.6,2,629,1,1,629,1,0,0.4,NaN,-0.35089886530969,-0.35089886530969,750,1,0,congruent,1,5217.04130664694,4572.76552415413
23,104,3,438,-0.5,-0.5,-0.5,3,3,0.6,3,988,1,0,988,1,0,0.8,0.4,2.22026125348918,2.22026125348918,750,1,0,congruent,0.1,852.344392553311,2686.08260353049
23,104,3,439,0.5,-0.5,0.5,4,1,0.6,4,663,1,1,663,1,0,1,NaN,-0.107390664643502,-0.107390664643502,750,0,0,incongruent,1,5071.16764189954,1536.8913265837
23,104,3,440,0.5,-0.5,-0.5,2,2,0.6,2,550,1,1,550,1,0,1.4,NaN,-0.916697331563481,-0.916697331563481,750,1,0,congruent,1,2753.73398683294,2039.17385863337
23,104,3,441,0.5,-0.5,0,4,NaN,0.6,4,876,1,0,876,0,0,1.8,NaN,1.41811659247115,1.41811659247115,750,0,0,neutral,0,1461.68736548585,2355.74342936098
23,104,3,442,0.5,-0.5,-0.5,2,2,0.6,2,630,1,1,630,1,0,1.4,NaN,-0.343736859407744,-0.343736859407744,750,1,0,congruent,1,4690.59122610389,1506.08870741274
23,104,3,443,-0.5,-0.5,0,1,NaN,0.6,1,697,1,1,697,1,0,1.4,0.4,0.136117536022687,0.136117536022687,750,0,0,neutral,0.1,1420.12889306788,1907.30251516472
23,104,3,444,-0.5,0.5,0.5,2,1,0.6,3,992,0,0,NaN,0,0,1.4,0.4,2.24890927709697,NaN,750,0,1,incongruent,0,860.808420991644,4774.01637768558
23,104,3,445,-0.5,0.5,-0.5,3,3,0.4,2,526,0,1,NaN,0,0,1,0.4,-1.0885854732102,NaN,750,0,1,congruent,0,2044.95225412791,7798.64249503534
23,104,3,446,0.5,-0.5,-0.5,1,1,0.4,1,620,1,1,620,0,0,0.6,NaN,-0.415356918427211,-0.415356918427211,750,1,0,congruent,0,8521.00295852915,5054.62151851559
23,104,3,447,-0.5,0.5,0,2,NaN,0.4,2,591,1,1,591,1,0,0.6,0.2,-0.623055089583666,-0.623055089583666,750,0,0,neutral,0.1,7638.63129562505,3520.468009341
23,104,3,448,0.5,-0.5,0.5,4,2,0.6,4,650,1,1,650,1,0,0.4,NaN,-0.200496741368809,-0.200496741368809,750,0,0,incongruent,1,4260.4648423258,786.402799004465
23,104,3,449,-0.5,-0.5,0.5,3,1,0.6,4,765,0,0,NaN,0,0,0.6,0.4,0.623133937355064,NaN,750,0,1,incongruent,0,5099.41879387764,1676.49543274037
23,104,3,450,0.5,-0.5,0,2,NaN,0.6,2,657,1,1,657,1,0,0.6,NaN,-0.150362700055182,-0.150362700055182,750,0,0,neutral,1,1884.77903772048,2528.75252162041
23,104,4,453,-0.5,0.5,-0.5,3,3,0.4,3,649,1,1,649,1,0,1,0.2,-0.207658747270756,-0.207658747270756,750,1,0,congruent,0.1,3230.48312055754,2801.18910739587
23,104,4,454,0.5,-0.5,-0.5,2,2,0.4,2,750,1,1,750,1,0,0.8,NaN,0.515703848825863,0.515703848825863,750,1,0,congruent,1,9486.68787891227,3870.17984924504
23,104,4,455,-0.5,-0.5,-0.5,1,1,0.4,1,757,1,0,757,0,0,1.2,0.6,0.56583789013949,0.56583789013949,750,1,0,congruent,0,8088.0686169383,4536.33456114743
23,104,4,456,-0.5,0.5,0.5,4,3,0.4,4,721,1,1,721,1,0,0.8,0.4,0.308005677669408,0.308005677669408,750,0,0,incongruent,0.1,2388.03407626867,6124.18607058306
23,104,4,457,0.5,0.5,0,2,NaN,0.6,2,890,1,0,890,0,0,1,NaN,1.5183846750984,1.5183846750984,750,0,0,neutral,0,13733.893944659,6202.19463880772
23,104,4,458,0.5,0.5,-0.5,4,4,0.6,3,897,0,0,NaN,0,0,0.8,NaN,1.56851871641203,NaN,750,0,1,congruent,0,2567.36809920384,674.907206088231
23,104,4,459,0.5,0.5,0.5,2,1,0.4,2,702,1,1,702,1,0,0.6,NaN,0.17192756553242,0.17192756553242,750,0,0,incongruent,1,2350.68677280669,1315.37057790077
23,104,4,460,0.5,0.5,0.5,1,4,0.6,1,637,1,1,637,1,0,0.6,NaN,-0.293602818094117,-0.293602818094117,750,0,0,incongruent,1,1790.45199418356,8992.72914696336
23,104,4,462,0.5,-0.5,-0.5,2,2,0.6,2,733,1,1,733,1,0,1.2,NaN,0.393949748492769,0.393949748492769,750,1,0,congruent,1,2758.32095277568,6529.26089353664
23,104,4,463,-0.5,0.5,0,4,NaN,0.6,4,850,1,0,850,0,0,1.6,0.6,1.23190443902053,1.23190443902053,750,0,0,neutral,0,12686.9696169437,4297.49755102063
23,104,4,464,-0.5,-0.5,-0.5,2,2,0.4,2,679,1,1,679,0,0,1.6,0.6,0.00720142978764575,0.00720142978764575,750,1,0,congruent,0,1965.11779921885,1004.03000995316
23,104,4,466,0.5,-0.5,0.5,1,3,0.4,1,391,1,1,391,0,0,1.2,NaN,-2.05545626997301,-2.05545626997301,750,0,0,incongruent,0,6030.58118257505,366.598948103389
23,104,4,467,0.5,-0.5,0,2,NaN,0.4,2,717,1,1,717,1,0,0.8,NaN,0.279357654061621,0.279357654061621,750,0,0,neutral,1,4007.49665898196,2271.92430053574
23,104,4,469,-0.5,0.5,-0.5,1,1,0.4,1,803,1,0,803,0,0,0.8,0.4,0.895290161629039,0.895290161629039,750,1,0,congruent,0,1211.48352619677,4304.9687059033
23,104,4,470,-0.5,0.5,0,4,NaN,0.4,4,758,1,0,758,0,0,0.8,0.4,0.572999896041437,0.572999896041437,750,0,0,neutral,0,1929.50995841424,2398.35893947711
23,104,4,471,-0.5,-0.5,-0.5,3,3,0.2,3,360,1,1,360,0,0,0.4,0.4,-2.27747845293336,-2.27747845293336,750,1,0,congruent,0,1343.41791794174,6673.50783786783
23,104,4,472,0.5,-0.5,0.5,4,2,0.2,4,951,1,0,951,1,0,0.4,NaN,1.95526703511715,1.95526703511715,750,0,0,incongruent,1,1307.29517214299,5854.69448360429
23,104,4,473,-0.5,0.5,-0.5,3,3,0.2,3,500,1,1,500,1,0,0.4,0.2,-1.27479762666082,-1.27479762666082,750,1,0,congruent,0.1,1662.54933269287,3560.08379539857
23,104,4,474,0.5,0.5,-0.5,2,2,0.2,2,510,1,1,510,1,0,0.6,NaN,-1.20317756764135,-1.20317756764135,750,1,0,congruent,1,1692.64173252883,806.107121658137
23,104,4,475,-0.5,-0.5,0.5,4,1,0.4,4,578,1,1,578,1,0,1,0.2,-0.716161166308973,-0.716161166308973,750,0,0,incongruent,0.1,2444.54706935034,5711.12473506713
23,104,4,476,0.5,-0.5,0.5,2,3,0.4,2,698,1,1,698,1,0,1.2,NaN,0.143279541924633,0.143279541924633,750,0,0,incongruent,1,6323.87738322375,4267.33476901004
23,104,4,477,-0.5,0.5,0,4,NaN,0.4,4,572,1,1,572,1,0,1.6,0.2,-0.759133201720653,-0.759133201720653,750,0,0,neutral,0.1,3217.95726445948,3056.12994947784
23,104,4,478,0.5,0.5,0.5,3,2,0.6,3,594,1,1,594,1,0,1.4,NaN,-0.601569071877825,-0.601569071877825,750,0,0,incongruent,1,3101.24145036552,2193.04316447867
23,104,4,479,-0.5,-0.5,-0.5,4,4,0.8,4,697,1,1,697,0,0,1.6,0.4,0.136117536022687,0.136117536022687,750,1,0,congruent,0,4270.20494295261,5953.02195881493
23,104,4,480,-0.5,-0.5,-0.5,3,3,0.8,3,602,1,1,602,1,0,1.2,0.2,-0.544273024662252,-0.544273024662252,750,1,0,congruent,0.1,3384.91110673318,980.674098598235
23,104,4,481,-0.5,0.5,-0.5,2,2,0.8,2,647,1,1,647,1,0,1.2,0.4,-0.221982759074649,-0.221982759074649,750,1,0,congruent,0.1,852.520265717504,3067.03929553941
23,104,4,482,-0.5,-0.5,-0.5,3,3,1,3,562,1,1,562,1,0,1,0.4,-0.830753260740121,-0.830753260740121,750,1,0,congruent,0.1,1150.08874662232,4855.44690371023
23,104,4,483,0.5,0.5,0.5,4,2,1,4,766,1,0,766,0,0,1,NaN,0.63029594325701,0.63029594325701,750,0,0,incongruent,0,600.560335661243,1771.56561560947
23,104,4,484,-0.5,-0.5,-0.5,1,1,0.8,1,589,1,1,589,1,0,0.6,0.6,-0.637379101387559,-0.637379101387559,750,1,0,congruent,0.1,2815.63336214768,1028.92661064316
23,104,4,485,0.5,-0.5,-0.5,2,2,0.8,2,385,1,1,385,0,0,0.8,NaN,-2.09842830538469,-2.09842830538469,750,1,0,congruent,0,1813.92431472248,6157.81737533215
23,104,4,486,0.5,-0.5,0.5,1,4,0.8,1,720,1,1,720,1,0,0.6,NaN,0.300843671767461,0.300843671767461,750,0,0,incongruent,1,1883.94385196712,1151.91544939972
23,104,4,487,-0.5,-0.5,0,2,NaN,0.8,2,596,1,1,596,1,0,0.8,0.8,-0.587245060073932,-0.587245060073932,750,0,0,neutral,0.1,1955.49351914651,3769.56303814085
23,104,4,488,0.5,0.5,-0.5,1,1,0.8,1,661,1,1,661,1,0,0.8,NaN,-0.121714676447395,-0.121714676447395,750,1,0,congruent,1,3280.86272274811,1624.94878053012
23,104,4,489,0.5,-0.5,0,4,NaN,0.8,3,780,0,0,NaN,0,0,1.2,NaN,0.730564025884265,NaN,750,0,1,neutral,0,15094.1129657432,10526.4916340193
23,104,4,491,-0.5,0.5,-0.5,4,4,0.6,4,642,1,1,642,1,0,1,0.6,-0.257792788584383,-0.257792788584383,750,1,0,congruent,0.1,1875.31352037842,1541.66576379105
23,104,4,492,-0.5,0.5,0.5,1,3,0.6,1,618,1,1,618,1,0,0.8,0.8,-0.429680930231104,-0.429680930231104,750,0,0,incongruent,0.1,1726.51929855059,2472.16930729044
23,104,4,494,0.5,0.5,-0.5,3,3,0.6,3,786,1,0,786,0,0,0.4,NaN,0.773536061295945,0.773536061295945,750,1,0,congruent,0,1792.04349324243,1324.4460908028
23,104,4,495,0.5,-0.5,0.5,4,2,0.6,4,688,1,1,688,1,0,0.4,NaN,0.0716594829051662,0.0716594829051662,750,0,0,incongruent,1,3176.84607284528,1229.54324745848
23,104,4,496,-0.5,-0.5,-0.5,1,1,0.6,1,714,1,1,714,0,0,0.8,0.8,0.257871636355781,0.257871636355781,750,1,0,congruent,0,4907.34951301746,477.985055914158
23,104,4,497,-0.5,-0.5,0,3,NaN,0.6,2,496,0,1,NaN,1,0,0.6,0.6,-1.3034456502686,NaN,750,0,1,neutral,0.1,6421.14410311548,6571.68530040384
23,104,4,498,0.5,0.5,0.5,1,2,0.6,1,907,1,0,907,0,0,0.6,NaN,1.6401387754315,1.6401387754315,750,0,0,incongruent,0,5939.53347802895,4557.0530637784
23,104,4,499,-0.5,0.5,-0.5,3,3,0.4,3,682,1,1,682,1,0,0.6,0.8,0.0286874474934859,0.0286874474934859,750,1,0,congruent,0.1,6713.67088656159,9379.34717032504
23,104,4,500,-0.5,-0.5,0,2,NaN,0.6,1,959,0,0,NaN,0,0,0.8,0.6,2.01256308233273,NaN,750,0,1,neutral,0,2223.17988961589,794.776470486028
23,104,4,501,0.5,-0.5,-0.5,4,4,0.6,4,686,1,1,686,0,0,0.4,NaN,0.0573354711012728,0.0573354711012728,750,1,0,congruent,0,4748.41151312947,2665.47090999756
23,104,4,502,-0.5,0.5,-0.5,2,2,0.6,2,786,1,0,786,0,0,0.4,0.8,0.773536061295945,0.773536061295945,750,1,0,congruent,0,2275.12859417069,4793.37978936897
23,104,4,503,0.5,-0.5,0,3,NaN,0.4,3,860,1,0,860,0,0,0.2,NaN,1.30352449804,1.30352449804,750,0,0,neutral,0,2787.00135183708,644.524803008299
23,104,4,504,-0.5,-0.5,-0.5,2,2,0.4,2,623,1,1,623,1,0,0.2,0.4,-0.393870900721371,-0.393870900721371,750,1,0,congruent,0.1,7081.10065154819,2743.00594392048
23,104,4,505,-0.5,-0.5,0.5,1,4,0.4,1,808,1,0,808,1,0,0.2,0.4,0.931100191138773,0.931100191138773,750,0,0,incongruent,0.1,2543.45600290677,2364.3703477408
23,104,4,506,0.5,-0.5,0,3,NaN,0.4,3,931,1,0,931,0,0,0.4,NaN,1.81202691707822,1.81202691707822,750,0,0,neutral,0,4203.19677449534,2184.58065660033
23,104,4,507,0.5,-0.5,-0.5,1,1,0.4,1,612,1,1,612,1,0,0.4,NaN,-0.472652965642785,-0.472652965642785,750,1,0,congruent,1,2222.79503282728,2941.44937618931
23,104,4,508,-0.5,0.5,0,2,NaN,0.4,2,385,1,1,385,1,0,0.8,0.6,-2.09842830538469,-2.09842830538469,750,0,0,neutral,0.1,3097.12908725295,2307.91222981237
23,104,4,509,-0.5,0.5,-0.5,1,1,0.4,1,706,1,1,706,1,0,1,0.8,0.200575589140207,0.200575589140207,750,1,0,congruent,0.1,1797.04951304961,12846.131245512
23,104,4,510,0.5,0.5,0.5,4,2,0.6,3,774,0,0,NaN,0,0,1,NaN,0.687591990472584,NaN,750,0,1,incongruent,0,6075.39539157334,5162.79641211143
23,104,4,511,-0.5,0.5,0.5,3,4,0.6,4,538,0,1,NaN,0,0,0.8,0.8,-1.00264140238684,NaN,750,1,0,incongruent,0,6278.11803276922,1162.31858352312
23,104,4,512,-0.5,-0.5,0,4,NaN,0.4,4,952,1,0,952,0,0,0.8,0.6,1.9624290410191,1.9624290410191,750,0,0,neutral,0,3353.39443101659,3564.6168221884
23,104,4,513,0.5,0.5,0.5,1,4,0.4,1,669,1,1,669,1,0,0.4,NaN,-0.0644186292318215,-0.0644186292318215,750,0,0,incongruent,1,1755.57116704776,2991.20311529462
23,104,4,514,0.5,0.5,0,3,NaN,0.6,3,674,1,1,674,1,0,0.6,NaN,-0.0286085997220879,-0.0286085997220879,750,0,0,neutral,1,3585.31317847983,3950.19598458608
23,104,4,515,0.5,-0.5,-0.5,2,2,0.6,2,570,1,1,570,1,0,0.8,NaN,-0.773457213524547,-0.773457213524547,750,1,0,congruent,1,3613.42510337601,2473.81822950836
23,104,4,516,-0.5,0.5,0.5,1,4,0.6,1,937,1,0,937,0,0,1.2,0.6,1.8549989524899,1.8549989524899,750,0,0,incongruent,0,4002.96814027599,4367.26879684575
23,104,4,517,0.5,0.5,-0.5,3,3,0.4,3,572,1,1,572,1,0,1.2,NaN,-0.759133201720653,-0.759133201720653,750,1,0,congruent,1,4180.60718332436,2293.72226033925
23,104,4,518,-0.5,0.5,-0.5,1,1,0.6,1,699,1,1,699,1,0,1.6,0.4,0.15044154782658,0.15044154782658,750,1,0,congruent,0.1,3022.03597732581,603.374503199531
23,104,4,519,-0.5,-0.5,-0.5,3,3,0.8,4,703,0,1,NaN,1,0,1.4,0.6,0.179089571434367,NaN,750,0,1,congruent,0.1,20510.2022877601,2056.07915358985
23,104,4,521,0.5,0.5,0,4,NaN,0.6,4,675,1,1,675,1,0,0.8,NaN,-0.0214465938201411,-0.0214465938201411,750,0,0,neutral,1,4450.38206462958,4631.21582515974
23,104,4,522,0.5,0.5,-0.5,2,2,0.6,2,660,1,1,660,1,0,1.2,NaN,-0.128876682349342,-0.128876682349342,750,1,0,congruent,1,4038.00515143992,3961.89767541652
23,104,4,523,0.5,0.5,-0.5,4,4,0.8,4,900,1,0,900,0,0,1.2,NaN,1.59000473411787,1.59000473411787,750,1,0,congruent,0,10788.0719882115,2076.50457457416
23,104,4,524,0.5,-0.5,0,1,NaN,0.6,1,446,1,1,446,1,0,1,NaN,-1.66154594536594,-1.66154594536594,750,0,0,neutral,1,4998.90037003946,2006.81812624333
23,104,4,525,0.5,0.5,0.5,2,3,0.6,2,628,1,1,628,1,0,1.2,NaN,-0.358060871211637,-0.358060871211637,750,0,0,incongruent,1,2318.36568193684,9244.57315981916
23,104,4,526,-0.5,0.5,0,4,NaN,0.6,4,868,1,0,868,0,0,1.6,0.6,1.36082054525558,1.36082054525558,750,0,0,neutral,0,1343.17129326402,1740.66840563264
23,104,4,527,-0.5,0.5,0.5,3,2,0.6,3,735,1,1,735,1,0,1.2,0.4,0.408273760296662,0.408273760296662,750,0,0,incongruent,0.1,2888.86962635924,2583.82689525957
23,104,4,529,0.5,0.5,0.5,2,3,0.4,2,398,1,1,398,1,0,1,NaN,-2.00532222865938,-2.00532222865938,750,0,0,incongruent,1,10165.9846057403,3985.76225661396
23,104,4,530,0.5,-0.5,0.5,3,1,0.6,3,803,1,0,803,0,0,1,NaN,0.895290161629039,0.895290161629039,750,0,0,incongruent,0,1141.82453110309,7935.22345805746
23,104,4,531,0.5,0.5,0.5,4,3,0.6,4,611,1,1,611,1,0,0.6,NaN,-0.479814971544731,-0.479814971544731,750,0,0,incongruent,1,1496.00893085205,2022.06376968549
23,104,4,532,-0.5,-0.5,0.5,1,2,0.6,1,733,1,1,733,0,0,1,0.6,0.393949748492769,0.393949748492769,750,0,0,incongruent,0,2652.28033822005,3647.66439228287
23,104,4,533,-0.5,0.5,-0.5,3,3,0.6,4,918,0,0,NaN,0,0,0.8,0.4,1.71892084035291,NaN,750,0,1,congruent,0,13495.9673330953,3727.90907918725
23,104,4,534,-0.5,-0.5,-0.5,4,4,0.6,4,455,1,1,455,1,0,0.8,0.6,-1.59708789224842,-1.59708789224842,750,1,0,congruent,0.1,1516.87529738704,5640.57526730121
23,104,4,535,0.5,-0.5,0,2,NaN,0.6,2,602,1,1,602,1,0,0.6,NaN,-0.544273024662252,-0.544273024662252,750,0,0,neutral,1,5354.37356424699,1932.37170498041
23,104,4,537,-0.5,0.5,0,2,NaN,0.4,2,622,1,1,622,1,0,0.6,0.4,-0.401032906623317,-0.401032906623317,750,0,0,neutral,0.1,2343.56916973019,1557.34621565138
23,104,4,538,-0.5,-0.5,-0.5,1,1,0.6,1,616,1,1,616,1,0,0.8,0.6,-0.444004942034998,-0.444004942034998,750,1,0,congruent,0.1,1306.25949429898,1088.47683245274
23,104,4,541,-0.5,-0.5,0,1,NaN,0.6,1,632,1,1,632,0,0,1,0.8,-0.32941284760385,-0.32941284760385,750,0,0,neutral,0,3203.54157902998,1687.35902477644
23,104,4,542,-0.5,0.5,-0.5,4,4,0.6,3,805,0,0,NaN,0,0,1,0.4,0.909614173432933,NaN,750,0,1,congruent,0,6912.86293027837,3241.50086143699
23,104,4,543,0.5,-0.5,0.5,3,2,0.4,3,651,1,1,651,0,0,0.8,NaN,-0.193334735466862,-0.193334735466862,750,0,0,incongruent,0,3510.79450400663,1071.41759192114
23,104,4,544,0.5,0.5,-0.5,4,4,0.4,4,812,1,0,812,0,0,0.6,NaN,0.95974821474656,0.95974821474656,750,1,0,congruent,0,2585.66030306696,3057.85099633133
23,104,4,545,0.5,0.5,-0.5,2,2,0.2,2,590,1,1,590,1,0,0.2,NaN,-0.630217095485612,-0.630217095485612,750,1,0,congruent,1,1656.60978760446,2446.33240600263
23,104,4,547,-0.5,-0.5,0.5,4,3,0.4,4,697,1,1,697,0,0,0.8,0.6,0.136117536022687,0.136117536022687,750,0,0,incongruent,0,2410.53153293816,5183.98608572034
23,104,4,548,0.5,-0.5,-0.5,2,2,0.4,2,564,1,1,564,1,0,0.8,NaN,-0.816429248936227,-0.816429248936227,750,1,0,congruent,1,1076.98562584607,3875.86800156617
23,104,4,549,0.5,0.5,0.5,3,4,0.4,3,720,1,1,720,1,0,1.2,NaN,0.300843671767461,0.300843671767461,750,0,0,incongruent,1,2853.3645539413,1145.12741632458
23,104,4,550,0.5,-0.5,-0.5,2,2,0.6,1,716,0,1,NaN,1,0,1.6,NaN,0.272195648159674,NaN,750,0,1,congruent,1,1508.7572306598,1441.73005601943
23,104,4,551,0.5,0.5,0.5,1,4,0.6,1,853,1,0,853,0,0,1.6,NaN,1.25339045672638,1.25339045672638,750,0,0,incongruent,0,1813.05419299157,2560.92163179884
23,104,4,552,0.5,0.5,-0.5,3,3,0.4,3,868,1,0,868,0,0,1.2,NaN,1.36082054525558,1.36082054525558,750,1,0,congruent,0,1184.23948317246,2931.88999949988
23,104,4,553,-0.5,-0.5,0,1,NaN,0.4,1,819,1,0,819,0,0,1.2,0.6,1.00988225606019,1.00988225606019,750,0,0,neutral,0,2402.46762945092,1188.75306951359
23,104,4,554,0.5,0.5,-0.5,3,3,0.4,3,802,1,0,802,0,0,0.8,NaN,0.888128155727092,0.888128155727092,750,1,0,congruent,0,2776.31654760321,2863.56567737814
23,104,4,555,0.5,-0.5,-0.5,1,1,0.4,1,786,1,0,786,0,0,0.4,NaN,0.773536061295945,0.773536061295945,750,1,0,congruent,0,4725.48998311402,6113.77343984423
23,104,4,557,0.5,0.5,-0.5,1,1,0.4,1,873,1,0,873,0,0,0,NaN,1.39663057476531,1.39663057476531,750,1,0,congruent,0,2028.02287902336,2658.61058378614
23,104,4,558,-0.5,-0.5,0,2,NaN,0.2,2,801,1,0,801,0,0,0,0.4,0.880966149825146,0.880966149825146,750,0,0,neutral,0,1330.18462546338,4852.56425243174
23,104,4,560,0.5,0.5,0.5,1,2,0,1,776,1,0,776,0,0,0,NaN,0.701916002276478,0.701916002276478,750,0,0,incongruent,0,2140.6962606461,8416.96930016144
23,104,4,561,0.5,0.5,0,4,NaN,0,4,829,1,0,829,0,0,0,NaN,1.08150231507965,1.08150231507965,750,0,0,neutral,0,1030.96617813761,973.688371259194
23,104,4,562,-0.5,-0.5,-0.5,3,3,0,3,464,1,1,464,0,0,0,0.2,-1.5326298391309,-1.5326298391309,750,1,0,congruent,0,1201.32447786629,1103.1911309805
23,104,4,563,0.5,-0.5,-0.5,2,2,0,2,627,1,1,627,0,0,0,NaN,-0.365222877113584,-0.365222877113584,750,1,0,congruent,0,2606.60479650882,1652.81820259204
23,104,4,564,-0.5,-0.5,0.5,4,1,0,4,851,1,0,851,0,0,0,0,1.23906644492248,1.23906644492248,750,0,0,incongruent,0,2469.83985952028,3075.73267870323
23,104,4,565,-0.5,0.5,0,1,NaN,0,1,750,1,1,750,0,0,0,0.4,0.515703848825863,0.515703848825863,750,0,0,neutral,0,802.296825356418,5827.03832574298
23,104,4,566,0.5,0.5,0.5,2,1,0,2,723,1,1,723,1,0,0,NaN,0.322329689473301,0.322329689473301,750,0,0,incongruent,1,5906.77369461003,2833.64768926364
23,104,4,567,-0.5,0.5,0.5,3,2,0.2,3,724,1,1,724,1,0,0.4,0.2,0.329491695375248,0.329491695375248,750,0,0,incongruent,0.1,3461.04432776761,1389.30246092408
23,104,4,569,0.5,-0.5,0.5,3,1,0.4,3,988,1,0,988,0,0,0.6,NaN,2.22026125348918,2.22026125348918,750,0,0,incongruent,0,2075.85793501478,2089.42502593649
23,104,4,570,-0.5,0.5,0,4,NaN,0.4,4,619,1,1,619,1,0,0.6,0.4,-0.422518924329157,-0.422518924329157,750,0,0,neutral,0.1,740.74433348961,4872.56938567359
23,104,4,571,0.5,0.5,0.5,3,1,0.6,3,610,1,1,610,1,0,0.8,NaN,-0.486976977446678,-0.486976977446678,750,0,0,incongruent,1,1326.53531370215,2023.25642038334
23,104,4,572,-0.5,-0.5,0.5,1,3,0.8,1,581,1,1,581,1,0,0.8,0,-0.694675148603133,-0.694675148603133,750,0,0,incongruent,0.1,3343.7631959056,5071.70472217679
23,104,4,573,0.5,-0.5,-0.5,4,4,0.8,4,772,1,0,772,1,0,0.8,NaN,0.673267978668691,0.673267978668691,750,1,0,congruent,1,7235.27784023204,2208.39151344184
23,104,4,574,0.5,0.5,-0.5,3,3,0.8,3,750,1,1,750,0,0,1.2,NaN,0.515703848825863,0.515703848825863,750,1,0,congruent,0,3722.91486594015,3291.45515447812
23,104,4,575,-0.5,0.5,0,4,NaN,0.6,4,652,1,1,652,1,0,1.2,0.4,-0.186172729564916,-0.186172729564916,750,0,0,neutral,0.1,2928.00338431054,1074.83857036031
23,104,4,576,-0.5,0.5,-0.5,2,2,0.6,2,644,1,1,644,1,0,1.2,0.6,-0.243468776780489,-0.243468776780489,750,1,0,congruent,0.1,4745.31471857977,1332.04739404533
23,104,4,578,0.5,0.5,-0.5,1,1,0.8,1,701,1,1,701,1,0,1.2,NaN,0.164765559630474,0.164765559630474,750,1,0,congruent,1,2584.62216693186,2069.46070535862
23,104,4,579,-0.5,0.5,-0.5,2,2,0.8,2,620,1,1,620,1,0,1.2,0.8,-0.415356918427211,-0.415356918427211,750,1,0,congruent,0.1,1910.77779732815,1575.09946078376
23,104,4,581,0.5,-0.5,0.5,2,3,0.8,2,874,1,0,874,0,0,1.2,NaN,1.40379258066726,1.40379258066726,750,0,0,incongruent,0,6523.2546363897,1948.34037391097
23,104,4,582,-0.5,-0.5,0,4,NaN,0.8,4,490,1,1,490,1,0,1,0.2,-1.34641768568028,-1.34641768568028,750,0,0,neutral,0.1,1779.72577202836,3402.31908119527
23,104,4,583,-0.5,-0.5,-0.5,2,2,0.8,2,795,1,0,795,1,0,0.8,0.4,0.837994114413465,0.837994114413465,750,1,0,congruent,0.1,4292.83414538197,3695.41851652986
23,104,4,584,-0.5,0.5,0.5,4,3,0.8,4,610,1,1,610,1,0,0.6,0.8,-0.486976977446678,-0.486976977446678,750,0,0,incongruent,0.1,3157.2938116355,1652.99160594102
23,104,4,585,0.5,-0.5,-0.5,1,1,0.8,1,679,1,1,679,1,0,0.6,NaN,0.00720142978764575,0.00720142978764575,750,1,0,congruent,1,643.069528297769,3156.42566310223
23,104,4,586,-0.5,-0.5,0,4,NaN,0.8,4,601,1,1,601,0,0,1,0.6,-0.551435030564199,-0.551435030564199,750,0,0,neutral,0,1946.31426211697,3870.70290233248
23,104,4,587,0.5,0.5,0.5,2,3,0.8,2,756,1,0,756,0,0,1,NaN,0.558675884237543,0.558675884237543,750,0,0,incongruent,0,6485.27797970276,1153.89128475528
23,104,4,588,0.5,-0.5,-0.5,4,4,0.6,4,701,1,1,701,1,0,0.8,NaN,0.164765559630474,0.164765559630474,750,1,0,congruent,1,5870.71286617728,4199.81241004028
23,104,4,589,-0.5,-0.5,0.5,1,3,0.6,1,657,1,1,657,1,0,1,0.6,-0.150362700055182,-0.150362700055182,750,0,0,incongruent,0.1,4523.68272019467,3681.55696677276
23,104,4,590,-0.5,0.5,0.5,4,1,0.6,4,731,1,1,731,1,0,1,1,0.379625736688875,0.379625736688875,750,0,0,incongruent,0.1,3293.95524706715,3756.16379761599
23,104,4,591,0.5,0.5,-0.5,2,2,0.6,2,630,1,1,630,1,0,0.8,NaN,-0.343736859407744,-0.343736859407744,750,1,0,congruent,1,2283.5694366971,2111.18875289126
23,104,4,592,0.5,-0.5,0.5,4,3,0.6,4,981,1,0,981,0,0,1.2,NaN,2.17012721217556,2.17012721217556,750,0,0,incongruent,0,2300.83420431257,1699.67785556125
23,104,4,593,-0.5,0.5,-0.5,1,1,0.6,1,701,1,1,701,1,0,1.2,1,0.164765559630474,0.164765559630474,750,1,0,congruent,0.1,2016.06495941533,5671.98050967706
23,104,4,594,-0.5,-0.5,-0.5,2,2,0.8,2,435,1,1,435,1,0,1,0.8,-1.74032801028735,-1.74032801028735,750,1,0,congruent,0.1,4251.08840503371,5457.2342028
23,104,4,595,-0.5,-0.5,-0.5,4,4,0.8,4,652,1,1,652,1,0,1,0.8,-0.186172729564916,-0.186172729564916,750,1,0,congruent,0.1,3098.98621715179,2740.38584015882
23,104,4,596,-0.5,-0.5,-0.5,3,3,0.8,3,554,1,1,554,1,0,1,0.8,-0.888049307955694,-0.888049307955694,750,1,0,congruent,0.1,985.002118766006,2689.61426647854
23,104,4,597,0.5,0.5,0,1,NaN,0.8,1,595,1,1,595,1,0,0.8,NaN,-0.594407065975879,-0.594407065975879,750,0,0,neutral,1,4465.97788936421,3767.58048066391
23,104,4,598,-0.5,-0.5,-0.5,3,3,0.8,3,654,1,1,654,1,0,1.2,0.8,-0.171848717761022,-0.171848717761022,750,1,0,congruent,0.1,2526.38799325021,2392.40244430168
23,104,4,600,0.5,-0.5,-0.5,2,2,0.8,2,388,1,1,388,1,0,1.4,NaN,-2.07694228767885,-2.07694228767885,750,1,0,congruent,1,1036.87825345523,3155.08170750226
