subid,vers,block,trial,rewlvl,efflvl,congruency,targetresp,distractorresp,rollingefflvl,resp,rt,acc,fast,accrt,isrewarded,ismiss,runavgrrgen,runavgrrcond,zrt,acczrt,rtthreshold,isdisterror,isranderror,congruence,feedback,fcz_resp_theta,fcz_resp_theta_baseline
25,104,1,1,-0.5,-0.5,0,4,NaN,0.7,4,665,1,1,665,1,0,0,0,-0.0886021810886394,-0.0886021810886394,750,0,0,neutral,0.1,518.87731433543,4174.00546746354
25,104,1,2,-0.5,-0.5,-0.5,2,2,0.7,2,450,1,1,450,1,0,0.2,0.2,-1.65070254814951,-1.65070254814951,750,1,0,congruent,0.1,10342.3200506667,975.683280532277
25,104,1,3,-0.5,-0.5,-0.5,1,1,0.7,1,507,1,1,507,1,0,0.4,0.4,-1.23656431130081,-1.23656431130081,750,1,0,congruent,0.1,995.915323757315,6619.95884187909
25,104,1,4,-0.5,-0.5,0,3,NaN,0.7,3,534,1,1,534,1,0,0.6,0.6,-1.04039356753038,-1.04039356753038,750,0,0,neutral,0.1,5980.17775402664,960.911123979745
25,104,1,5,0.5,-0.5,0.5,2,1,0.7,1,570,0,1,NaN,1,0,0.8,NaN,-0.778832575836464,NaN,750,1,0,incongruent,1,5011.97063389077,4494.02934948774
25,104,1,6,-0.5,-0.5,-0.5,4,4,0.7,4,553,1,1,553,0,0,1.2,0.8,-0.902347488580812,-0.902347488580812,750,1,0,congruent,0,2009.47325899312,1756.38561877834
25,104,1,7,-0.5,-0.5,0,3,NaN,0.7,3,978,1,0,978,1,0,1,0.8,2.18552533002788,2.18552533002788,750,0,0,neutral,0.1,8416.13827978226,3445.94038330288
25,104,1,8,-0.5,0.5,-0.5,1,1,0.7,1,645,1,1,645,1,0,1,0,-0.233913843140813,-0.233913843140813,750,1,0,congruent,0.1,1874.33200726012,934.009212051148
25,104,1,9,-0.5,-0.5,0.5,2,3,0.7,2,828,1,0,828,1,0,1,0.8,1.09568786463658,1.09568786463658,750,0,0,incongruent,0.1,6630.58564089622,1556.72532800895
25,104,1,10,-0.5,-0.5,-0.5,4,4,0.7,4,773,1,0,773,0,0,1,0.8,0.696080793993098,0.696080793993098,750,1,0,congruent,0,6729.42891589032,2076.41528311755
25,104,1,11,0.5,-0.5,0,1,NaN,0.7,1,635,1,1,635,1,0,0.6,NaN,-0.3065696741669,-0.3065696741669,750,0,0,neutral,1,2421.85049124181,3019.9547347475
25,104,1,12,0.5,0.5,-0.5,4,4,0.7,4,639,1,1,639,1,0,1,NaN,-0.277507341756465,-0.277507341756465,750,1,0,congruent,1,2098.65489307258,4893.7477112091
25,104,1,13,-0.5,0.5,0.5,2,3,0.7,2,737,1,1,737,1,0,1.2,0.2,0.434519802299186,0.434519802299186,750,0,0,incongruent,0.1,5041.02336865914,2584.63979419903
25,104,1,14,0.5,0.5,0,4,NaN,0.7,4,469,1,1,469,1,0,1.2,NaN,-1.51265646919994,-1.51265646919994,750,0,0,neutral,1,2006.04531359187,1388.12829445621
25,104,1,15,0.5,0.5,0.5,1,4,0.9,1,639,1,1,639,1,0,1.4,NaN,-0.277507341756465,-0.277507341756465,750,0,0,incongruent,1,1599.31796705265,2266.7816259273
25,104,1,16,-0.5,0.5,-0.5,2,2,1,2,624,1,1,624,1,0,1.8,0.4,-0.386491088295595,-0.386491088295595,750,1,0,congruent,0.1,1756.71991858156,4168.95709192689
25,104,1,17,-0.5,0.5,-0.5,3,3,1,3,612,1,1,612,1,0,1.6,0.6,-0.4736780855269,-0.4736780855269,750,1,0,congruent,0.1,2022.3091249407,1051.52271482114
25,104,1,18,-0.5,-0.5,0.5,4,1,1,2,973,0,0,NaN,1,0,1.4,0.6,2.14919741451483,NaN,750,0,1,incongruent,0.1,1882.33420049441,1655.09783601255
25,104,1,19,0.5,-0.5,0,2,NaN,1,2,612,1,1,612,1,0,1.4,NaN,-0.4736780855269,-0.4736780855269,750,0,0,neutral,1,859.466373323294,1419.32480234869
25,104,1,20,0.5,-0.5,-0.5,3,3,1,3,777,1,0,777,1,0,1.4,NaN,0.725143126403533,0.725143126403533,750,1,0,congruent,1,4078.76383898322,5177.93784660974
25,104,1,21,-0.5,0.5,0.5,1,4,1,1,694,1,1,694,1,0,1.4,0.8,0.122099728887012,0.122099728887012,750,0,0,incongruent,0.1,4375.42999725119,1257.12264089152
25,104,1,22,-0.5,0.5,0,2,NaN,1,2,731,1,1,731,1,0,1.4,1,0.390926303683534,0.390926303683534,750,0,0,neutral,0.1,14489.1234782793,4443.33725659622
25,104,1,23,0.5,-0.5,0.5,3,1,1,3,754,1,0,754,1,0,1.4,NaN,0.558034715043533,0.558034715043533,750,0,0,incongruent,1,8698.71654186244,3865.13026115707
25,104,1,24,0.5,-0.5,0.5,1,3,1,1,732,1,1,732,1,0,1.6,NaN,0.398191886786142,0.398191886786142,750,0,0,incongruent,1,6074.48578249887,3471.37175366557
25,104,1,25,0.5,-0.5,-0.5,2,2,1,2,551,1,1,551,1,0,1.6,NaN,-0.916878654786029,-0.916878654786029,750,1,0,congruent,1,1517.54032550377,2865.56650525463
25,104,1,26,0.5,0.5,0,4,NaN,1,4,566,1,1,566,1,0,1.6,NaN,-0.807894908246899,-0.807894908246899,750,0,0,neutral,1,4183.68872030422,2105.97754750231
25,104,1,28,0.5,-0.5,0,3,NaN,0.8,3,558,1,1,558,1,0,1.6,NaN,-0.866019573067768,-0.866019573067768,750,0,0,neutral,1,3860.23744420638,1178.202551879
25,104,1,29,0.5,-0.5,0.5,2,3,0.8,2,813,1,0,813,1,0,1.6,NaN,0.986704118097446,0.986704118097446,750,0,0,incongruent,1,1893.72606410193,2367.7375096317
25,104,1,31,0.5,0.5,-0.5,2,2,0.8,2,813,1,0,813,0,0,1.4,NaN,0.986704118097446,0.986704118097446,750,1,0,congruent,0,4508.17396884184,1660.90870171119
25,104,1,32,-0.5,0.5,0,1,NaN,0.6,1,926,1,0,926,0,0,1,0.8,1.80771500869223,1.80771500869223,750,0,0,neutral,0,1237.17210155031,6623.62365689505
25,104,1,33,-0.5,-0.5,0.5,4,2,0.4,4,697,1,1,697,1,0,1,0.8,0.143896478194838,0.143896478194838,750,0,0,incongruent,0.1,4032.65235120176,965.738881929661
25,104,1,34,0.5,-0.5,0,3,NaN,0.4,3,737,1,1,737,0,0,0.8,NaN,0.434519802299186,0.434519802299186,750,0,0,neutral,0,2937.74754312642,3728.64823972723
25,104,1,35,0.5,-0.5,0.5,4,1,0.4,4,750,1,1,750,0,0,0.4,NaN,0.528972382633099,0.528972382633099,750,0,0,incongruent,0,4050.38075737214,992.286777144139
25,104,1,36,0.5,0.5,-0.5,2,2,0.4,2,780,1,0,780,0,0,0.2,NaN,0.746939875711359,0.746939875711359,750,1,0,congruent,0,2884.7264710419,5417.49956839922
25,104,1,37,0.5,-0.5,0.5,4,3,0.2,4,711,1,1,711,1,0,0.2,NaN,0.24561464163136,0.24561464163136,750,0,0,incongruent,1,2411.82804744465,2192.47716697893
25,104,1,38,-0.5,0.5,0.5,3,4,0.2,3,730,1,1,730,1,0,0.6,0.6,0.383660720580925,0.383660720580925,750,0,0,incongruent,0.1,2586.22682100422,3014.83798326601
25,104,1,39,0.5,0.5,0.5,2,1,0.2,2,876,1,0,876,0,0,0.6,NaN,1.44443585356179,1.44443585356179,750,0,0,incongruent,0,5672.30428190948,8931.61173894644
25,104,1,40,-0.5,0.5,-0.5,4,4,0.2,4,705,1,1,705,1,0,0.6,0.6,0.202021143015708,0.202021143015708,750,1,0,congruent,0.1,1683.08961769329,2271.21937368699
25,104,1,41,0.5,-0.5,0.5,1,3,0.4,2,780,0,0,NaN,1,0,0.8,NaN,0.746939875711359,NaN,750,0,1,incongruent,1,6612.7003817034,1591.29647950286
25,104,1,42,0.5,-0.5,0.5,4,1,0.4,4,742,1,1,742,0,0,1.2,NaN,0.470847717812229,0.470847717812229,750,0,0,incongruent,0,1977.04719236106,3362.47553687994
25,104,1,43,0.5,0.5,-0.5,2,2,0.4,2,648,1,1,648,1,0,0.8,NaN,-0.212117093832987,-0.212117093832987,750,1,0,congruent,1,2764.48114908207,3417.24583443865
25,104,1,44,0.5,-0.5,0.5,3,1,0.6,3,904,1,0,904,0,0,1,NaN,1.64787218043484,1.64787218043484,750,0,0,incongruent,0,2562.07910080746,1360.47676778012
25,104,1,45,0.5,0.5,0,1,NaN,0.6,1,970,1,0,970,0,0,1,NaN,2.12740066520701,2.12740066520701,750,0,0,neutral,0,1976.72428195888,7450.71591043182
25,104,1,46,0.5,0.5,-0.5,4,4,0.6,4,572,1,1,572,1,0,0.8,NaN,-0.764301409631247,-0.764301409631247,750,1,0,congruent,1,3714.74023884861,1608.95099467235
25,104,1,47,-0.5,0.5,0.5,3,1,0.6,3,751,1,0,751,0,0,0.8,0.6,0.536237965735707,0.536237965735707,750,0,0,incongruent,0,637.332295987195,1516.66794069372
25,104,1,48,-0.5,0.5,-0.5,4,4,0.6,4,557,1,1,557,1,0,0.8,0.4,-0.873285156170377,-0.873285156170377,750,1,0,congruent,0.1,986.682750893211,806.599868688256
25,104,1,49,-0.5,0.5,0,3,NaN,0.6,3,588,1,1,588,1,0,0.6,0.6,-0.648052079989508,-0.648052079989508,750,0,0,neutral,0.1,1773.74825383294,4705.54538752376
25,104,1,50,-0.5,0.5,-0.5,4,4,0.6,4,578,1,1,578,1,0,0.8,0.8,-0.720707911015595,-0.720707911015595,750,1,0,congruent,0.1,3197.22139372868,2945.9205434018
25,104,1,51,-0.5,0.5,0.5,3,1,0.8,3,793,1,0,793,0,0,1,0.8,0.841392456045272,0.841392456045272,750,0,0,incongruent,0,998.204378394503,2046.88871246333
25,104,1,52,-0.5,-0.5,-0.5,2,2,0.6,2,813,1,0,813,1,0,0.6,0.8,0.986704118097446,0.986704118097446,750,1,0,congruent,0.1,1895.27023504438,1500.27809055963
25,104,1,53,0.5,0.5,0,3,NaN,0.6,3,542,1,1,542,1,0,0.8,NaN,-0.982268902709507,-0.982268902709507,750,0,0,neutral,1,1193.14303385051,2858.04900013118
25,104,1,54,-0.5,-0.5,-0.5,4,4,0.8,4,507,1,1,507,1,0,1,0.8,-1.23656431130081,-1.23656431130081,750,1,0,congruent,0.1,4400.68754819852,11636.466792158
25,104,1,55,-0.5,0.5,0,2,NaN,0.8,2,650,1,1,650,1,0,1,0.6,-0.19758592762777,-0.19758592762777,750,0,0,neutral,0.1,5315.84185985631,1127.80932826905
25,104,1,56,-0.5,-0.5,-0.5,3,3,0.8,3,651,1,1,651,1,0,1,1,-0.190320344525161,-0.190320344525161,750,1,0,congruent,0.1,3052.08147490629,1880.89236056628
25,104,1,57,-0.5,0.5,0,2,NaN,0.8,2,858,1,0,858,0,0,1.2,0.8,1.31365535771484,1.31365535771484,750,0,0,neutral,0,3019.90930612737,4481.63495968956
25,104,1,58,0.5,0.5,-0.5,4,4,0.6,4,589,1,1,589,1,0,1,NaN,-0.640786496886899,-0.640786496886899,750,1,0,congruent,1,583.591646582271,3258.0193297904
25,104,1,60,0.5,-0.5,0,2,NaN,0.6,2,701,1,1,701,1,0,1,NaN,0.172958810605273,0.172958810605273,750,0,0,neutral,1,6837.74276005642,949.104964553294
25,104,1,61,0.5,0.5,-0.5,3,3,0.6,3,512,1,1,512,1,0,1.2,NaN,-1.20023639578777,-1.20023639578777,750,1,0,congruent,1,10574.076761453,3766.72422523379
25,104,1,64,0.5,0.5,0.5,3,2,0.6,3,626,1,1,626,1,0,1,NaN,-0.371959922090378,-0.371959922090378,750,0,0,incongruent,1,923.787198867646,3943.21682254257
25,104,1,65,-0.5,0.5,0.5,1,4,0.6,2,977,0,0,NaN,0,0,1.2,0.4,2.17825974692527,NaN,750,0,1,incongruent,0,1618.8906257773,1363.6150005034
25,104,1,66,-0.5,-0.5,0,2,NaN,0.6,2,691,1,1,691,1,0,0.8,1,0.100302979579186,0.100302979579186,750,0,0,neutral,0.1,7896.10352754339,2921.89282559795
25,104,1,67,0.5,-0.5,-0.5,1,1,0.6,1,621,1,1,621,1,0,0.6,NaN,-0.408287837603421,-0.408287837603421,750,1,0,congruent,1,1697.57262572357,1385.32613694202
25,104,1,68,-0.5,-0.5,-0.5,3,3,0.6,3,498,1,1,498,1,0,1,1,-1.30195455922429,-1.30195455922429,750,1,0,congruent,0.1,1871.06506396857,560.476834970677
25,104,1,70,0.5,0.5,-0.5,4,4,0.4,4,541,1,1,541,1,0,0.8,NaN,-0.989534485812116,-0.989534485812116,750,1,0,congruent,1,2455.57947486067,3193.2779814496
25,104,1,71,-0.5,0.5,0,1,NaN,0.4,1,651,1,1,651,1,0,1.2,0.2,-0.190320344525161,-0.190320344525161,750,0,0,neutral,0.1,1278.80966530904,2330.14927753276
25,104,1,72,0.5,0.5,-0.5,4,4,0.6,4,595,1,1,595,1,0,1.2,NaN,-0.597192998271247,-0.597192998271247,750,1,0,congruent,1,3254.47085217595,2524.19458458654
25,104,1,73,-0.5,-0.5,0,2,NaN,0.6,2,658,1,1,658,1,0,1.2,1,-0.1394612628069,-0.1394612628069,750,0,0,neutral,0.1,4016.67289405412,1050.31796165579
25,104,1,74,-0.5,0.5,0.5,1,4,0.6,1,965,1,0,965,0,0,1.2,0.2,2.09107274969397,2.09107274969397,750,0,0,incongruent,0,1021.52000876456,4144.07997481023
25,104,1,75,-0.5,0.5,-0.5,3,3,0.6,3,681,1,1,681,1,0,1.2,0.2,0.0276471485530995,0.0276471485530995,750,1,0,congruent,0.1,1867.90983648548,1883.94160890551
25,104,1,76,0.5,-0.5,0.5,1,2,0.8,1,825,1,0,825,1,0,1,NaN,1.07389111532875,1.07389111532875,750,0,0,incongruent,1,1096.50685262749,5167.12648009802
25,104,1,77,-0.5,-0.5,0.5,2,3,0.8,2,661,1,1,661,1,0,1.2,1,-0.117664513499074,-0.117664513499074,750,0,0,incongruent,0.1,3920.42611662487,852.253443993367
25,104,1,78,-0.5,0.5,-0.5,1,1,0.8,1,385,1,1,385,1,0,1,0.4,-2.12296544981907,-2.12296544981907,750,1,0,congruent,0.1,2743.75625648755,2254.57340418542
25,104,1,80,0.5,-0.5,0.5,1,4,0.6,1,645,1,1,645,0,0,1,NaN,-0.233913843140813,-0.233913843140813,750,0,0,incongruent,0,2480.55707664725,2046.90404492834
25,104,1,81,0.5,0.5,-0.5,3,3,0.6,4,942,0,0,NaN,0,0,0.8,NaN,1.92396433833397,NaN,750,0,1,congruent,0,3186.27068403643,1693.26106761409
25,104,1,82,0.5,0.5,-0.5,1,1,0.4,1,610,1,1,610,1,0,0.4,NaN,-0.488209251732117,-0.488209251732117,750,1,0,congruent,1,1657.43860522673,2577.73854888588
25,104,1,83,-0.5,0.5,0,3,NaN,0.6,3,671,1,1,671,1,0,0.6,0.6,-0.0450086824729873,-0.0450086824729873,750,0,0,neutral,0.1,5494.85736120437,4631.23266127952
25,104,1,84,-0.5,0.5,-0.5,2,2,0.6,2,740,1,1,740,1,0,0.6,0.6,0.456316551607012,0.456316551607012,750,1,0,congruent,0.1,1983.09224955009,4978.31919825197
25,104,1,85,-0.5,0.5,0.5,3,1,0.6,3,666,1,1,666,1,0,0.8,0.8,-0.0813365979860307,-0.0813365979860307,750,0,0,incongruent,0.1,1637.8560998395,2464.17565801959
25,104,1,86,-0.5,0.5,0,1,NaN,0.8,1,606,1,1,606,1,0,1,0.8,-0.517271584142552,-0.517271584142552,750,0,0,neutral,0.1,1194.85382088507,1192.97623945713
25,104,1,87,-0.5,-0.5,-0.5,3,3,1,2,916,0,0,NaN,1,0,1.2,1,1.73505917766614,NaN,750,0,1,congruent,0.1,4162.98650457879,5629.66474966682
25,104,1,88,-0.5,0.5,0,2,NaN,1,2,760,1,0,760,0,0,1,0.8,0.601628213659185,0.601628213659185,750,0,0,neutral,0,2656.30197005907,2592.14099180745
25,104,1,89,0.5,-0.5,-0.5,1,1,0.8,1,552,1,1,552,0,0,0.8,NaN,-0.90961307168342,-0.90961307168342,750,1,0,congruent,0,1652.8284686424,3100.8137899554
25,104,1,90,0.5,-0.5,0,4,NaN,0.8,4,576,1,1,576,1,0,0.6,NaN,-0.735239077220812,-0.735239077220812,750,0,0,neutral,1,3036.04876207162,2157.91021203595
25,104,1,91,-0.5,-0.5,0.5,2,4,0.8,4,602,0,1,NaN,1,0,0.8,1,-0.546333916552986,NaN,750,1,0,incongruent,0.1,625.745695951667,1640.91498710167
25,104,1,92,-0.5,-0.5,0,1,NaN,0.8,1,517,1,1,517,1,0,0.8,1,-1.16390848027472,-1.16390848027472,750,0,0,neutral,0.1,2665.59357355684,1835.78829187876
25,104,1,93,-0.5,-0.5,0.5,3,4,0.8,3,874,1,0,874,0,0,0.8,1,1.42990468735658,1.42990468735658,750,0,0,incongruent,0,1304.82480043736,5685.1731754294
25,104,1,94,-0.5,-0.5,0,2,NaN,0.8,2,747,1,1,747,1,0,0.8,0.8,0.507175633325272,0.507175633325272,750,0,0,neutral,0.1,1338.78093228181,1601.27999686938
25,104,1,95,-0.5,0.5,-0.5,3,3,0.8,2,645,0,1,NaN,0,0,1,0.8,-0.233913843140813,NaN,750,0,1,congruent,0,772.706503614144,2397.62635452583
25,104,1,96,-0.5,-0.5,0.5,1,2,0.6,1,612,1,1,612,1,0,0.6,0.8,-0.4736780855269,-0.4736780855269,750,0,0,incongruent,0.1,3025.32120459339,1534.0231573916
25,104,1,97,0.5,0.5,0.5,2,1,0.6,3,979,0,0,NaN,0,0,0.6,NaN,2.19279091313049,NaN,750,0,1,incongruent,0,4274.20484767932,4042.9996045912
25,104,1,98,0.5,-0.5,-0.5,4,4,0.4,4,551,1,1,551,0,0,0.4,NaN,-0.916878654786029,-0.916878654786029,750,1,0,congruent,0,3603.02224059321,954.225399444601
25,104,1,99,-0.5,0.5,0.5,2,3,0.4,2,881,1,0,881,0,0,0.4,0.6,1.48076376907484,1.48076376907484,750,0,0,incongruent,0,828.397650084361,2655.82119439535
25,104,1,100,-0.5,-0.5,0,1,NaN,0.2,1,642,1,1,642,0,0,0.2,0.8,-0.255710592448639,-0.255710592448639,750,0,0,neutral,0,2677.079658598,2591.86954759871
25,104,1,102,-0.5,-0.5,-0.5,1,1,0.2,1,558,1,1,558,0,0,0,0.6,-0.866019573067768,-0.866019573067768,750,1,0,congruent,0,5112.64673717918,1360.85800529093
25,104,1,103,-0.5,0.5,0.5,4,3,0.2,4,564,1,1,564,1,0,0,0.4,-0.822426074452116,-0.822426074452116,750,0,0,incongruent,0.1,647.952901903117,5656.46614721932
25,104,1,104,-0.5,-0.5,0,3,NaN,0.2,3,522,1,1,522,1,0,0.2,0.4,-1.12758056476168,-1.12758056476168,750,0,0,neutral,0.1,2250.46364019438,1002.35559898938
25,104,1,105,-0.5,-0.5,0.5,1,3,0.2,1,640,1,1,640,0,0,0.4,0.6,-0.270241758653856,-0.270241758653856,750,0,0,incongruent,0,5994.23174117439,3769.00153029626
25,104,1,106,-0.5,-0.5,-0.5,2,2,0.2,2,652,1,1,652,0,0,0.4,0.4,-0.183054761422552,-0.183054761422552,750,1,0,congruent,0,1490.4110001043,2443.03232205024
25,104,1,107,-0.5,0.5,0.5,4,3,0.2,4,594,1,1,594,1,0,0.4,0.4,-0.604458581373856,-0.604458581373856,750,0,0,incongruent,0.1,3485.2936690922,2730.86584929899
25,104,1,108,0.5,-0.5,-0.5,1,1,0.4,1,634,1,1,634,1,0,0.6,NaN,-0.313835257269509,-0.313835257269509,750,1,0,congruent,1,1144.27905298414,1140.99729546264
25,104,1,109,-0.5,-0.5,0.5,3,2,0.4,3,875,1,0,875,0,0,0.8,0.2,1.43717027045918,1.43717027045918,750,0,0,incongruent,0,1379.87519648019,2316.33068399003
25,104,1,110,0.5,-0.5,-0.5,1,1,0.4,1,555,1,1,555,0,0,0.6,NaN,-0.887816322375594,-0.887816322375594,750,1,0,congruent,0,5334.23993957846,2594.21359837778
25,104,1,111,0.5,0.5,0.5,4,2,0.4,4,755,1,0,755,0,0,0.6,NaN,0.565300298146142,0.565300298146142,750,0,0,incongruent,0,1685.88111721312,1736.63169576655
25,104,1,112,0.5,0.5,0.5,1,3,0.4,1,774,1,0,774,0,0,0.6,NaN,0.703346377095707,0.703346377095707,750,0,0,incongruent,0,1082.14798389694,1868.35308200231
25,104,1,113,-0.5,0.5,-0.5,4,4,0.4,4,598,1,1,598,1,0,0.4,0.4,-0.575396248963421,-0.575396248963421,750,1,0,congruent,0.1,2256.22950884757,5253.305910185
25,104,1,114,0.5,0.5,-0.5,3,3,0.6,3,664,1,1,664,1,0,0.2,NaN,-0.0958677641912481,-0.0958677641912481,750,1,0,congruent,1,1968.09747243831,1226.46416174632
25,104,1,116,0.5,0.5,-0.5,4,4,0.6,4,609,1,1,609,1,0,1,NaN,-0.495474834834726,-0.495474834834726,750,1,0,congruent,1,1594.57423002101,1876.19608752379
25,104,1,117,0.5,-0.5,0.5,1,3,0.8,1,543,1,1,543,1,0,1.4,NaN,-0.975003319606899,-0.975003319606899,750,0,0,incongruent,1,8951.87084353114,2323.72342014877
25,104,1,118,0.5,0.5,0.5,4,1,0.8,3,645,0,1,NaN,0,0,1.8,NaN,-0.233913843140813,NaN,750,0,1,incongruent,0,3412.64003412505,2927.06475911294
25,104,1,119,-0.5,0.5,-0.5,2,2,0.8,2,684,1,1,684,1,0,1.6,0.6,0.0494438978609255,0.0494438978609255,750,1,0,congruent,0.1,7415.7687321006,2697.75384785333
25,104,1,120,-0.5,-0.5,-0.5,1,1,0.8,1,684,1,1,684,1,0,1.4,0.2,0.0494438978609255,0.0494438978609255,750,1,0,congruent,0.1,2893.48429507377,1416.12957966577
25,104,1,121,-0.5,-0.5,0,4,NaN,0.8,4,587,1,1,587,1,0,1.2,0.4,-0.655317663092117,-0.655317663092117,750,0,0,neutral,0.1,7732.17394846889,4126.05561040788
25,104,1,122,0.5,-0.5,-0.5,3,3,0.8,3,690,1,1,690,1,0,1,NaN,0.0930373964765776,0.0930373964765776,750,1,0,congruent,1,1010.45908181633,5591.70832205644
25,104,1,123,0.5,-0.5,-0.5,4,4,0.8,4,693,1,1,693,1,0,1,NaN,0.114834145784404,0.114834145784404,750,1,0,congruent,1,1106.71446193988,1373.52949501304
25,104,1,125,0.5,-0.5,0.5,3,4,0.6,3,839,1,0,839,1,0,1.2,NaN,1.17560927876527,1.17560927876527,750,0,0,incongruent,1,2623.43779542059,1938.93563451774
25,104,1,126,0.5,-0.5,0.5,1,2,0.6,1,745,1,1,745,1,0,1.4,NaN,0.492644467120055,0.492644467120055,750,0,0,incongruent,1,2019.59375112195,1606.88635390723
25,104,1,127,0.5,-0.5,0,4,NaN,0.6,4,574,1,1,574,1,0,1.6,NaN,-0.749770243426029,-0.749770243426029,750,0,0,neutral,1,3334.03805987164,3337.31723919918
25,104,1,128,-0.5,-0.5,-0.5,3,3,0.6,3,556,1,1,556,1,0,1.6,0.4,-0.880550739272986,-0.880550739272986,750,1,0,congruent,0.1,1676.71362780037,1171.23106553847
25,104,1,129,0.5,0.5,0.5,4,1,0.6,4,629,1,1,629,1,0,1.4,NaN,-0.350163172782552,-0.350163172782552,750,0,0,incongruent,1,2467.66291443061,1039.45217811028
25,104,1,130,-0.5,-0.5,-0.5,3,3,0.6,3,533,1,1,533,0,0,1.8,0.6,-1.04765915063299,-1.04765915063299,750,1,0,congruent,0,628.581310154224,1326.49504308413
25,104,1,131,0.5,0.5,-0.5,2,2,0.6,2,836,1,0,836,0,0,1.4,NaN,1.15381252945745,1.15381252945745,750,1,0,congruent,0,1601.89117830214,4052.93159692797
25,104,1,132,-0.5,0.5,-0.5,1,1,0.4,1,637,1,1,637,1,0,1,0.8,-0.292038507961683,-0.292038507961683,750,1,0,congruent,0.1,1053.28166472664,514.799595638798
25,104,1,133,0.5,-0.5,0,2,NaN,0.6,2,624,1,1,624,1,0,0.8,NaN,-0.386491088295595,-0.386491088295595,750,0,0,neutral,1,1864.24751914506,4034.5552967716
25,104,1,134,-0.5,-0.5,-0.5,3,3,0.6,3,517,1,1,517,1,0,1,0.6,-1.16390848027472,-1.16390848027472,750,1,0,congruent,0.1,3591.9999439623,1273.10365644312
25,104,1,136,0.5,0.5,0,3,NaN,0.6,3,591,1,1,591,1,0,1,NaN,-0.626255330681682,-0.626255330681682,750,0,0,neutral,1,1457.07401103513,1545.07335480612
25,104,1,137,-0.5,-0.5,-0.5,4,4,0.8,4,618,1,1,618,1,0,1.4,0.8,-0.430084586911247,-0.430084586911247,750,1,0,congruent,0.1,671.212640705633,1646.18975869374
25,104,1,138,-0.5,-0.5,-0.5,1,1,0.8,1,506,1,1,506,0,0,1.4,0.8,-1.24382989440342,-1.24382989440342,750,1,0,congruent,0,2183.11096921187,1195.21235286706
25,104,1,140,-0.5,0.5,0.5,4,2,0.6,4,845,1,0,845,0,0,0.8,1,1.21920277738092,1.21920277738092,750,0,0,incongruent,0,2458.42535142639,1950.53220495876
25,104,1,142,-0.5,0.5,-0.5,3,3,0.6,3,561,1,1,561,1,0,0.2,0.8,-0.844222823759942,-0.844222823759942,750,1,0,congruent,0.1,3544.94164132686,3855.85786667355
25,104,1,143,-0.5,0.5,0.5,1,4,0.6,1,903,1,0,903,0,0,0.2,0.8,1.64060659733223,1.64060659733223,750,0,0,incongruent,0,1127.78760412712,1179.05556999193
25,104,1,144,-0.5,-0.5,-0.5,3,3,0.4,3,513,1,1,513,1,0,0.2,0.4,-1.19297081268516,-1.19297081268516,750,1,0,congruent,0.1,1179.5102739646,592.246781562199
25,104,1,145,-0.5,0.5,-0.5,1,1,0.4,1,451,1,1,451,1,0,0.4,0.6,-1.6434369650469,-1.6434369650469,750,1,0,congruent,0.1,3634.44918324315,3460.8589973493
25,104,1,146,-0.5,0.5,0.5,4,2,0.4,4,620,1,1,620,1,0,0.6,0.6,-0.41555342070603,-0.41555342070603,750,0,0,incongruent,0.1,967.691460121582,1704.7830805966
25,104,1,147,0.5,0.5,0,3,NaN,0.6,3,590,1,1,590,1,0,0.8,NaN,-0.633520913784291,-0.633520913784291,750,0,0,neutral,1,4341.76008811687,1614.70549272552
25,104,1,148,0.5,0.5,-0.5,2,2,0.8,2,822,1,0,822,0,0,1,NaN,1.05209436602092,1.05209436602092,750,1,0,congruent,0,1117.59297530047,2411.29517599605
25,104,1,149,-0.5,0.5,-0.5,1,1,0.6,1,541,1,1,541,1,0,1,0.6,-0.989534485812116,-0.989534485812116,750,1,0,congruent,0.1,4194.65883560826,2790.33554601723
25,104,2,151,-0.5,0.5,-0.5,4,4,0.8,4,930,1,0,930,0,0,1,0.8,1.83677734110266,1.83677734110266,750,1,0,congruent,0,2921.37487685255,947.060765758169
25,104,2,152,0.5,-0.5,-0.5,1,1,0.6,3,875,0,0,NaN,0,0,0.8,NaN,1.43717027045918,NaN,750,0,1,congruent,0,7252.64078752899,2454.18681870967
25,104,2,153,-0.5,-0.5,0.5,2,3,0.6,2,771,1,0,771,0,0,0.4,0.6,0.681549627787881,0.681549627787881,750,0,0,incongruent,0,2752.86765119037,1668.63876760186
25,104,2,154,0.5,0.5,0.5,3,2,0.6,3,562,1,1,562,1,0,0.4,NaN,-0.836957240657334,-0.836957240657334,750,0,0,incongruent,1,770.736602101191,2013.33928631732
25,104,2,155,-0.5,0.5,0.5,4,1,0.6,4,581,1,1,581,1,0,0.6,0.8,-0.698911161707769,-0.698911161707769,750,0,0,incongruent,0.1,3352.24565397925,6822.35355478394
25,104,2,157,0.5,-0.5,-0.5,4,4,0.8,4,484,1,1,484,1,0,1,NaN,-1.40367272266081,-1.40367272266081,750,1,0,congruent,1,3735.79579348571,2304.82898676861
25,104,2,159,0.5,-0.5,0,3,NaN,0.8,3,818,1,0,818,1,0,1.8,NaN,1.02303203361049,1.02303203361049,750,0,0,neutral,1,2547.92741963576,3396.23136504978
25,104,2,160,0.5,0.5,0.5,1,2,0.8,2,837,0,0,NaN,0,0,1.8,NaN,1.16107811256005,NaN,750,1,0,incongruent,0,1082.73834518246,4969.34046894042
25,104,2,161,-0.5,0.5,-0.5,4,4,0.6,4,460,1,1,460,1,0,1.6,0.8,-1.57804671712342,-1.57804671712342,750,1,0,congruent,0.1,1458.91123648735,2574.83109868731
25,104,2,162,0.5,0.5,0.5,2,3,0.6,2,759,1,0,759,0,0,1.4,NaN,0.594362630556577,0.594362630556577,750,0,0,incongruent,0,5867.50711725524,6455.27208774312
25,104,2,163,-0.5,0.5,-0.5,4,4,0.6,3,813,0,0,NaN,0,0,1,0.8,0.986704118097446,NaN,750,0,1,congruent,0,2244.49614717301,1008.10344656563
25,104,2,164,0.5,-0.5,0,3,NaN,0.4,3,711,1,1,711,0,0,0.6,NaN,0.24561464163136,0.24561464163136,750,0,0,neutral,0,1077.71030270633,1722.79548564712
25,104,2,165,-0.5,0.5,-0.5,2,2,0.4,2,672,1,1,672,1,0,0.2,0.6,-0.0377430993703787,-0.0377430993703787,750,1,0,congruent,0.1,695.011450749613,2230.79550380432
25,104,2,166,0.5,-0.5,0.5,1,4,0.4,1,657,1,1,657,1,0,0.4,NaN,-0.146726845909509,-0.146726845909509,750,0,0,incongruent,1,1342.87029205037,4247.70093269784
25,104,2,167,-0.5,-0.5,0.5,4,2,0.4,4,444,1,1,444,0,0,0.6,0.4,-1.69429604676516,-1.69429604676516,750,0,0,incongruent,0,904.481926358677,1465.95294993604
25,104,2,168,-0.5,-0.5,-0.5,1,1,0.4,1,578,1,1,578,0,0,0.6,0.2,-0.720707911015595,-0.720707911015595,750,1,0,congruent,0,1062.66467376105,1874.72542099799
25,104,2,169,-0.5,0.5,0,4,NaN,0.4,4,422,1,1,422,1,0,0.6,0.6,-1.85413887502255,-1.85413887502255,750,0,0,neutral,0.1,1997.52769194271,648.834652618673
25,104,2,170,-0.5,0.5,0.5,2,3,0.6,3,513,0,1,NaN,0,0,0.8,0.8,-1.19297081268516,NaN,750,1,0,incongruent,0,1201.20961757349,7085.61686259799
25,104,2,172,0.5,-0.5,-0.5,3,3,0.4,3,498,1,1,498,0,0,0.2,NaN,-1.30195455922429,-1.30195455922429,750,1,0,congruent,0,2736.37598931885,757.48216514287
25,104,2,173,-0.5,0.5,0.5,2,4,0.4,2,503,1,1,503,1,0,0.2,0.6,-1.26562664371125,-1.26562664371125,750,0,0,incongruent,0.1,2796.0924437928,4146.45091064675
25,104,2,174,0.5,-0.5,-0.5,1,1,0.6,1,551,1,1,551,0,0,0.4,NaN,-0.916878654786029,-0.916878654786029,750,1,0,congruent,0,6927.85428956375,1001.49946493386
25,104,2,175,0.5,0.5,-0.5,3,3,0.6,3,511,1,1,511,1,0,0.2,NaN,-1.20750197889038,-1.20750197889038,750,1,0,congruent,1,2241.80279624637,1201.3557505621
25,104,2,176,-0.5,0.5,0,1,NaN,0.8,1,426,1,1,426,1,0,0.6,0.6,-1.82507654261211,-1.82507654261211,750,0,0,neutral,0.1,3634.06596412549,2402.30219986946
25,104,2,177,-0.5,0.5,0.5,2,3,0.8,2,530,1,1,530,1,0,0.8,0.8,-1.06945589994081,-1.06945589994081,750,0,0,incongruent,0.1,2021.60846306516,854.889161434198
25,104,2,178,-0.5,-0.5,0,3,NaN,0.8,3,615,1,1,615,1,0,1,0.2,-0.451881336219074,-0.451881336219074,750,0,0,neutral,0.1,1972.61908983519,2346.32395841535
25,104,2,179,0.5,-0.5,0.5,2,4,0.8,2,696,1,1,696,1,0,1,NaN,0.13663089509223,0.13663089509223,750,0,0,incongruent,1,7515.44005841104,2117.85457335904
25,104,2,180,0.5,-0.5,0,3,NaN,0.8,3,556,1,1,556,0,0,1.4,NaN,-0.880550739272986,-0.880550739272986,750,0,0,neutral,0,3687.11196221514,2657.78648105139
25,104,2,181,0.5,-0.5,0.5,4,2,0.8,4,739,1,1,739,1,0,1,NaN,0.449050968504403,0.449050968504403,750,0,0,incongruent,1,1545.51341810893,3099.21347280324
25,104,2,182,-0.5,-0.5,0,2,NaN,0.8,2,620,1,1,620,1,0,1.2,0.4,-0.41555342070603,-0.41555342070603,750,0,0,neutral,0.1,1726.19300452276,3398.42979352982
25,104,2,183,0.5,0.5,-0.5,4,4,0.8,4,541,1,1,541,1,0,1.2,NaN,-0.989534485812116,-0.989534485812116,750,1,0,congruent,1,3493.72006044153,2353.7562551026
25,104,2,184,0.5,0.5,-0.5,2,2,1,2,840,1,0,840,0,0,1.4,NaN,1.18287486186788,1.18287486186788,750,1,0,congruent,0,1896.41130166556,3569.16905021661
25,104,2,185,0.5,-0.5,0.5,3,1,0.8,3,630,1,1,630,0,0,1,NaN,-0.342897589679943,-0.342897589679943,750,0,0,incongruent,0,8082.28857282305,3605.08058815899
25,104,2,186,0.5,-0.5,-0.5,4,4,0.8,4,623,1,1,623,1,0,1,NaN,-0.393756671398204,-0.393756671398204,750,1,0,congruent,1,2290.62765911619,1104.77000634312
25,104,2,187,-0.5,0.5,0.5,2,1,0.8,2,893,1,0,893,0,0,1,0.8,1.56795076630614,1.56795076630614,750,0,0,incongruent,0,851.477010068547,4797.43676767073
25,104,2,188,-0.5,0.5,0,4,NaN,0.6,4,619,1,1,619,1,0,0.8,0.6,-0.422819003808639,-0.422819003808639,750,0,0,neutral,0.1,1814.20143319027,1757.03411149702
25,104,2,190,0.5,0.5,0,4,NaN,0.6,4,560,1,1,560,1,0,0.6,NaN,-0.851488406862551,-0.851488406862551,750,0,0,neutral,1,2417.9760300995,1142.89774201851
25,104,2,191,-0.5,-0.5,-0.5,2,2,0.6,2,511,1,1,511,1,0,1,0.4,-1.20750197889038,-1.20750197889038,750,1,0,congruent,0.1,2979.01668397804,1348.90416488039
25,104,2,192,-0.5,0.5,0.5,3,4,0.6,3,554,1,1,554,1,0,0.8,0.8,-0.895081905478203,-0.895081905478203,750,0,0,incongruent,0.1,3612.61424373751,2615.24667899872
25,104,2,193,0.5,-0.5,-0.5,1,1,0.6,1,656,1,1,656,1,0,1,NaN,-0.153992429012118,-0.153992429012118,750,1,0,congruent,1,2103.02796375173,958.430572758613
25,104,2,194,-0.5,-0.5,0,3,NaN,0.6,3,840,1,0,840,1,0,1.2,0.6,1.18287486186788,1.18287486186788,750,0,0,neutral,0.1,893.109386105416,3784.23079199666
25,104,2,195,-0.5,0.5,-0.5,4,4,0.6,4,558,1,1,558,1,0,1.4,0.8,-0.866019573067768,-0.866019573067768,750,1,0,congruent,0.1,3551.03851878854,2603.74995837874
25,104,2,196,-0.5,0.5,0.5,2,3,0.8,2,733,1,1,733,1,0,1.2,0.8,0.405457469888751,0.405457469888751,750,0,0,incongruent,0.1,2050.57250341381,521.536435851407
25,104,2,197,-0.5,-0.5,-0.5,1,1,1,2,877,0,0,NaN,1,0,1.2,0.8,1.4517014366644,NaN,750,0,1,congruent,0.1,2374.25949925525,1903.20600904814
25,104,2,198,0.5,-0.5,-0.5,3,3,1,3,737,1,1,737,1,0,1.2,NaN,0.434519802299186,0.434519802299186,750,1,0,congruent,1,3584.50598910115,1731.84625759795
25,104,2,199,-0.5,-0.5,-0.5,4,4,1,4,685,1,1,685,1,0,1.2,0.8,0.0567094809635342,0.0567094809635342,750,1,0,congruent,0.1,1245.25801078873,3071.56645188192
25,104,2,200,0.5,0.5,-0.5,2,2,1,2,942,1,0,942,0,0,1.2,NaN,1.92396433833397,1.92396433833397,750,1,0,congruent,0,4341.56824429754,1412.09075721366
25,104,2,201,0.5,-0.5,-0.5,1,1,0.8,1,778,1,0,778,1,0,1,NaN,0.732408709506142,0.732408709506142,750,1,0,congruent,1,1791.62320205773,4405.91335340309
25,104,2,202,0.5,0.5,0,4,NaN,0.8,4,584,1,1,584,1,0,1.2,NaN,-0.677114412399943,-0.677114412399943,750,0,0,neutral,1,4472.51560704541,1367.78925380973
25,104,2,203,-0.5,0.5,-0.5,2,2,0.8,2,612,1,1,612,1,0,1.4,0.8,-0.4736780855269,-0.4736780855269,750,1,0,congruent,0.1,4087.63204756624,905.939093783734
25,104,2,204,0.5,-0.5,-0.5,4,4,0.8,4,640,1,1,640,1,0,1.2,NaN,-0.270241758653856,-0.270241758653856,750,1,0,congruent,1,681.239345150897,1730.97410170591
25,104,2,205,0.5,0.5,0,1,NaN,0.8,1,655,1,1,655,1,0,1.4,NaN,-0.161258012114726,-0.161258012114726,750,0,0,neutral,1,3765.56184628758,2343.00279536655
25,104,2,206,0.5,-0.5,-0.5,4,4,0.8,4,893,1,0,893,1,0,1.8,NaN,1.56795076630614,1.56795076630614,750,1,0,congruent,1,1893.99938468475,3246.50235813506
25,104,2,207,-0.5,-0.5,-0.5,1,1,0.8,1,817,1,0,817,1,0,1.8,0.8,1.01576645050788,1.01576645050788,750,1,0,congruent,0.1,4626.89591513819,2462.65888481392
25,104,2,208,0.5,-0.5,0,4,NaN,0.8,3,187,0,1,NaN,1,0,1.6,NaN,-3.56155090413559,NaN,750,0,1,neutral,1,1303.50800960929,2427.69653476876
25,104,2,209,-0.5,0.5,-0.5,1,1,0.8,1,993,1,0,993,0,0,1.8,1,2.29450907656701,2.29450907656701,750,1,0,congruent,0,2423.12459346989,5466.47914293891
25,104,2,210,-0.5,0.5,-0.5,4,4,0.6,4,570,1,1,570,1,0,1.4,0.8,-0.778832575836464,-0.778832575836464,750,1,0,congruent,0.1,3349.46565331749,503.344474311418
25,104,2,211,0.5,0.5,-0.5,2,2,0.8,2,717,1,1,717,1,0,1.2,NaN,0.289208140247012,0.289208140247012,750,1,0,congruent,1,3075.45990749489,880.214488214943
25,104,2,212,0.5,0.5,0,4,NaN,0.8,4,679,1,1,679,1,0,1.2,NaN,0.0131159823478821,0.0131159823478821,750,0,0,neutral,1,12717.2840900845,1466.80065169004
25,104,2,214,0.5,0.5,-0.5,2,2,0.8,2,778,1,0,778,0,0,1,NaN,0.732408709506142,0.732408709506142,750,1,0,congruent,0,508.460841201771,4512.74309436636
25,104,2,215,0.5,-0.5,0,4,NaN,0.6,4,754,1,0,754,1,0,1,NaN,0.558034715043533,0.558034715043533,750,0,0,neutral,1,2083.94357849709,6109.30719759576
25,104,2,216,-0.5,0.5,-0.5,2,2,0.6,2,577,1,1,577,1,0,1.2,0.8,-0.727973494118203,-0.727973494118203,750,1,0,congruent,0.1,6691.97526542328,4956.07402441882
25,104,2,217,0.5,0.5,-0.5,1,1,0.8,1,614,1,1,614,1,0,1,NaN,-0.459146919321682,-0.459146919321682,750,1,0,congruent,1,1145.04331578231,1332.73136044987
25,104,2,218,0.5,-0.5,0,4,NaN,0.8,4,526,1,1,526,1,0,1,NaN,-1.09851823235125,-1.09851823235125,750,0,0,neutral,1,5108.7868988872,1198.27760332607
25,104,2,219,-0.5,0.5,-0.5,3,3,0.8,3,741,1,1,741,1,0,1.4,0.8,0.46358213470962,0.46358213470962,750,1,0,congruent,0.1,1294.89311636385,7242.44817452344
25,104,2,221,0.5,-0.5,-0.5,3,3,0.6,3,665,1,1,665,1,0,1.2,NaN,-0.0886021810886394,-0.0886021810886394,750,1,0,congruent,1,1781.55675887179,2668.03444964516
25,104,2,222,-0.5,0.5,0.5,1,4,0.6,1,597,1,1,597,1,0,1.4,0.8,-0.58266183206603,-0.58266183206603,750,0,0,incongruent,0.1,5191.90788835457,3225.54708957223
25,104,2,223,0.5,-0.5,0,4,NaN,0.8,3,510,0,1,NaN,1,0,1.2,NaN,-1.21476756199299,NaN,750,0,1,neutral,1,268.882002398225,849.613649144962
25,104,2,224,0.5,-0.5,-0.5,2,2,0.8,2,706,1,1,706,0,0,1.2,NaN,0.209286726118317,0.209286726118317,750,1,0,congruent,0,4008.47693724958,616.839713880636
25,104,2,225,-0.5,-0.5,0.5,4,1,0.8,4,858,1,0,858,1,0,1,1,1.31365535771484,1.31365535771484,750,0,0,incongruent,0.1,8412.08260233539,5201.0376476651
25,104,2,228,-0.5,0.5,-0.5,3,3,0.8,3,616,1,1,616,1,0,1.4,0.8,-0.444615753116465,-0.444615753116465,750,1,0,congruent,0.1,4822.12497181765,1204.72743298046
25,104,2,229,0.5,-0.5,0.5,2,4,0.8,2,694,1,1,694,1,0,1.2,NaN,0.122099728887012,0.122099728887012,750,0,0,incongruent,1,996.333665801155,904.518027938071
25,104,2,230,0.5,0.5,0,1,NaN,0.8,1,375,1,1,375,1,0,1.6,NaN,-2.19562128084516,-2.19562128084516,750,0,0,neutral,1,1661.50078658075,1257.35975786455
25,104,2,231,0.5,0.5,-0.5,2,2,0.8,2,557,1,1,557,1,0,1.8,NaN,-0.873285156170377,-0.873285156170377,750,1,0,congruent,1,1476.69170644022,327.145256840874
25,104,2,232,-0.5,0.5,0,3,NaN,0.8,4,589,0,1,NaN,0,0,1.8,1,-0.640786496886899,NaN,750,0,1,neutral,0,4776.64294612525,3545.55679177631
25,104,2,233,-0.5,-0.5,-0.5,4,4,0.8,4,645,1,1,645,1,0,1.4,1,-0.233913843140813,-0.233913843140813,750,1,0,congruent,0.1,1510.74465537689,2341.17151236754
25,104,2,234,0.5,-0.5,-0.5,3,3,0.8,3,479,1,1,479,0,0,1.4,NaN,-1.44000063817385,-1.44000063817385,750,1,0,congruent,0,1718.36018652053,1240.25810572671
25,104,2,235,-0.5,0.5,0.5,2,4,0.8,2,819,1,0,819,0,0,1,0.8,1.0302976167131,1.0302976167131,750,0,0,incongruent,0,1355.095863669,2903.36234084608
25,104,2,236,-0.5,-0.5,0,3,NaN,0.6,3,678,1,1,678,0,0,0.6,1,0.00585039924527344,0.00585039924527344,750,0,0,neutral,0,5354.16322167361,4226.21400327082
25,104,2,237,-0.5,-0.5,-0.5,2,2,0.6,2,594,1,1,594,1,0,0.2,0.8,-0.604458581373856,-0.604458581373856,750,1,0,congruent,0.1,1646.76400270818,1778.84701679049
25,104,2,238,-0.5,0.5,0,3,NaN,0.6,3,776,1,0,776,0,0,0.4,0.6,0.717877543300924,0.717877543300924,750,0,0,neutral,0,1706.9855204556,2368.41349030214
25,104,2,240,-0.5,-0.5,0.5,3,1,0.4,3,594,1,1,594,1,0,0.2,0.6,-0.604458581373856,-0.604458581373856,750,0,0,incongruent,0.1,2296.97980649919,3727.7573498916
25,104,2,242,0.5,0.5,-0.5,1,1,0.4,2,582,0,1,NaN,0,0,0.8,NaN,-0.69164557860516,NaN,750,0,1,congruent,0,1660.33827007345,3329.41183890329
25,104,2,243,0.5,0.5,0,3,NaN,0.2,3,616,1,1,616,1,0,0.6,NaN,-0.444615753116465,-0.444615753116465,750,0,0,neutral,1,2071.57565499849,2005.13750031358
25,104,2,244,0.5,0.5,-0.5,1,1,0.4,1,636,1,1,636,1,0,1,NaN,-0.299304091064291,-0.299304091064291,750,1,0,congruent,1,1215.44845773449,2737.12109697237
25,104,2,245,-0.5,-0.5,-0.5,2,2,0.6,2,770,1,0,770,1,0,1.4,0.6,0.674284044685272,0.674284044685272,750,1,0,congruent,0.1,557.276096680086,1974.97604093005
25,104,2,247,0.5,-0.5,-0.5,2,2,0.6,2,694,1,1,694,1,0,1.4,NaN,0.122099728887012,0.122099728887012,750,1,0,congruent,1,6689.48232653113,2920.19488654341
25,104,2,250,0.5,0.5,0.5,1,3,0.6,1,714,1,1,714,1,0,1,NaN,0.267411390939186,0.267411390939186,750,0,0,incongruent,1,5089.09002412252,1495.04158969579
25,104,2,251,-0.5,0.5,0,4,NaN,0.8,4,601,1,1,601,1,0,1.2,0.4,-0.553599499655595,-0.553599499655595,750,0,0,neutral,0.1,4077.12674196494,2122.04784950206
25,104,2,252,0.5,0.5,-0.5,1,1,0.8,1,705,1,1,705,1,0,1,NaN,0.202021143015708,0.202021143015708,750,1,0,congruent,1,1962.73103287822,2127.16030948853
25,104,2,253,-0.5,-0.5,0,4,NaN,1,4,672,1,1,672,1,0,1,0.6,-0.0377430993703787,-0.0377430993703787,750,0,0,neutral,0.1,1197.12825205016,1508.38270518043
25,104,2,254,0.5,-0.5,0.5,1,3,1,1,618,1,1,618,1,0,1.2,NaN,-0.430084586911247,-0.430084586911247,750,0,0,incongruent,1,9012.08066012123,2986.83711174675
25,104,2,255,0.5,-0.5,-0.5,2,2,1,2,598,1,1,598,1,0,1.6,NaN,-0.575396248963421,-0.575396248963421,750,1,0,congruent,1,1478.324731105,3395.34554497539
25,104,2,256,0.5,0.5,0.5,1,3,1,1,667,1,1,667,1,0,1.6,NaN,-0.0740710148834221,-0.0740710148834221,750,0,0,incongruent,1,4054.84734672418,2150.73498313549
25,104,2,257,-0.5,-0.5,-0.5,4,4,1,4,623,1,1,623,1,0,1.8,0.6,-0.393756671398204,-0.393756671398204,750,1,0,congruent,0.1,1580.90803453119,2015.72106236094
25,104,2,258,-0.5,-0.5,0,1,NaN,1,1,649,1,1,649,1,0,1.6,0.8,-0.204851510730378,-0.204851510730378,750,0,0,neutral,0.1,10205.4127437089,4405.83148286266
25,104,2,259,-0.5,-0.5,-0.5,4,4,1,4,627,1,1,627,1,0,1.6,0.8,-0.364694338987769,-0.364694338987769,750,1,0,congruent,0.1,2731.52931271944,1837.31629346534
25,104,2,260,0.5,0.5,0,1,NaN,1,1,824,1,0,824,0,0,1.4,NaN,1.06662553222614,1.06662553222614,750,0,0,neutral,0,1921.70243612111,1206.69628298317
25,104,2,261,-0.5,-0.5,-0.5,2,2,0.8,2,507,1,1,507,1,0,1,0.8,-1.23656431130081,-1.23656431130081,750,1,0,congruent,0.1,4363.60172682254,479.240229159327
25,104,2,262,-0.5,-0.5,0.5,3,1,0.8,3,981,1,0,981,1,0,0.8,1,2.2073220793357,2.2073220793357,750,0,0,incongruent,0.1,1901.31789087309,2074.13306454354
25,104,2,263,0.5,0.5,0,1,NaN,0.8,1,791,1,0,791,0,0,0.8,NaN,0.826861289840054,0.826861289840054,750,0,0,neutral,0,2813.10239257656,1314.2170535683
25,104,2,264,0.5,-0.5,0.5,2,3,0.6,2,886,1,0,886,1,0,0.6,NaN,1.51709168458788,1.51709168458788,750,0,0,incongruent,1,1431.49038572067,1206.73537936286
25,104,2,265,0.5,0.5,0.5,4,2,0.6,4,755,1,0,755,0,0,0.8,NaN,0.565300298146142,0.565300298146142,750,0,0,incongruent,0,6713.57973419854,2546.50242299639
25,104,2,266,-0.5,-0.5,-0.5,1,1,0.4,1,682,1,1,682,0,0,0.8,1,0.0349127316557082,0.0349127316557082,750,1,0,congruent,0,2025.14425154169,1745.46237826918
25,104,2,267,-0.5,-0.5,0,2,NaN,0.4,2,714,1,1,714,1,0,0.6,0.8,0.267411390939186,0.267411390939186,750,0,0,neutral,0.1,4359.44180297667,2122.36397480226
25,104,2,268,0.5,-0.5,0.5,1,3,0.4,1,564,1,1,564,1,0,0.6,NaN,-0.822426074452116,-0.822426074452116,750,0,0,incongruent,1,9527.11714879911,519.763303930298
25,104,2,269,0.5,-0.5,0,4,NaN,0.4,4,974,1,0,974,0,0,1,NaN,2.15646299761744,2.15646299761744,750,0,0,neutral,0,4460.65125298803,5991.91304754447
25,104,2,270,-0.5,-0.5,-0.5,1,1,0.4,1,492,1,1,492,0,0,0.6,0.8,-1.34554805783994,-1.34554805783994,750,1,0,congruent,0,4002.96237134766,2721.09798046009
25,104,2,271,0.5,-0.5,0,4,NaN,0.4,3,466,0,1,NaN,0,0,0.6,NaN,-1.53445321850777,NaN,750,0,1,neutral,0,1220.62643282802,1443.60363856776
25,104,2,272,-0.5,0.5,0.5,1,4,0.4,4,611,0,1,NaN,0,0,0.6,0.4,-0.480943668629508,NaN,750,1,0,incongruent,0,2905.14616804075,1555.27686702421
25,104,2,273,0.5,-0.5,-0.5,3,3,0.2,3,817,1,0,817,0,0,0.4,NaN,1.01576645050788,1.01576645050788,750,1,0,congruent,0,3295.25157635302,3214.86788077302
25,104,2,274,-0.5,-0.5,0.5,2,1,0.2,3,837,0,0,NaN,0,0,0,0.6,1.16107811256005,NaN,750,0,1,incongruent,0,8638.64062155329,1410.84699384839
25,104,2,275,-0.5,0.5,-0.5,4,4,0.2,4,645,1,1,645,1,0,0,0.2,-0.233913843140813,-0.233913843140813,750,1,0,congruent,0.1,3671.52244640635,3030.91230618492
25,104,2,276,0.5,-0.5,0.5,2,3,0.2,2,848,1,0,848,1,0,0.2,NaN,1.24099952668875,1.24099952668875,750,0,0,incongruent,1,2276.40138453223,619.552066801435
25,104,2,277,0.5,0.5,-0.5,1,1,0.2,1,526,1,1,526,1,0,0.6,NaN,-1.09851823235125,-1.09851823235125,750,1,0,congruent,1,1864.21611836391,1284.42315295382
25,104,2,278,-0.5,-0.5,0,4,NaN,0.4,4,606,1,1,606,0,0,1,0.4,-0.517271584142552,-0.517271584142552,750,0,0,neutral,0,1071.1286811784,1448.66553058361
25,104,2,279,0.5,-0.5,-0.5,1,1,0.4,2,810,0,0,NaN,0,0,1,NaN,0.964907368789619,NaN,750,0,1,congruent,0,1030.64410081624,3327.33637154029
25,104,2,280,-0.5,-0.5,0.5,4,3,0.4,3,489,0,1,NaN,0,0,1,0.2,-1.36734480714777,NaN,750,1,0,incongruent,0,1059.03255756821,681.636748099943
25,104,2,282,0.5,0.5,0.5,4,2,0.4,3,754,0,0,NaN,0,0,0.4,NaN,0.558034715043533,NaN,750,0,1,incongruent,0,3472.15620791102,1678.28985670396
25,104,2,283,0.5,0.5,0,1,NaN,0.4,1,658,1,1,658,1,0,0,NaN,-0.1394612628069,-0.1394612628069,750,0,0,neutral,1,1103.38650367554,2926.41871740028
25,104,2,284,-0.5,-0.5,-0.5,3,3,0.6,3,641,1,1,641,0,0,0.4,0.2,-0.262976175551248,-0.262976175551248,750,1,0,congruent,0,4955.20936552901,940.7333985775
25,104,2,285,-0.5,-0.5,0,1,NaN,0.6,1,487,1,1,487,1,0,0.4,0,-1.38187597335298,-1.38187597335298,750,0,0,neutral,0.1,2873.47612172013,1058.46840225885
25,104,2,286,0.5,-0.5,0.5,2,1,0.6,2,792,1,0,792,0,0,0.6,NaN,0.834126872942663,0.834126872942663,750,0,0,incongruent,0,4537.84394453547,2337.806837342
25,104,2,287,0.5,-0.5,-0.5,4,4,0.6,4,496,1,1,496,0,0,0.6,NaN,-1.31648572542951,-1.31648572542951,750,1,0,congruent,0,1736.81026936267,2629.80379707916
25,104,2,288,0.5,-0.5,0.5,3,2,0.6,2,966,0,0,NaN,0,0,0.6,NaN,2.09833833279657,NaN,750,1,0,incongruent,0,2627.6407337792,2889.0349794061
25,104,2,290,-0.5,-0.5,-0.5,3,3,0.6,4,593,0,1,NaN,1,0,0.6,0.2,-0.611724164476464,NaN,750,0,1,congruent,0.1,433.209983560092,711.128526004609
25,104,2,291,-0.5,0.5,-0.5,1,1,0.6,1,689,1,1,689,1,0,0.6,0.4,0.0857718133739689,0.0857718133739689,750,1,0,congruent,0.1,3503.92932499023,2957.62721403311
25,104,2,292,-0.5,0.5,0.5,3,4,0.6,3,895,1,0,895,0,0,0.8,0.6,1.58248193251136,1.58248193251136,750,0,0,incongruent,0,1312.97560755989,6075.75720799165
25,104,2,294,0.5,-0.5,0.5,4,2,0.4,4,693,1,1,693,1,0,0.8,NaN,0.114834145784404,0.114834145784404,750,0,0,incongruent,1,1859.53928111494,689.736213093399
25,104,2,296,-0.5,-0.5,-0.5,3,3,0.4,3,936,1,0,936,0,0,0.6,0.4,1.88037083971831,1.88037083971831,750,1,0,congruent,0,2337.59905430753,2867.35303770232
25,104,2,297,0.5,-0.5,-0.5,2,2,0.4,2,967,1,0,967,0,0,0.4,NaN,2.10560391589918,2.10560391589918,750,1,0,congruent,0,1230.56471839052,934.202782881897
25,104,2,298,-0.5,-0.5,0.5,4,1,0.4,4,593,1,1,593,1,0,0.4,0.4,-0.611724164476464,-0.611724164476464,750,0,0,incongruent,0.1,3749.57438454153,1986.21670020167
25,104,2,299,0.5,-0.5,-0.5,2,2,0.4,2,531,1,1,531,0,0,0.6,NaN,-1.0621903168382,-1.0621903168382,750,1,0,congruent,0,9507.84518948171,4650.21579374027
25,104,3,301,-0.5,-0.5,0.5,4,3,0.4,4,820,1,0,820,0,0,0.4,0.8,1.03756319981571,1.03756319981571,750,0,0,incongruent,0,2303.92583553663,3796.35540236684
25,104,3,302,-0.5,0.5,-0.5,1,1,0.4,1,508,1,1,508,1,0,0.4,0.4,-1.2292987281982,-1.2292987281982,750,1,0,congruent,0.1,4544.35015069527,4459.56106011019
25,104,3,303,-0.5,0.5,-0.5,4,4,0.6,4,571,1,1,571,1,0,0.6,0.6,-0.771566992733856,-0.771566992733856,750,1,0,congruent,0.1,2855.77281193739,4147.04739018103
25,104,3,304,0.5,-0.5,0.5,1,3,0.6,2,757,0,0,NaN,0,0,0.6,NaN,0.579831464351359,NaN,750,0,1,incongruent,0,2692.50552636034,2854.48034488849
25,104,3,305,-0.5,0.5,-0.5,4,4,0.6,2,709,0,1,NaN,0,0,0.6,0.6,0.231083475426143,NaN,750,0,1,congruent,0,766.809683742248,664.177851320061
25,104,3,306,0.5,-0.5,0.5,3,2,0.4,3,700,1,1,700,0,0,0.4,NaN,0.165693227502664,0.165693227502664,750,0,0,incongruent,0,9943.3961430668,3077.706404325
25,104,3,307,0.5,0.5,0.5,2,1,0.4,2,820,1,0,820,0,0,0.4,NaN,1.03756319981571,1.03756319981571,750,0,0,incongruent,0,2912.25433683122,819.000583880145
25,104,3,308,-0.5,0.5,0,4,NaN,0.4,4,609,1,1,609,1,0,0.2,0.4,-0.495474834834726,-0.495474834834726,750,0,0,neutral,0.1,2390.62441757674,2447.22101419232
25,104,3,309,0.5,-0.5,0.5,3,1,0.6,3,759,1,0,759,1,0,0.2,NaN,0.594362630556577,0.594362630556577,750,0,0,incongruent,1,3636.93416123457,3735.44678658252
25,104,3,310,-0.5,-0.5,0.5,4,2,0.6,4,848,1,0,848,1,0,0.6,0.6,1.24099952668875,1.24099952668875,750,0,0,incongruent,0.1,3624.9293739358,6610.35465740418
25,104,3,312,0.5,0.5,0,4,NaN,0.6,4,643,1,1,643,1,0,1.2,NaN,-0.24844500934603,-0.24844500934603,750,0,0,neutral,1,3071.7612290576,1807.77550786491
25,104,3,313,-0.5,0.5,-0.5,3,3,0.6,3,665,1,1,665,1,0,1.6,0.6,-0.0886021810886394,-0.0886021810886394,750,1,0,congruent,0.1,1449.70981906537,4202.3936190483
25,104,3,314,-0.5,-0.5,0,1,NaN,0.6,1,727,1,1,727,1,0,1.6,0.6,0.361863971273099,0.361863971273099,750,0,0,neutral,0.1,2574.94321203171,3083.8275420076
25,104,3,316,0.5,-0.5,0.5,1,3,0.8,2,882,0,0,NaN,0,0,1.4,NaN,1.48802935217744,NaN,750,0,1,incongruent,0,2885.76596266481,4583.20948711964
25,104,3,317,-0.5,0.5,0.5,4,2,0.8,4,986,1,0,986,0,0,1,0.8,2.24364999484875,2.24364999484875,750,0,0,incongruent,0,9248.22752974538,5477.57262884983
25,104,3,318,-0.5,-0.5,-0.5,3,3,0.8,3,596,1,1,596,1,0,0.6,0.8,-0.589927415168638,-0.589927415168638,750,1,0,congruent,0.1,5130.64900380758,2361.4632608681
25,104,3,321,-0.5,0.5,0.5,3,1,0.8,3,800,1,0,800,0,0,0.6,0.6,0.892251537763533,0.892251537763533,750,0,0,incongruent,0,5273.02419483299,877.715582807745
25,104,3,322,-0.5,0.5,-0.5,2,2,0.6,1,745,0,1,NaN,0,0,0.6,0.6,0.492644467120055,NaN,750,0,1,congruent,0,5179.22288747316,2561.61869292032
25,104,3,323,-0.5,0.5,0.5,1,3,0.4,1,932,1,0,932,0,0,0.6,0.4,1.85130850730788,1.85130850730788,750,0,0,incongruent,0,4971.70094502555,1912.17986108796
25,104,3,324,0.5,0.5,0.5,3,4,0.2,3,658,1,1,658,1,0,0.4,NaN,-0.1394612628069,-0.1394612628069,750,0,0,incongruent,1,2012.72223828954,1909.23248859406
25,104,3,326,-0.5,-0.5,-0.5,3,3,0.2,3,798,1,0,798,0,0,0.4,0.6,0.877720371558315,0.877720371558315,750,1,0,congruent,0,3826.98767207344,3334.72052830785
25,104,3,329,0.5,0.5,0,1,NaN,0.2,1,677,1,1,677,1,0,0.4,NaN,-0.00141518385733524,-0.00141518385733524,750,0,0,neutral,1,389.72344541973,2110.54840988083
25,104,3,331,-0.5,0.5,-0.5,3,3,0.4,3,689,1,1,689,1,0,0.4,0,0.0857718133739689,0.0857718133739689,750,1,0,congruent,0.1,1136.30581422861,2139.98068724572
25,104,3,332,0.5,-0.5,0.5,4,2,0.4,3,744,0,1,NaN,1,0,0.6,NaN,0.485378884017446,NaN,750,0,1,incongruent,1,2366.13764287384,4816.91149840533
25,104,3,333,-0.5,0.5,0,3,NaN,0.4,3,614,1,1,614,1,0,1,0.2,-0.459146919321682,-0.459146919321682,750,0,0,neutral,0.1,1381.44523338979,3155.07989391496
25,104,3,334,0.5,-0.5,0.5,4,3,0.6,4,621,1,1,621,1,0,1.2,NaN,-0.408287837603421,-0.408287837603421,750,0,0,incongruent,1,3109.84364328166,1835.94534282573
25,104,3,335,0.5,0.5,0.5,2,4,0.6,2,883,1,0,883,0,0,1.2,NaN,1.49529493528005,1.49529493528005,750,0,0,incongruent,0,5349.73473156053,559.910961732536
25,104,3,336,0.5,-0.5,0,4,NaN,0.6,4,707,1,1,707,1,0,1.2,NaN,0.216552309220925,0.216552309220925,750,0,0,neutral,1,6608.49782256268,1546.01677982987
25,104,3,338,0.5,0.5,0.5,3,4,0.6,3,687,1,1,687,1,0,1.4,NaN,0.0712406471687516,0.0712406471687516,750,0,0,incongruent,1,4376.79169654549,2085.20425629715
25,104,3,340,0.5,-0.5,-0.5,2,2,0.8,2,747,1,1,747,1,0,1.2,NaN,0.507175633325272,0.507175633325272,750,1,0,congruent,1,2316.25879446333,1575.17704964076
25,104,3,341,-0.5,0.5,-0.5,3,3,0.8,3,726,1,1,726,1,0,1.6,0.4,0.35459838817049,0.35459838817049,750,1,0,congruent,0.1,1196.15598348035,2065.19509600836
25,104,3,343,0.5,-0.5,-0.5,3,3,0.8,3,865,1,0,865,0,0,1.4,NaN,1.3645144394331,1.3645144394331,750,1,0,congruent,0,2898.33312474255,6975.35508652214
25,104,3,344,-0.5,0.5,-0.5,2,2,0.8,2,523,1,1,523,1,0,1,0.6,-1.12031498165907,-1.12031498165907,750,1,0,congruent,0.1,1840.56497554991,2221.02928315197
25,104,3,345,-0.5,-0.5,-0.5,1,1,0.8,1,690,1,1,690,1,0,1.2,0.4,0.0930373964765776,0.0930373964765776,750,1,0,congruent,0.1,1707.9203007665,2785.24506582781
25,104,3,347,-0.5,-0.5,0,4,NaN,0.8,4,719,1,1,719,1,0,0.8,0.2,0.303739306452229,0.303739306452229,750,0,0,neutral,0.1,5141.70903456512,5315.42031632382
25,104,3,348,0.5,0.5,-0.5,1,1,0.8,1,587,1,1,587,1,0,0.6,NaN,-0.655317663092117,-0.655317663092117,750,1,0,congruent,1,3067.27971276962,2285.52323924877
25,104,3,350,-0.5,-0.5,0.5,2,1,1,2,754,1,0,754,1,0,1,0.4,0.558034715043533,0.558034715043533,750,0,0,incongruent,0.1,1273.50356467318,1555.45240086781
25,104,3,351,0.5,-0.5,-0.5,3,3,1,3,496,1,1,496,1,0,1,NaN,-1.31648572542951,-1.31648572542951,750,1,0,congruent,1,1002.21585054947,2197.00059366166
25,104,3,352,-0.5,-0.5,-0.5,4,4,1,4,550,1,1,550,1,0,1.4,0.6,-0.924144237888638,-0.924144237888638,750,1,0,congruent,0.1,1275.99274611707,6584.06283444167
25,104,3,354,-0.5,-0.5,0.5,3,4,0.8,4,904,0,0,NaN,1,0,1,0.8,1.64787218043484,NaN,750,1,0,incongruent,0.1,2089.18988362744,2005.02384019687
25,104,3,355,-0.5,-0.5,-0.5,1,1,0.8,1,768,1,0,768,1,0,1,0.8,0.659752878480055,0.659752878480055,750,1,0,congruent,0.1,2705.95015036825,2935.66476553145
25,104,3,357,0.5,-0.5,-0.5,3,3,0.8,3,545,1,1,545,0,0,0.8,NaN,-0.960472153401681,-0.960472153401681,750,1,0,congruent,0,755.616045565554,879.887296456515
25,104,3,358,0.5,0.5,-0.5,1,1,0.8,1,897,1,0,897,0,0,0.6,NaN,1.59701309871657,1.59701309871657,750,1,0,congruent,0,20522.9449180007,797.88356385135
25,104,3,361,-0.5,-0.5,-0.5,1,1,0.6,1,557,1,1,557,0,0,0.8,1,-0.873285156170377,-0.873285156170377,750,1,0,congruent,0,2123.5268619826,966.673906367977
25,104,3,362,-0.5,-0.5,0.5,2,4,0.6,2,536,1,1,536,1,0,0.6,0.8,-1.02586240132516,-1.02586240132516,750,0,0,incongruent,0.1,1984.13293641488,1366.67617179673
25,104,3,364,-0.5,0.5,0.5,2,4,0.6,2,748,1,1,748,1,0,1,0.8,0.514441216427881,0.514441216427881,750,0,0,incongruent,0.1,4399.84657111234,2229.87057565972
25,104,3,366,0.5,-0.5,-0.5,4,4,0.6,4,525,1,1,525,1,0,1,NaN,-1.10578381545385,-1.10578381545385,750,1,0,congruent,1,1009.5314605876,2286.37512502574
25,104,3,367,-0.5,-0.5,0.5,2,3,0.6,2,758,1,0,758,1,0,1.4,0.8,0.587097047453968,0.587097047453968,750,0,0,incongruent,0.1,1026.7186098784,4771.56820762937
25,104,3,368,0.5,0.5,-0.5,1,1,0.6,1,530,1,1,530,1,0,1.4,NaN,-1.06945589994081,-1.06945589994081,750,1,0,congruent,1,5894.23141184824,690.210057332547
25,104,3,369,-0.5,-0.5,0.5,2,4,0.8,2,652,1,1,652,1,0,1.6,0.8,-0.183054761422552,-0.183054761422552,750,0,0,incongruent,0.1,3215.8948499374,862.219577750532
25,104,3,370,-0.5,-0.5,0,1,NaN,0.8,1,665,1,1,665,1,0,1.6,0.8,-0.0886021810886394,-0.0886021810886394,750,0,0,neutral,0.1,4931.87773385498,3882.45929052597
25,104,3,371,-0.5,0.5,0.5,2,1,0.8,1,666,0,1,NaN,0,0,1.4,0.8,-0.0813365979860307,NaN,750,1,0,incongruent,0,2105.61586845197,1260.3636483672
25,104,3,372,0.5,-0.5,-0.5,3,3,0.6,3,449,1,1,449,1,0,1,NaN,-1.65796813125211,-1.65796813125211,750,1,0,congruent,1,3477.09628318891,1450.31771267375
25,104,3,373,0.5,-0.5,0.5,1,4,0.6,2,964,0,0,NaN,0,0,1.2,NaN,2.08380716659136,NaN,750,0,1,incongruent,0,2197.07607133263,1523.74594537327
25,104,3,375,0.5,-0.5,-0.5,1,1,0.8,1,528,1,1,528,1,0,0.8,NaN,-1.08398706614603,-1.08398706614603,750,1,0,congruent,1,3684.24568809637,595.989150719977
25,104,3,377,0.5,-0.5,0,4,NaN,0.8,4,634,1,1,634,1,0,1,NaN,-0.313835257269509,-0.313835257269509,750,0,0,neutral,1,2039.0994132066,607.893802529853
25,104,3,378,0.5,0.5,-0.5,1,1,0.8,1,543,1,1,543,1,0,1,NaN,-0.975003319606899,-0.975003319606899,750,1,0,congruent,1,2363.99060458689,751.863636812488
25,104,3,379,0.5,-0.5,0,4,NaN,0.8,4,523,1,1,523,0,0,1.4,NaN,-1.12031498165907,-1.12031498165907,750,0,0,neutral,0,1242.40144248367,950.754438055593
25,104,3,380,0.5,-0.5,0.5,1,3,0.8,3,785,0,0,NaN,1,0,1.2,NaN,0.783267791224402,NaN,750,1,0,incongruent,1,3930.07116328731,1351.39623928078
25,104,3,381,-0.5,0.5,0,2,NaN,0.8,2,836,1,0,836,0,0,1.2,0.6,1.15381252945745,1.15381252945745,750,0,0,neutral,0,3920.60493710147,7772.82703177122
25,104,3,382,-0.5,-0.5,-0.5,4,4,0.6,4,507,1,1,507,0,0,1.2,1,-1.23656431130081,-1.23656431130081,750,1,0,congruent,0,1274.59866465275,1943.70740471318
25,104,3,383,0.5,0.5,0.5,1,3,0.6,4,614,0,1,NaN,0,0,0.8,NaN,-0.459146919321682,NaN,750,0,1,incongruent,0,1451.87962803091,1237.70138860341
25,104,3,384,0.5,0.5,0,3,NaN,0.4,2,477,0,1,NaN,0,0,0.4,NaN,-1.45453180437907,NaN,750,0,1,neutral,0,2491.4644657716,1595.38429443153
25,104,3,385,-0.5,-0.5,-0.5,4,4,0.4,2,843,0,0,NaN,0,0,0.4,0.8,1.20467161117571,NaN,750,0,1,congruent,0,1982.06170426889,4489.37591787775
25,104,3,386,-0.5,-0.5,-0.5,1,1,0.4,1,733,1,1,733,0,0,0,0.6,0.405457469888751,0.405457469888751,750,1,0,congruent,0,2952.72261153751,5868.97689859531
25,104,3,387,-0.5,0.5,0,2,NaN,0.4,2,676,1,1,676,1,0,0,0.6,-0.00868076695994393,-0.00868076695994393,750,0,0,neutral,0.1,1713.55012808936,3443.3244641666
25,104,3,388,-0.5,-0.5,-0.5,4,4,0.4,4,459,1,1,459,0,0,0.2,0.4,-1.58531230022603,-1.58531230022603,750,1,0,congruent,0,699.233939720836,840.007058789851
25,104,3,389,-0.5,0.5,0,3,NaN,0.4,3,637,1,1,637,1,0,0.2,0.6,-0.292038507961683,-0.292038507961683,750,0,0,neutral,0.1,1210.9978480006,4086.92981621649
25,104,3,390,-0.5,0.5,-0.5,4,4,0.4,2,866,0,0,NaN,0,0,0.4,0.6,1.37178002253571,NaN,750,0,1,congruent,0,4192.15146137712,2354.34556258295
25,104,3,392,-0.5,-0.5,0,2,NaN,0.4,2,589,1,1,589,1,0,0.8,0.2,-0.640786496886899,-0.640786496886899,750,0,0,neutral,0.1,1403.20785642289,1475.66430596377
25,104,3,394,0.5,-0.5,-0.5,2,2,0.4,2,559,1,1,559,0,0,0.8,NaN,-0.85875398996516,-0.85875398996516,750,1,0,congruent,0,6405.19138505909,1180.76155328639
25,104,3,395,-0.5,-0.5,0,1,NaN,0.4,2,713,0,1,NaN,0,0,0.6,0.2,0.260145807836577,NaN,750,0,1,neutral,0,1576.4410503213,2225.04462372007
25,104,3,396,0.5,-0.5,-0.5,4,4,0.4,3,742,0,1,NaN,1,0,0.6,NaN,0.470847717812229,NaN,750,0,1,congruent,1,2287.42123689535,2630.15539685869
25,104,3,397,-0.5,-0.5,-0.5,3,3,0.4,3,465,1,1,465,0,0,0.6,0.2,-1.54171880161038,-1.54171880161038,750,1,0,congruent,0,674.244455875561,3117.01591049016
25,104,3,398,-0.5,-0.5,-0.5,1,1,0.4,2,605,0,1,NaN,0,0,0.4,0.2,-0.52453716724516,NaN,750,0,1,congruent,0,816.986886788161,1506.45761058898
25,104,3,400,0.5,-0.5,-0.5,4,4,0.4,4,690,1,1,690,0,0,0.6,NaN,0.0930373964765776,0.0930373964765776,750,1,0,congruent,0,4157.05432605845,2735.44083613735
25,104,3,401,0.5,-0.5,0.5,3,2,0.4,3,726,1,1,726,0,0,0.6,NaN,0.35459838817049,0.35459838817049,750,0,0,incongruent,0,6459.00938219298,537.436768216817
25,104,3,402,-0.5,-0.5,0.5,4,1,0.4,4,733,1,1,733,0,0,0.2,0.2,0.405457469888751,0.405457469888751,750,0,0,incongruent,0,2534.90294007447,5355.31354781871
25,104,3,403,0.5,-0.5,-0.5,2,2,0.4,2,585,1,1,585,1,0,0.2,NaN,-0.669848829297334,-0.669848829297334,750,1,0,congruent,1,2441.01941218833,4100.21481286487
25,104,3,404,-0.5,0.5,0.5,4,1,0.4,1,107,0,1,NaN,0,0,0.6,0.6,-4.14279755234428,NaN,750,1,0,incongruent,0,2195.50130962098,2450.68470407925
25,104,3,405,-0.5,0.5,0.5,1,2,0.4,2,558,0,1,NaN,0,0,0.4,0.4,-0.866019573067768,NaN,750,1,0,incongruent,0,7676.10344292366,1637.18554880443
25,104,3,408,-0.5,-0.5,-0.5,3,3,0.2,3,525,1,1,525,0,0,0.4,0.2,-1.10578381545385,-1.10578381545385,750,1,0,congruent,0,2488.23624977636,1203.78334142851
25,104,3,409,0.5,-0.5,0.5,2,4,0.2,2,764,1,0,764,1,0,0,NaN,0.63069054606962,0.63069054606962,750,0,0,incongruent,1,2904.91193793409,1387.70362929797
25,104,3,410,-0.5,0.5,0,3,NaN,0.2,3,616,1,1,616,1,0,0.4,0.2,-0.444615753116465,-0.444615753116465,750,0,0,neutral,0.1,1728.35755846355,1398.17636173317
25,104,3,411,-0.5,-0.5,-0.5,1,1,0.2,2,896,0,0,NaN,0,0,0.6,0.2,1.58974751561397,NaN,750,0,1,congruent,0,1399.44517920155,1266.74318949012
25,104,3,412,0.5,-0.5,0,2,NaN,0.2,2,585,1,1,585,0,0,0.6,NaN,-0.669848829297334,-0.669848829297334,750,0,0,neutral,0,1195.22606018431,2359.04997599531
25,104,3,413,0.5,-0.5,-0.5,3,3,0.2,3,584,1,1,584,0,0,0.6,NaN,-0.677114412399943,-0.677114412399943,750,1,0,congruent,0,2964.47999395666,1881.9293850796
25,104,3,414,0.5,-0.5,0,4,NaN,0.2,3,962,0,0,NaN,0,0,0.6,NaN,2.06927600038614,NaN,750,0,1,neutral,0,1057.17901353344,1213.50507641427
25,104,3,418,-0.5,-0.5,0.5,2,4,0.2,2,784,1,0,784,1,0,0.4,0,0.776002208121794,0.776002208121794,750,0,0,incongruent,0.1,4138.90056396846,3580.03296604633
25,104,3,419,0.5,0.5,0,3,NaN,0.2,3,612,1,1,612,1,0,0.6,NaN,-0.4736780855269,-0.4736780855269,750,0,0,neutral,1,9076.50750771499,1393.66779787014
25,104,3,420,-0.5,-0.5,-0.5,1,1,0.4,2,711,0,1,NaN,0,0,1,0.2,0.24561464163136,NaN,750,0,1,congruent,0,4420.35164014738,2435.80356067219
25,104,3,421,-0.5,0.5,-0.5,4,4,0.4,4,686,1,1,686,1,0,1,0.2,0.0639750640661429,0.0639750640661429,750,1,0,congruent,0.1,2095.43183018349,2280.09668772577
25,104,3,422,0.5,-0.5,0,1,NaN,0.6,1,917,1,0,917,1,0,1.2,NaN,1.74232476076875,1.74232476076875,750,0,0,neutral,1,1512.81944758919,1895.06814287873
25,104,3,423,0.5,0.5,0.5,3,4,0.6,3,587,1,1,587,1,0,1.2,NaN,-0.655317663092117,-0.655317663092117,750,0,0,incongruent,1,1802.02003762254,3163.46593102752
25,104,3,424,-0.5,0.5,0,4,NaN,0.8,4,520,1,1,520,1,0,1.4,0.4,-1.1421117309669,-1.1421117309669,750,0,0,neutral,0.1,9256.69342562796,2302.34681595532
25,104,3,426,0.5,0.5,0.5,4,3,1,4,678,1,1,678,1,0,1.4,NaN,0.00585039924527344,0.00585039924527344,750,0,0,incongruent,1,3319.01629888079,3030.20664592865
25,104,3,427,-0.5,0.5,-0.5,1,1,1,1,678,1,1,678,1,0,1.6,0.6,0.00585039924527344,0.00585039924527344,750,1,0,congruent,0.1,3372.51196890554,5262.16350460235
25,104,3,428,0.5,-0.5,-0.5,4,4,1,4,528,1,1,528,1,0,1.4,NaN,-1.08398706614603,-1.08398706614603,750,1,0,congruent,1,648.72235232109,1144.86824538238
25,104,3,429,-0.5,-0.5,0.5,1,2,1,1,691,1,1,691,1,0,1.4,0.4,0.100302979579186,0.100302979579186,750,0,0,incongruent,0.1,5833.22499837684,12337.4286300086
25,104,3,430,0.5,-0.5,0,3,NaN,1,3,951,1,0,951,1,0,1.4,NaN,1.98935458625744,1.98935458625744,750,0,0,neutral,1,1558.33304324915,1009.24852862616
25,104,3,432,0.5,-0.5,-0.5,4,4,0.8,4,942,1,0,942,1,0,1.2,NaN,1.92396433833397,1.92396433833397,750,1,0,congruent,1,1906.4847676084,2731.80314626524
25,104,3,434,0.5,-0.5,-0.5,2,2,0.6,2,623,1,1,623,1,0,1,NaN,-0.393756671398204,-0.393756671398204,750,1,0,congruent,1,1524.03955218965,2531.12409574442
25,104,3,435,0.5,-0.5,0.5,4,3,0.6,4,530,1,1,530,1,0,1.2,NaN,-1.06945589994081,-1.06945589994081,750,0,0,incongruent,1,1750.04183798881,2367.41471754555
25,104,3,436,-0.5,-0.5,0,3,NaN,0.6,3,663,1,1,663,0,0,1.2,0.6,-0.103133347293857,-0.103133347293857,750,0,0,neutral,0,6277.65880148597,3947.45813376569
25,104,3,438,0.5,-0.5,-0.5,3,3,0.6,3,794,1,0,794,0,0,0.8,NaN,0.848658039147881,0.848658039147881,750,1,0,congruent,0,290.63898379415,3790.94603471038
25,104,3,439,0.5,-0.5,0.5,2,1,0.6,2,863,1,0,863,1,0,0.8,NaN,1.34998327322788,1.34998327322788,750,0,0,incongruent,1,1464.58169461795,2743.88499279442
25,104,3,440,0.5,-0.5,0.5,3,2,0.6,2,848,0,0,NaN,0,0,0.8,NaN,1.24099952668875,NaN,750,1,0,incongruent,0,2236.81504723397,5365.66337918744
25,104,3,441,-0.5,0.5,0.5,2,1,0.6,1,547,0,1,NaN,0,0,0.4,0.8,-0.945940987196464,NaN,750,1,0,incongruent,0,2216.05496250259,3996.82677313892
25,104,3,448,-0.5,-0.5,0,3,NaN,0,3,581,1,1,581,0,0,0,0.4,-0.698911161707769,-0.698911161707769,750,0,0,neutral,0,3708.86335484863,1622.26282067632
25,104,3,449,-0.5,-0.5,-0.5,2,2,0,2,751,1,0,751,0,0,0,0.2,0.536237965735707,0.536237965735707,750,1,0,congruent,0,4477.33929163172,3618.28131832423
25,104,4,451,-0.5,0.5,0.5,2,4,0,2,932,1,0,932,0,0,0,0.2,1.85130850730788,1.85130850730788,750,0,0,incongruent,0,3144.24876216285,2379.65920751047
25,104,4,452,-0.5,-0.5,-0.5,3,3,0,3,594,1,1,594,0,0,0,0,-0.604458581373856,-0.604458581373856,750,1,0,congruent,0,850.920557148658,2383.05713849337
25,104,4,453,0.5,0.5,0.5,1,4,0,1,636,1,1,636,1,0,0,NaN,-0.299304091064291,-0.299304091064291,750,0,0,incongruent,1,3998.82346795961,2445.54563012376
25,104,4,454,0.5,0.5,-0.5,2,2,0.2,2,634,1,1,634,1,0,0.4,NaN,-0.313835257269509,-0.313835257269509,750,1,0,congruent,1,2755.00273023496,1141.73323112355
25,104,4,455,0.5,-0.5,0.5,4,3,0.4,4,544,1,1,544,1,0,0.8,NaN,-0.96773773650429,-0.96773773650429,750,0,0,incongruent,1,435.782444038071,1811.45213824704
25,104,4,457,-0.5,-0.5,0.5,2,3,0.4,2,735,1,1,735,0,0,1.2,0,0.419988636093968,0.419988636093968,750,0,0,incongruent,0,1836.44179265524,2077.87488423424
25,104,4,458,0.5,0.5,0.5,4,2,0.4,4,811,1,0,811,0,0,1.2,NaN,0.972172951892228,0.972172951892228,750,0,0,incongruent,0,5242.36909096402,7488.5311270476
25,104,4,459,0.5,0.5,-0.5,1,1,0.4,2,861,0,0,NaN,0,0,0.8,NaN,1.33545210702266,NaN,750,0,1,congruent,0,2064.68394907205,3700.92628791802
25,104,4,460,0.5,0.5,-0.5,4,4,0.4,4,575,1,1,575,1,0,0.4,NaN,-0.742504660323421,-0.742504660323421,750,1,0,congruent,1,1247.22344403647,832.118535898059
25,104,4,462,0.5,0.5,-0.5,4,4,0.6,3,809,0,0,NaN,0,0,0.6,NaN,0.957641785687011,NaN,750,0,1,congruent,0,3131.52793211313,3096.50582517417
25,104,4,463,-0.5,0.5,-0.5,2,2,0.4,2,865,1,0,865,0,0,0.6,0,1.3645144394331,1.3645144394331,750,1,0,congruent,0,14162.615788791,4095.10421014226
25,104,4,464,0.5,0.5,-0.5,1,1,0.2,1,615,1,1,615,1,0,0.6,NaN,-0.451881336219074,-0.451881336219074,750,1,0,congruent,1,5480.4364695326,2146.72395234822
25,104,4,465,-0.5,0.5,-0.5,3,3,0.4,3,430,1,1,430,1,0,1,0,-1.79601421020168,-1.79601421020168,750,1,0,congruent,0.1,3230.5873977717,1610.91244372672
25,104,4,466,-0.5,0.5,0,4,NaN,0.6,3,720,0,1,NaN,0,0,0.8,0.2,0.311004889554838,NaN,750,0,1,neutral,0,4182.4499341667,1034.62590137418
25,104,4,467,0.5,-0.5,-0.5,2,2,0.4,2,571,1,1,571,1,0,0.6,NaN,-0.771566992733856,-0.771566992733856,750,1,0,congruent,1,3413.83749575959,1664.28172476637
25,104,4,468,0.5,0.5,-0.5,4,4,0.4,3,619,0,1,NaN,0,0,1,NaN,-0.422819003808639,NaN,750,0,1,congruent,0,1050.42913209968,3501.99634923073
25,104,4,469,-0.5,-0.5,0.5,1,3,0.4,1,836,1,0,836,0,0,1,0.2,1.15381252945745,1.15381252945745,750,0,0,incongruent,0,478.333702877936,1548.66511053321
25,104,4,470,-0.5,0.5,0.5,3,4,0.4,3,627,1,1,627,1,0,0.6,0.2,-0.364694338987769,-0.364694338987769,750,0,0,incongruent,0.1,2174.05092250778,2225.04639443458
25,104,4,471,-0.5,-0.5,0,2,NaN,0.6,1,913,0,0,NaN,1,0,0.6,0.2,1.71326242835831,NaN,750,0,1,neutral,0.1,1889.32874023149,3409.41955396671
25,104,4,472,-0.5,-0.5,-0.5,3,3,0.6,2,682,0,1,NaN,1,0,0.8,0.4,0.0349127316557082,NaN,750,0,1,congruent,0.1,3284.68661339771,1942.79789370978
25,104,4,474,-0.5,-0.5,-0.5,4,4,0.4,3,973,0,0,NaN,0,0,0.6,0.6,2.14919741451483,NaN,750,0,1,congruent,0,3431.87435588573,2478.6199023309
25,104,4,475,-0.5,0.5,0,1,NaN,0.4,1,563,1,1,563,1,0,0.6,0.4,-0.829691657554725,-0.829691657554725,750,0,0,neutral,0.1,2244.39486176614,8417.34606530416
25,104,4,479,0.5,-0.5,-0.5,2,2,0.4,2,986,1,0,986,0,0,0.4,NaN,2.24364999484875,2.24364999484875,750,1,0,congruent,0,1851.69063352966,4659.60334840405
25,104,4,481,-0.5,-0.5,0,2,NaN,0.4,2,845,1,0,845,0,0,0.2,0.6,1.21920277738092,1.21920277738092,750,0,0,neutral,0,3701.53376947314,6587.34259628256
25,104,4,482,0.5,-0.5,-0.5,4,4,0.4,1,537,0,1,NaN,0,0,0.2,NaN,-1.01859681822255,NaN,750,0,1,congruent,0,164.124686282055,7178.37691308905
25,104,4,484,-0.5,0.5,0,4,NaN,0.2,4,783,1,0,783,0,0,0,0.4,0.768736625019185,0.768736625019185,750,0,0,neutral,0,9173.88782698429,2682.7498391408
25,104,4,485,0.5,-0.5,-0.5,1,1,0.2,1,747,1,1,747,0,0,0,NaN,0.507175633325272,0.507175633325272,750,1,0,congruent,0,2936.3346581993,1882.31481970651
25,104,4,489,-0.5,-0.5,0.5,1,4,0,2,875,0,0,NaN,0,0,0.4,0.4,1.43717027045918,NaN,750,0,1,incongruent,0,3004.46405847961,3662.63360728229
25,104,4,490,0.5,0.5,0,2,NaN,0,2,786,1,0,786,0,0,0.4,NaN,0.790533374327011,0.790533374327011,750,0,0,neutral,0,2230.19492307997,3858.97131461909
25,104,4,491,-0.5,0.5,-0.5,4,4,0,4,697,1,1,697,1,0,0.4,0.2,0.143896478194838,0.143896478194838,750,1,0,congruent,0.1,2108.36635464369,1323.80505757105
25,104,4,492,0.5,-0.5,0.5,2,3,0.2,2,891,1,0,891,0,0,0.2,NaN,1.55341960010092,1.55341960010092,750,0,0,incongruent,0,1132.49653549334,3890.70002112673
25,104,4,493,0.5,0.5,0.5,4,2,0.2,4,695,1,1,695,1,0,0.2,NaN,0.129365311989621,0.129365311989621,750,0,0,incongruent,1,1849.40640623336,3156.4205477906
25,104,4,496,0.5,0.5,-0.5,2,2,0.4,2,615,1,1,615,1,0,0.6,NaN,-0.451881336219074,-0.451881336219074,750,1,0,congruent,1,2267.80946370587,3906.5463335223
25,104,4,498,-0.5,0.5,-0.5,2,2,0.6,2,707,1,1,707,1,0,1.2,0.2,0.216552309220925,0.216552309220925,750,1,0,congruent,0.1,22314.1236419255,4118.02626650082
25,104,4,503,0.5,-0.5,0,2,NaN,0.4,2,740,1,1,740,1,0,0.4,NaN,0.456316551607012,0.456316551607012,750,0,0,neutral,1,1099.30745977273,887.56216889637
25,104,4,504,0.5,-0.5,0.5,4,3,0.4,4,775,1,0,775,0,0,0.6,NaN,0.710611960198316,0.710611960198316,750,0,0,incongruent,0,2343.99041337013,1655.07569262919
25,104,4,505,0.5,0.5,0,1,NaN,0.4,2,621,0,1,NaN,0,0,0.6,NaN,-0.408287837603421,NaN,750,0,1,neutral,0,280.457576035745,1405.81906407571
25,104,4,508,0.5,0.5,-0.5,1,1,0.4,1,682,1,1,682,1,0,0.6,NaN,0.0349127316557082,0.0349127316557082,750,1,0,congruent,1,3208.2168726968,2519.34531556426
25,104,4,509,0.5,0.5,-0.5,2,2,0.4,2,795,1,0,795,0,0,0.6,NaN,0.855923622250489,0.855923622250489,750,1,0,congruent,0,1929.40685661717,2828.28865640617
25,104,4,510,0.5,0.5,0,3,NaN,0.4,3,561,1,1,561,1,0,0.6,NaN,-0.844222823759942,-0.844222823759942,750,0,0,neutral,1,8182.40983677943,1931.87858296317
25,104,4,513,0.5,-0.5,-0.5,1,1,0.6,1,793,1,0,793,0,0,1.2,NaN,0.841392456045272,0.841392456045272,750,1,0,congruent,0,1327.37941433637,1306.2112686553
25,104,4,514,-0.5,-0.5,-0.5,4,4,0.6,4,578,1,1,578,1,0,0.8,0.4,-0.720707911015595,-0.720707911015595,750,1,0,congruent,0.1,1719.08392771198,3158.04268375387
25,104,4,515,-0.5,-0.5,0.5,3,2,0.6,3,673,1,1,673,1,0,1,0.4,-0.03047751626777,-0.03047751626777,750,0,0,incongruent,0.1,883.837692374112,1128.73115616166
25,104,4,516,-0.5,-0.5,0,4,NaN,0.6,4,568,1,1,568,1,0,0.8,0.6,-0.793363742041682,-0.793363742041682,750,0,0,neutral,0.1,3340.70700206091,1741.71208642283
25,104,4,517,0.5,0.5,-0.5,2,2,0.6,2,915,1,0,915,0,0,0.6,NaN,1.72779359456353,1.72779359456353,750,1,0,congruent,0,4891.295367741,1521.32063267535
25,104,4,518,-0.5,-0.5,-0.5,1,1,0.4,1,924,1,0,924,0,0,0.6,0.8,1.79318384248701,1.79318384248701,750,1,0,congruent,0,709.654828767639,2243.47126813011
25,104,4,520,-0.5,0.5,0,4,NaN,0.4,4,768,1,0,768,0,0,0.4,0.4,0.659752878480055,0.659752878480055,750,0,0,neutral,0,1673.18614870155,4408.53941601683
25,104,4,521,-0.5,-0.5,-0.5,1,1,0.2,1,740,1,1,740,0,0,0.2,0.6,0.456316551607012,0.456316551607012,750,1,0,congruent,0,1472.1184929842,2511.56285858921
25,104,4,522,-0.5,0.5,-0.5,2,2,0.2,2,496,1,1,496,1,0,0,0.2,-1.31648572542951,-1.31648572542951,750,1,0,congruent,0.1,1623.65338041753,625.658684176652
25,104,4,523,0.5,-0.5,0,3,NaN,0.4,3,580,1,1,580,1,0,0.2,NaN,-0.706176744810377,-0.706176744810377,750,0,0,neutral,1,632.52668426094,1375.07112711776
25,104,4,524,0.5,0.5,-0.5,2,2,0.4,2,608,1,1,608,1,0,0.6,NaN,-0.502740417937334,-0.502740417937334,750,1,0,congruent,1,3412.10570990083,2227.46417867242
25,104,4,525,0.5,0.5,0.5,1,3,0.4,1,706,1,1,706,1,0,1,NaN,0.209286726118317,0.209286726118317,750,0,0,incongruent,1,1853.68283675569,2207.69237140695
25,104,4,526,-0.5,-0.5,0.5,4,2,0.6,4,924,1,0,924,1,0,1.4,0.4,1.79318384248701,1.79318384248701,750,0,0,incongruent,0.1,2404.86449661512,1907.67004621724
25,104,4,528,0.5,-0.5,-0.5,4,4,0.6,4,531,1,1,531,1,0,1.4,NaN,-1.0621903168382,-1.0621903168382,750,1,0,congruent,1,2175.64360796075,3612.25936022463
25,104,4,529,-0.5,0.5,0.5,3,1,0.6,3,628,1,1,628,1,0,1.4,0.4,-0.357428755885161,-0.357428755885161,750,0,0,incongruent,0.1,6625.33910949513,2065.12460635067
25,104,4,530,-0.5,0.5,0,2,NaN,0.8,2,647,1,1,647,1,0,1.2,0.6,-0.219382676935596,-0.219382676935596,750,0,0,neutral,0.1,1762.33054685805,891.895914501783
25,104,4,531,-0.5,0.5,0.5,3,2,0.8,3,557,1,1,557,1,0,1,0.6,-0.873285156170377,-0.873285156170377,750,0,0,incongruent,0.1,530.679744608326,849.89826988138
25,104,4,532,-0.5,-0.5,0.5,2,1,0.8,2,764,1,0,764,1,0,1,0.4,0.63069054606962,0.63069054606962,750,0,0,incongruent,0.1,4264.01294707502,2360.77742535191
25,104,4,534,0.5,0.5,0.5,4,3,0.8,4,665,1,1,665,1,0,1,NaN,-0.0886021810886394,-0.0886021810886394,750,0,0,incongruent,1,2657.76549713041,1368.37469069166
25,104,4,535,-0.5,-0.5,-0.5,1,1,0.8,1,479,1,1,479,1,0,1.2,0.6,-1.44000063817385,-1.44000063817385,750,1,0,congruent,0.1,659.586805199609,1558.5345763837
25,104,4,536,0.5,-0.5,0.5,4,2,0.8,4,506,1,1,506,1,0,1.2,NaN,-1.24382989440342,-1.24382989440342,750,0,0,incongruent,1,1106.19671527657,876.276830883181
25,104,4,538,-0.5,0.5,-0.5,3,3,0.8,3,753,1,0,753,0,0,1.6,0.8,0.550769131940925,0.550769131940925,750,1,0,congruent,0,1286.71526434194,4662.25196167863
25,104,4,541,0.5,-0.5,-0.5,4,4,0.6,4,588,1,1,588,0,0,1,NaN,-0.648052079989508,-0.648052079989508,750,1,0,congruent,0,2453.47556839701,2742.17101433829
25,104,4,542,0.5,-0.5,-0.5,3,3,0.6,3,526,1,1,526,1,0,0.6,NaN,-1.09851823235125,-1.09851823235125,750,1,0,congruent,1,2022.64489757895,727.756658343015
25,104,4,545,0.5,-0.5,0,1,NaN,0.6,1,636,1,1,636,1,0,0.8,NaN,-0.299304091064291,-0.299304091064291,750,0,0,neutral,1,1791.66094586542,803.77683315751
25,104,4,546,0.5,-0.5,-0.5,4,4,0.6,4,560,1,1,560,0,0,1,NaN,-0.851488406862551,-0.851488406862551,750,1,0,congruent,0,1096.00533533138,2877.0608177204
25,104,4,547,-0.5,0.5,0.5,2,3,0.6,2,829,1,0,829,0,0,1,0.6,1.10295344773918,1.10295344773918,750,0,0,incongruent,0,1345.83398096292,3000.90538841647
25,104,4,549,-0.5,0.5,0,2,NaN,0.4,2,658,1,1,658,1,0,0.6,0.4,-0.1394612628069,-0.1394612628069,750,0,0,neutral,0.1,2373.10530585138,5622.58237091738
25,104,4,550,-0.5,0.5,0.5,3,2,0.6,4,726,0,1,NaN,0,0,0.6,0.6,0.35459838817049,NaN,750,0,1,incongruent,0,1551.38933672386,1965.43159425929
25,104,4,551,0.5,0.5,0,1,NaN,0.4,1,500,1,1,500,1,0,0.2,NaN,-1.28742339301907,-1.28742339301907,750,0,0,neutral,1,4904.06695702194,1043.01239489
25,104,4,552,-0.5,-0.5,0.5,2,1,0.4,2,601,1,1,601,0,0,0.6,0.8,-0.553599499655595,-0.553599499655595,750,0,0,incongruent,0,1374.64377188394,6749.88390040795
25,104,4,553,-0.5,-0.5,-0.5,3,3,0.4,3,953,1,0,953,0,0,0.6,0.8,2.00388575246266,2.00388575246266,750,1,0,congruent,0,5072.72074744445,833.202628278387
25,104,4,554,0.5,-0.5,-0.5,4,4,0.4,4,486,1,1,486,0,0,0.6,NaN,-1.38914155645559,-1.38914155645559,750,1,0,congruent,0,1405.35332559653,802.698850512614
25,104,4,555,0.5,0.5,-0.5,1,1,0.4,1,504,1,1,504,1,0,0.4,NaN,-1.25836106060864,-1.25836106060864,750,1,0,congruent,1,4161.79014721696,799.041068222115
25,104,4,556,0.5,0.5,0.5,2,3,0.6,2,665,1,1,665,1,0,0.8,NaN,-0.0886021810886394,-0.0886021810886394,750,0,0,incongruent,1,7634.16173153763,5551.47693593837
25,104,4,557,0.5,0.5,0,4,NaN,0.8,4,623,1,1,623,1,0,0.8,NaN,-0.393756671398204,-0.393756671398204,750,0,0,neutral,1,14304.705382947,1470.78972748039
25,104,4,558,0.5,-0.5,0.5,1,4,0.8,1,676,1,1,676,1,0,1.2,NaN,-0.00868076695994393,-0.00868076695994393,750,0,0,incongruent,1,600.881847328647,1512.59661545839
25,104,4,561,-0.5,-0.5,0.5,2,1,0.6,2,735,1,1,735,0,0,1.2,0.6,0.419988636093968,0.419988636093968,750,0,0,incongruent,0,7161.57824401256,3961.64613866341
25,104,4,563,0.5,0.5,-0.5,3,3,0.6,3,724,1,1,724,1,0,0.6,NaN,0.340067221965273,0.340067221965273,750,1,0,congruent,1,9548.32995933358,6385.71044543501
25,104,4,564,-0.5,-0.5,-0.5,2,2,0.6,2,478,1,1,478,0,0,0.6,0.4,-1.44726622127646,-1.44726622127646,750,1,0,congruent,0,2218.1837120447,1974.16361353495
25,104,4,565,0.5,-0.5,-0.5,4,4,0.6,4,491,1,1,491,0,0,0.6,NaN,-1.35281364094255,-1.35281364094255,750,1,0,congruent,0,2796.77608432915,799.797370167385
25,104,4,566,0.5,0.5,0,1,NaN,0.6,1,692,1,1,692,1,0,0.6,NaN,0.107568562681795,0.107568562681795,750,0,0,neutral,1,5021.29876186997,6746.01900523302
25,104,4,567,-0.5,0.5,0.5,2,1,0.6,2,921,1,0,921,0,0,1,0.2,1.77138709317918,1.77138709317918,750,0,0,incongruent,0,1525.89936883039,691.975111155834
25,104,4,568,-0.5,0.5,0.5,3,4,0.4,4,826,0,0,NaN,0,0,0.8,0.2,1.08115669843136,NaN,750,1,0,incongruent,0,2042.12298420103,1582.39716767481
25,104,4,569,-0.5,0.5,0.5,2,1,0.4,2,815,1,0,815,0,0,0.4,0.2,1.00123528430266,1.00123528430266,750,0,0,incongruent,0,3781.71678645466,1442.43725501643
25,104,4,570,-0.5,-0.5,0,1,NaN,0.4,1,994,1,0,994,0,0,0.4,0.2,2.30177465966962,2.30177465966962,750,0,0,neutral,0,1201.21184575717,3901.47030187301
25,104,4,571,0.5,-0.5,0.5,2,1,0.4,2,847,1,0,847,1,0,0.4,NaN,1.23373394358614,1.23373394358614,750,0,0,incongruent,1,7711.46749022363,3058.67654556074
25,104,4,576,-0.5,-0.5,0,2,NaN,0,2,608,1,1,608,0,0,0.4,0.2,-0.502740417937334,-0.502740417937334,750,0,0,neutral,0,4848.31789599949,1018.65322912045
25,104,4,577,-0.5,-0.5,0.5,4,3,0,4,560,1,1,560,0,0,0,0,-0.851488406862551,-0.851488406862551,750,0,0,incongruent,0,2543.43160567132,25422.7834358384
25,104,4,578,-0.5,0.5,-0.5,1,1,0,2,608,0,1,NaN,0,0,0,0,-0.502740417937334,NaN,750,0,1,congruent,0,2087.49694678199,839.845195020982
25,104,4,579,0.5,-0.5,0.5,4,2,0,4,755,1,0,755,0,0,0,NaN,0.565300298146142,0.565300298146142,750,0,0,incongruent,0,1061.37363746029,1963.58058276877
25,104,4,580,0.5,0.5,-0.5,3,3,0,3,624,1,1,624,1,0,0,NaN,-0.386491088295595,-0.386491088295595,750,1,0,congruent,1,3042.91623620624,3170.92020277245
25,104,4,582,-0.5,-0.5,-0.5,1,1,0.2,2,912,0,0,NaN,0,0,0.4,0,1.70599684525571,NaN,750,0,1,congruent,0,4530.19743376377,3679.69158741545
25,104,4,583,0.5,0.5,-0.5,3,3,0.2,3,589,1,1,589,1,0,0.4,NaN,-0.640786496886899,-0.640786496886899,750,1,0,congruent,1,4924.01132209155,2713.29804587384
25,104,4,585,-0.5,0.5,0.5,2,3,0.4,2,716,1,1,716,1,0,0.8,0,0.281942557144403,0.281942557144403,750,0,0,incongruent,0.1,2614.66024881789,765.565156618284
25,104,4,586,0.5,0.5,0.5,1,2,0.6,1,750,1,1,750,0,0,0.6,NaN,0.528972382633099,0.528972382633099,750,0,0,incongruent,0,2506.43994881089,2823.14513028766
25,104,4,589,-0.5,-0.5,-0.5,2,2,0.4,2,550,1,1,550,0,0,0.2,0,-0.924144237888638,-0.924144237888638,750,1,0,congruent,0,3350.66234119421,2345.90285848881
25,104,4,600,-0.5,0.5,-0.5,3,3,0,3,690,1,1,690,1,0,0,0.2,0.0930373964765776,0.0930373964765776,750,1,0,congruent,0.1,849.314351317825,1942.37043485677
