subid,vers,block,trial,rewlvl,efflvl,congruency,targetresp,distractorresp,rollingefflvl,resp,rt,acc,fast,accrt,isrewarded,ismiss,runavgrrgen,runavgrrcond,zrt,acczrt,rtthreshold,isdisterror,isranderror,congruence,feedback,fcz_resp_theta,fcz_resp_theta_baseline
26,104,1,1,-0.5,-0.5,0,3,NaN,0.4,3,666,1,1,666,0,0,0,0,-0.228277115774107,-0.228277115774107,750,0,0,neutral,0,2600.11314113375,1563.99042816584
26,104,1,2,0.5,0.5,-0.5,2,2,0.4,2,606,1,1,606,1,0,0,NaN,-0.702513800707446,-0.702513800707446,750,1,0,congruent,1,1926.92663943396,1953.85378046954
26,104,1,3,0.5,0.5,-0.5,4,4,0.5,4,565,1,1,565,1,0,0.4,NaN,-1.0265755354119,-1.0265755354119,750,1,0,congruent,1,2425.48449280325,1774.21136341366
26,104,1,4,0.5,-0.5,0.5,1,2,0.6,1,515,1,1,515,0,0,0.8,NaN,-1.42177277285634,-1.42177277285634,750,0,0,incongruent,0,2496.72198192434,593.241937241629
26,104,1,5,0.5,0.5,0.5,2,4,0.6,4,976,0,0,NaN,0,0,0.8,NaN,2.22194575638148,NaN,750,1,0,incongruent,0,3940.46919473352,3201.59327446677
26,104,1,6,0.5,0.5,-0.5,1,1,0.5,1,707,1,1,707,1,0,0.8,NaN,0.0957846189303417,0.0957846189303417,750,1,0,congruent,1,3294.85677727296,895.25441211594
26,104,1,7,-0.5,-0.5,0,4,NaN,0.7,4,678,1,1,678,1,0,1.2,0,-0.133429778787439,-0.133429778787439,750,0,0,neutral,0.1,2960.35720554828,3696.00341847364
26,104,1,8,0.5,-0.5,-0.5,1,1,0.7,1,619,1,1,619,0,0,1,NaN,-0.59976251897189,-0.59976251897189,750,1,0,congruent,0,508.314209958577,2202.94705067199
26,104,1,10,-0.5,0.5,-0.5,1,1,0.7,1,681,1,1,681,1,0,0.8,0,-0.109717944540772,-0.109717944540772,750,1,0,congruent,0.1,1842.3122021193,1138.16751123877
26,104,1,11,0.5,-0.5,-0.5,3,3,0.8,4,882,0,0,NaN,1,0,1,NaN,1.47897494998592,NaN,750,0,1,congruent,1,843.537022010145,2397.24446098613
26,104,1,12,-0.5,0.5,-0.5,1,1,0.8,1,635,1,1,635,1,0,1,0.2,-0.473299402989666,-0.473299402989666,750,1,0,congruent,0.1,741.17068165641,1292.90119425099
26,104,1,13,-0.5,-0.5,0,2,NaN,0.8,2,754,1,0,754,1,0,1,0.4,0.467270022128124,0.467270022128124,750,0,0,neutral,0.1,4615.19928668629,1933.00134026797
26,104,1,14,-0.5,0.5,-0.5,3,3,0.8,3,705,1,1,705,1,0,1.2,0.4,0.0799767294325637,0.0799767294325637,750,1,0,congruent,0.1,917.589798549166,2816.95218205137
26,104,1,15,-0.5,-0.5,0.5,4,1,0.8,1,947,0,0,NaN,1,0,1.2,0.6,1.9927313586637,NaN,750,1,0,incongruent,0.1,859.419113704712,4680.52926806864
26,104,1,16,0.5,-0.5,-0.5,2,2,0.8,2,739,1,1,739,1,0,1.2,NaN,0.348710850894789,0.348710850894789,750,1,0,congruent,1,1637.46949685477,1587.00196238601
26,104,1,17,0.5,-0.5,0.5,3,1,0.8,3,766,1,0,766,1,0,1.2,NaN,0.562117359114792,0.562117359114792,750,0,0,incongruent,1,2164.83582375006,2331.0263188745
26,104,1,18,-0.5,-0.5,-0.5,4,4,0.8,4,820,1,0,820,1,0,1.4,0.8,0.988930375554798,0.988930375554798,750,1,0,congruent,0.1,2559.84169575227,1776.72067827639
26,104,1,19,-0.5,-0.5,-0.5,1,1,0.8,1,500,1,1,500,1,0,1.4,1,-1.54033194408968,-1.54033194408968,750,1,0,congruent,0.1,1225.41741235298,579.577210002524
26,104,1,21,-0.5,0.5,0,3,NaN,0.8,3,653,1,1,653,1,0,1.2,0.6,-0.331028397509664,-0.331028397509664,750,0,0,neutral,0.1,3390.94824987352,1610.76994093721
26,104,1,22,-0.5,0.5,-0.5,1,1,0.8,1,607,1,1,607,1,0,1,0.8,-0.694609855958557,-0.694609855958557,750,1,0,congruent,0.1,7173.96886320843,959.420873846016
26,104,1,24,0.5,0.5,0.5,1,2,0.6,1,637,1,1,637,1,0,0.6,NaN,-0.457491513491888,-0.457491513491888,750,0,0,incongruent,1,1407.83570858051,3453.1816118987
26,104,1,25,-0.5,0.5,-0.5,4,4,0.6,4,826,1,0,826,0,0,0.8,0.8,1.03635404404813,1.03635404404813,750,1,0,congruent,0,8274.02314522196,3545.02792599645
26,104,1,26,0.5,-0.5,-0.5,2,2,0.6,2,749,1,1,749,0,0,0.8,NaN,0.427750298383679,0.427750298383679,750,1,0,congruent,0,5668.10048245543,1829.68789071091
26,104,1,27,-0.5,-0.5,0.5,1,3,0.6,1,634,1,1,634,1,0,0.6,1,-0.481203347738555,-0.481203347738555,750,0,0,incongruent,0.1,982.452315286668,3237.54067725409
26,104,1,28,-0.5,0.5,-0.5,4,4,0.6,4,796,1,0,796,0,0,0.6,0.6,0.799235701581462,0.799235701581462,750,1,0,congruent,0,2717.13048254233,6092.65853585588
26,104,1,29,-0.5,-0.5,-0.5,1,1,0.4,1,554,1,1,554,1,0,0.6,1,-1.11351892764967,-1.11351892764967,750,1,0,congruent,0.1,540.467813691838,3062.53726772917
26,104,1,30,-0.5,-0.5,0,2,NaN,0.4,2,620,1,1,620,0,0,0.4,1,-0.591858574223001,-0.591858574223001,750,0,0,neutral,0,4618.347370526,3229.99992833452
26,104,1,31,-0.5,-0.5,-0.5,3,3,0.4,3,809,1,0,809,0,0,0.4,0.8,0.901986983317019,0.901986983317019,750,1,0,congruent,0,619.060619468113,983.69134454729
26,104,1,32,-0.5,-0.5,-0.5,4,4,0.4,4,884,1,0,884,0,0,0.4,0.6,1.49478283948369,1.49478283948369,750,1,0,congruent,0,1349.63769282221,4705.50177721201
26,104,1,33,-0.5,0.5,0,1,NaN,0.4,1,644,1,1,644,1,0,0.2,0.4,-0.402163900249665,-0.402163900249665,750,0,0,neutral,0.1,1023.70050096052,1908.42598652191
26,104,1,34,0.5,-0.5,-0.5,4,4,0.4,4,778,1,0,778,0,0,0.4,NaN,0.65696469610146,0.65696469610146,750,1,0,congruent,0,661.646961198898,1611.43278670137
26,104,1,35,-0.5,-0.5,0,2,NaN,0.4,2,658,1,1,658,0,0,0.2,0.4,-0.291508673765219,-0.291508673765219,750,0,0,neutral,0,444.822220248167,2564.30181553449
26,104,1,36,-0.5,-0.5,-0.5,3,3,0.4,3,750,1,1,750,0,0,0.2,0.2,0.435654243132568,0.435654243132568,750,1,0,congruent,0,827.098400637635,1296.57738126829
26,104,1,37,-0.5,-0.5,-0.5,1,1,0.4,1,545,1,1,545,0,0,0.2,0,-1.18465443038967,-1.18465443038967,750,1,0,congruent,0,3359.04786761455,2734.78283639528
26,104,1,38,-0.5,-0.5,-0.5,4,4,0.4,4,658,1,1,658,0,0,0.2,0,-0.291508673765219,-0.291508673765219,750,1,0,congruent,0,1805.26484103354,3711.15317295537
26,104,1,39,-0.5,-0.5,0,3,NaN,0.4,3,877,1,0,877,0,0,0,0,1.43945522624147,1.43945522624147,750,0,0,neutral,0,1547.88684158629,889.13766262699
26,104,1,40,-0.5,0.5,0.5,2,3,0.4,2,836,1,0,836,0,0,0,0.6,1.11539349153702,1.11539349153702,750,0,0,incongruent,0,1496.19822321688,1505.46210010574
26,104,1,41,0.5,-0.5,0.5,1,4,0.4,1,765,1,0,765,0,0,0,NaN,0.554213414365903,0.554213414365903,750,0,0,incongruent,0,1959.88057360329,2352.99105203934
26,104,1,42,0.5,-0.5,0.5,4,3,0.4,4,706,1,1,706,1,0,0,NaN,0.0878806741814527,0.0878806741814527,750,0,0,incongruent,1,530.602601326798,1220.5989869091
26,104,1,43,0.5,0.5,0,1,NaN,0.4,1,573,1,1,573,1,0,0.4,NaN,-0.963343977420783,-0.963343977420783,750,0,0,neutral,1,1793.27640237476,1396.78350198052
26,104,1,44,-0.5,-0.5,-0.5,3,3,0.4,3,798,1,0,798,1,0,0.8,0,0.81504359107924,0.81504359107924,750,1,0,congruent,0.1,464.48189188777,1743.72156749353
26,104,1,45,0.5,-0.5,-0.5,1,1,0.4,1,523,1,1,523,0,0,1,NaN,-1.35854121486523,-1.35854121486523,750,1,0,congruent,0,1083.00496825223,1309.94870065738
26,104,1,46,-0.5,-0.5,0.5,4,2,0.4,3,877,0,0,NaN,1,0,1,0.2,1.43945522624147,NaN,750,0,1,incongruent,0.1,3117.30902369993,3837.62524772694
26,104,1,47,0.5,0.5,0.5,2,4,0.4,2,718,1,1,718,1,0,1.2,NaN,0.182728011168121,0.182728011168121,750,0,0,incongruent,1,836.22520726199,4132.95319932631
26,104,1,48,0.5,-0.5,0.5,4,2,0.6,4,763,1,0,763,1,0,1.2,NaN,0.538405524868125,0.538405524868125,750,0,0,incongruent,1,1342.00550077562,2041.58113423406
26,104,1,49,0.5,-0.5,-0.5,3,3,0.6,3,801,1,0,801,1,0,1.2,NaN,0.838755425325907,0.838755425325907,750,1,0,congruent,1,1138.1086481063,2078.81831552099
26,104,1,50,0.5,-0.5,-0.5,4,4,0.6,4,981,1,0,981,0,0,1.4,NaN,2.26146548012593,2.26146548012593,750,1,0,congruent,0,1072.62105917827,2404.96672259723
26,104,1,52,-0.5,0.5,-0.5,2,2,0.8,2,658,1,1,658,1,0,1.6,0.4,-0.291508673765219,-0.291508673765219,750,1,0,congruent,0.1,2122.71633444319,1621.50006994529
26,104,1,53,0.5,-0.5,0.5,3,4,0.8,3,826,1,0,826,1,0,1.4,NaN,1.03635404404813,1.03635404404813,750,0,0,incongruent,1,2006.83914992475,3698.94671393273
26,104,1,54,0.5,-0.5,0.5,1,3,0.8,1,671,1,1,671,1,0,1.4,NaN,-0.188757392029662,-0.188757392029662,750,0,0,incongruent,1,1351.70303334213,2010.82779727145
26,104,1,55,0.5,0.5,-0.5,4,4,0.8,4,748,1,1,748,1,0,1.4,NaN,0.41984635363479,0.41984635363479,750,1,0,congruent,1,773.380255265055,4566.85175293944
26,104,1,56,0.5,0.5,0.5,3,2,1,3,803,1,0,803,0,0,1.8,NaN,0.854563314823685,0.854563314823685,750,0,0,incongruent,0,870.033607947418,631.156998941557
26,104,1,57,0.5,0.5,0,2,NaN,0.8,2,572,1,1,572,1,0,1.4,NaN,-0.971247922169672,-0.971247922169672,750,0,0,neutral,1,709.621611939156,977.341830571029
26,104,1,58,-0.5,0.5,-0.5,4,4,0.8,4,852,1,0,852,0,0,1.6,0.4,1.24185660751925,1.24185660751925,750,1,0,congruent,0,1389.41892262071,949.561831238598
26,104,1,59,0.5,-0.5,0.5,2,1,0.6,2,605,1,1,605,1,0,1.2,NaN,-0.710417745456335,-0.710417745456335,750,0,0,incongruent,1,1308.21082633591,3101.43286067347
26,104,1,60,0.5,0.5,0.5,4,3,0.6,4,815,1,0,815,0,0,1.2,NaN,0.949410651810353,0.949410651810353,750,0,0,incongruent,0,3150.6477486285,902.773899656428
26,104,1,62,0.5,-0.5,-0.5,4,4,0.4,4,738,1,1,738,0,0,1.2,NaN,0.3408069061459,0.3408069061459,750,1,0,congruent,0,1321.70190339966,1645.52964609566
26,104,1,63,0.5,-0.5,-0.5,3,3,0.4,3,585,1,1,585,1,0,0.8,NaN,-0.868496640434115,-0.868496640434115,750,1,0,congruent,1,3642.25265534778,1721.53228078665
26,104,1,64,-0.5,-0.5,-0.5,4,4,0.4,4,576,1,1,576,1,0,1.2,0.4,-0.939632143174116,-0.939632143174116,750,1,0,congruent,0.1,2395.88625202459,2240.82546811512
26,104,1,66,0.5,-0.5,0.5,1,3,0.4,1,675,1,1,675,0,0,1,NaN,-0.157141613034106,-0.157141613034106,750,0,0,incongruent,0,1498.55055070604,2641.38396138721
26,104,1,67,-0.5,-0.5,0.5,2,4,0.4,2,912,1,0,912,0,0,0.6,0.6,1.71609329245258,1.71609329245258,750,0,0,incongruent,0,1389.55608854009,3255.80650364669
26,104,1,68,-0.5,0.5,-0.5,1,1,0.4,1,584,1,1,584,1,0,0.6,0.4,-0.876400585183004,-0.876400585183004,750,1,0,congruent,0.1,922.025873354705,773.020705721456
26,104,1,69,0.5,-0.5,0,4,NaN,0.6,4,840,1,0,840,1,0,0.4,NaN,1.14700927053258,1.14700927053258,750,0,0,neutral,1,2889.70475368251,2057.4741673194
26,104,1,70,-0.5,-0.5,-0.5,2,2,0.6,2,649,1,1,649,0,0,0.6,0.6,-0.36264417650522,-0.36264417650522,750,1,0,congruent,0,459.196580124817,1231.91164483828
26,104,1,71,-0.5,-0.5,0,4,NaN,0.6,4,671,1,1,671,0,0,0.6,0.4,-0.188757392029662,-0.188757392029662,750,0,0,neutral,0,790.14476738118,980.292292373921
26,104,1,72,0.5,-0.5,0.5,1,4,0.6,1,615,1,1,615,1,0,0.6,NaN,-0.631378297967445,-0.631378297967445,750,0,0,incongruent,1,961.35113325366,906.547648429502
26,104,1,73,-0.5,-0.5,0.5,4,3,0.6,4,730,1,1,730,1,0,1,0.2,0.277575348154788,0.277575348154788,750,0,0,incongruent,0.1,1735.51075343472,2177.55196374204
26,104,1,74,0.5,-0.5,0,2,NaN,0.6,2,623,1,1,623,1,0,1,NaN,-0.568146739976334,-0.568146739976334,750,0,0,neutral,1,738.477822735714,1002.49743209712
26,104,1,75,-0.5,-0.5,0.5,1,3,0.6,1,679,1,1,679,0,0,1,0.2,-0.12552583403855,-0.12552583403855,750,0,0,incongruent,0,1397.26319969553,1903.32508970165
26,104,1,77,0.5,-0.5,-0.5,2,2,0.4,2,535,1,1,535,1,0,1,NaN,-1.26369387787856,-1.26369387787856,750,1,0,congruent,1,787.35481761023,1606.2630673841
26,104,1,78,0.5,0.5,-0.5,4,4,0.4,4,674,1,1,674,1,0,1,NaN,-0.165045557782995,-0.165045557782995,750,1,0,congruent,1,1456.74799828553,2964.02931933489
26,104,1,79,-0.5,0.5,-0.5,3,3,0.6,3,519,1,1,519,1,0,1.2,0.4,-1.39015699386079,-1.39015699386079,750,1,0,congruent,0.1,2270.03943570814,1657.49196554719
26,104,1,80,0.5,-0.5,-0.5,1,1,0.8,1,436,1,1,436,1,0,1,NaN,-2.04618440801857,-2.04618440801857,750,1,0,congruent,1,1294.47845871462,457.689110783316
26,104,1,82,0.5,0.5,0.5,2,1,0.6,2,607,1,1,607,1,0,1.4,NaN,-0.694609855958557,-0.694609855958557,750,0,0,incongruent,1,1116.57386954799,2008.47587048699
26,104,1,84,-0.5,-0.5,0.5,3,1,0.6,3,676,1,1,676,0,0,1.4,0.2,-0.149237668285217,-0.149237668285217,750,0,0,incongruent,0,2766.60934103675,5086.19089995811
26,104,1,85,0.5,-0.5,-0.5,2,2,0.6,2,529,1,1,529,1,0,1.2,NaN,-1.3111175463719,-1.3111175463719,750,1,0,congruent,1,7245.06390543716,696.742841175788
26,104,1,86,-0.5,0.5,0,1,NaN,0.6,1,567,1,1,567,1,0,1.2,0.6,-1.01076764591412,-1.01076764591412,750,0,0,neutral,0.1,3792.74395857394,941.420562559268
26,104,1,87,-0.5,-0.5,0.5,2,4,0.8,4,677,0,1,NaN,0,0,1.4,0.2,-0.141333723536328,NaN,750,1,0,incongruent,0,4169.67725070104,2226.64316425367
26,104,1,88,0.5,0.5,-0.5,3,3,0.8,3,841,1,0,841,0,0,1,NaN,1.15491321528147,1.15491321528147,750,1,0,congruent,0,1187.62941463436,1900.84586111596
26,104,1,89,-0.5,-0.5,0,4,NaN,0.6,4,658,1,1,658,1,0,0.6,0.2,-0.291508673765219,-0.291508673765219,750,0,0,neutral,0.1,1900.89724613937,2188.51542933012
26,104,1,90,0.5,-0.5,0.5,3,4,0.6,3,767,1,0,767,0,0,0.8,NaN,0.570021303863681,0.570021303863681,750,0,0,incongruent,0,2460.50563771717,2286.38597141513
26,104,1,91,0.5,0.5,0.5,1,3,0.6,1,672,1,1,672,1,0,0.4,NaN,-0.180853447280773,-0.180853447280773,750,0,0,incongruent,1,1501.28303917068,1891.04390806106
26,104,1,93,-0.5,-0.5,0,2,NaN,0.6,2,822,1,0,822,1,0,0.6,0.4,1.00473826505258,1.00473826505258,750,0,0,neutral,0.1,1499.13103800521,2017.26458129742
26,104,1,94,0.5,0.5,0.5,1,2,0.6,1,673,1,1,673,1,0,0.8,NaN,-0.172949502531884,-0.172949502531884,750,0,0,incongruent,1,1485.72746416868,1821.08738958736
26,104,1,95,-0.5,0.5,0.5,2,4,0.6,2,729,1,1,729,1,0,1,0.6,0.269671403405899,0.269671403405899,750,0,0,incongruent,0.1,686.967931366729,2791.44973135744
26,104,1,97,-0.5,-0.5,-0.5,1,1,0.6,1,577,1,1,577,1,0,0.8,0.4,-0.931728198425227,-0.931728198425227,750,1,0,congruent,0.1,1349.54744341998,2518.34648611111
26,104,1,98,0.5,-0.5,-0.5,4,4,0.6,4,685,1,1,685,0,0,1,NaN,-0.0781021655452161,-0.0781021655452161,750,1,0,congruent,0,656.826141632017,2171.34802409828
26,104,1,99,0.5,0.5,-0.5,1,1,0.6,1,692,1,1,692,1,0,0.8,NaN,-0.0227745523029932,-0.0227745523029932,750,1,0,congruent,1,488.171220343874,3206.95513169695
26,104,1,100,0.5,0.5,-0.5,3,3,0.8,3,706,1,1,706,1,0,0.8,NaN,0.0878806741814527,0.0878806741814527,750,1,0,congruent,1,2683.19318535096,1608.21345022505
26,104,1,101,0.5,-0.5,0,1,NaN,0.8,1,627,1,1,627,1,0,1,NaN,-0.536530960980778,-0.536530960980778,750,0,0,neutral,1,1358.44017359103,1146.6833530643
26,104,1,102,-0.5,-0.5,-0.5,3,3,0.8,3,791,1,0,791,0,0,1.4,0.6,0.759715977837017,0.759715977837017,750,1,0,congruent,0,2015.90623051933,8266.06606708237
26,104,1,104,0.5,0.5,-0.5,1,1,0.8,1,589,1,1,589,1,0,1.6,NaN,-0.836880861438559,-0.836880861438559,750,1,0,congruent,1,1340.75136164086,1588.94591072681
26,104,1,105,-0.5,0.5,-0.5,4,4,1,4,725,1,1,725,1,0,1.6,0.6,0.238055624410344,0.238055624410344,750,1,0,congruent,0.1,1973.34071913415,3530.41942089836
26,104,1,106,-0.5,-0.5,-0.5,3,3,1,3,696,1,1,696,1,0,1.4,0.6,0.00884122669256277,0.00884122669256277,750,1,0,congruent,0.1,411.128675275764,6494.1099029779
26,104,1,108,0.5,-0.5,0,3,NaN,1,3,594,1,1,594,1,0,1.6,NaN,-0.797361137694114,-0.797361137694114,750,0,0,neutral,1,2411.85726294905,1865.42687245782
26,104,1,109,-0.5,0.5,-0.5,4,4,1,4,816,1,0,816,0,0,1.6,0.8,0.957314596559242,0.957314596559242,750,1,0,congruent,0,929.343155396204,4908.59851483445
26,104,1,110,0.5,-0.5,0,1,NaN,0.8,1,678,1,1,678,1,0,1.2,NaN,-0.133429778787439,-0.133429778787439,750,0,0,neutral,1,1516.96120405475,3442.68744320577
26,104,1,111,0.5,0.5,-0.5,2,2,0.8,2,701,1,1,701,1,0,1.4,NaN,0.0483609504370077,0.0483609504370077,750,1,0,congruent,1,462.522570479187,5203.15832998537
26,104,1,112,-0.5,-0.5,-0.5,1,1,0.8,1,640,1,1,640,1,0,1.6,0.8,-0.433779679245221,-0.433779679245221,750,1,0,congruent,0.1,1954.80044003359,218.545007138676
26,104,1,114,0.5,0.5,0.5,1,3,0.6,1,803,1,0,803,0,0,1,NaN,0.854563314823685,0.854563314823685,750,0,0,incongruent,0,1705.99899659788,3561.18252739752
26,104,1,115,0.5,-0.5,-0.5,2,2,0.4,2,843,1,0,843,1,0,1,NaN,1.17072110477924,1.17072110477924,750,1,0,congruent,1,2168.00276269883,2717.64084269885
26,104,1,116,-0.5,0.5,-0.5,1,1,0.4,1,685,1,1,685,1,0,1,0.4,-0.0781021655452161,-0.0781021655452161,750,1,0,congruent,0.1,1216.82846281038,2828.82528218262
26,104,1,117,-0.5,0.5,0,3,NaN,0.4,3,774,1,0,774,0,0,0.8,0.6,0.625348917105904,0.625348917105904,750,0,0,neutral,0,2344.532429074,1251.58105504127
26,104,1,118,-0.5,0.5,-0.5,2,2,0.4,2,626,1,1,626,1,0,0.6,0.4,-0.544434905729667,-0.544434905729667,750,1,0,congruent,0.1,522.891308920231,1979.96402481725
26,104,1,119,-0.5,-0.5,0,1,NaN,0.4,1,534,1,1,534,0,0,0.8,0.8,-1.27159782262745,-1.27159782262745,750,0,0,neutral,0,1259.89696146174,710.666496852584
26,104,1,120,0.5,-0.5,-0.5,4,4,0.4,4,727,1,1,727,0,0,0.8,NaN,0.253863513908122,0.253863513908122,750,1,0,congruent,0,765.408662096897,2012.01375146166
26,104,1,121,-0.5,-0.5,-0.5,3,3,0.4,3,824,1,0,824,0,0,0.4,0.6,1.02054615455035,1.02054615455035,750,1,0,congruent,0,922.300948290394,1524.26323127451
26,104,1,122,-0.5,-0.5,-0.5,1,1,0.4,1,564,1,1,564,1,0,0.2,0.4,-1.03447948016078,-1.03447948016078,750,1,0,congruent,0.1,832.800282095982,1803.9236439199
26,104,1,124,0.5,-0.5,0.5,2,3,0.4,3,949,0,0,NaN,0,0,0.2,NaN,2.00853924816148,NaN,750,1,0,incongruent,0,5117.73956109901,3900.87732745439
26,104,1,125,0.5,-0.5,-0.5,1,1,0.4,1,517,1,1,517,0,0,0.2,NaN,-1.40596488335857,-1.40596488335857,750,1,0,congruent,0,895.462898339668,1219.61595054207
26,104,1,126,0.5,-0.5,0.5,3,2,0.4,3,878,1,0,878,0,0,0.2,NaN,1.44735917099036,1.44735917099036,750,0,0,incongruent,0,816.886381580142,1640.31661143279
26,104,1,127,-0.5,0.5,0,1,NaN,0.4,1,525,1,1,525,1,0,0.2,0.4,-1.34273332536745,-1.34273332536745,750,0,0,neutral,0.1,1209.06138712488,927.098648915391
26,104,1,128,0.5,0.5,-0.5,2,2,0.6,2,683,1,1,683,1,0,0.2,NaN,-0.0939100550429941,-0.0939100550429941,750,1,0,congruent,1,2337.35260663063,3321.28679047473
26,104,1,129,-0.5,0.5,0,4,NaN,0.8,4,819,1,0,819,0,0,0.6,0.6,0.981026430805909,0.981026430805909,750,0,0,neutral,0,5194.42250949275,1355.03963757032
26,104,1,130,-0.5,0.5,-0.5,3,3,0.6,3,516,1,1,516,1,0,0.6,0.6,-1.41386882810746,-1.41386882810746,750,1,0,congruent,0.1,1775.91196717145,1720.90138832076
26,104,1,131,-0.5,-0.5,0.5,2,1,0.8,2,918,1,0,918,0,0,0.8,0.4,1.76351696094592,1.76351696094592,750,0,0,incongruent,0,2069.86886001633,2858.18626085403
26,104,1,132,-0.5,0.5,-0.5,4,4,0.8,3,606,0,1,NaN,0,0,0.8,0.6,-0.702513800707446,NaN,750,0,1,congruent,0,1838.18280016707,1540.97262493998
26,104,1,133,-0.5,-0.5,0.5,2,3,0.6,2,607,1,1,607,0,0,0.6,0.2,-0.694609855958557,-0.694609855958557,750,0,0,incongruent,0,1526.61151901979,5281.41234710477
26,104,1,134,0.5,0.5,0,4,NaN,0.6,4,849,1,0,849,0,0,0.2,NaN,1.21814477327258,1.21814477327258,750,0,0,neutral,0,1351.13878102357,1721.77865229326
26,104,1,135,-0.5,-0.5,0.5,1,4,0.4,1,707,1,1,707,0,0,0.2,0.2,0.0957846189303417,0.0957846189303417,750,0,0,incongruent,0,849.647128178136,570.016778686125
26,104,1,136,-0.5,-0.5,0.5,2,1,0.4,2,690,1,1,690,1,0,0,0.2,-0.0385824418007712,-0.0385824418007712,750,0,0,incongruent,0.1,1455.02164561572,460.032322462898
26,104,1,137,0.5,0.5,0.5,1,4,0.4,1,723,1,1,723,1,0,0.2,NaN,0.222247734912566,0.222247734912566,750,0,0,incongruent,1,1029.33535429583,2608.98953920908
26,104,1,138,0.5,-0.5,0,2,NaN,0.4,2,560,1,1,560,0,0,0.6,NaN,-1.06609525915634,-1.06609525915634,750,0,0,neutral,0,653.849067050509,3705.62517245388
26,104,1,139,0.5,0.5,-0.5,1,1,0.4,1,544,1,1,544,1,0,0.6,NaN,-1.19255837513856,-1.19255837513856,750,1,0,congruent,1,2342.99541962921,4288.02059308669
26,104,1,140,0.5,0.5,-0.5,4,4,0.6,4,721,1,1,721,1,0,1,NaN,0.206439845414788,0.206439845414788,750,1,0,congruent,1,2856.97928923217,1196.30146238665
26,104,1,141,0.5,0.5,-0.5,3,3,0.6,3,555,1,1,555,1,0,1.4,NaN,-1.10561498290078,-1.10561498290078,750,1,0,congruent,1,1628.65858771393,2516.24949965304
26,104,1,142,-0.5,0.5,0,2,NaN,0.8,1,727,0,1,NaN,0,0,1.6,0.6,0.253863513908122,NaN,750,0,1,neutral,0,5678.38335331327,2524.86004956187
26,104,1,143,0.5,0.5,-0.5,1,1,0.8,1,611,1,1,611,1,0,1.2,NaN,-0.662994076963001,-0.662994076963001,750,1,0,congruent,1,500.274581083109,401.239714891287
26,104,1,144,-0.5,0.5,-0.5,2,2,0.8,2,608,1,1,608,1,0,1.6,0.4,-0.686705911209668,-0.686705911209668,750,1,0,congruent,0.1,4221.84127524259,1294.65716866301
26,104,1,145,0.5,0.5,0.5,3,1,0.8,3,864,1,0,864,0,0,1.4,NaN,1.33670394450591,1.33670394450591,750,0,0,incongruent,0,1625.28590066932,1252.12399881309
26,104,1,146,-0.5,0.5,-0.5,2,2,0.6,2,601,1,1,601,1,0,1,0.4,-0.742033524451891,-0.742033524451891,750,1,0,congruent,0.1,3693.53311292891,7160.46859989706
26,104,1,147,-0.5,-0.5,0.5,4,1,0.6,4,733,1,1,733,0,0,0.8,0.2,0.301287182401455,0.301287182401455,750,0,0,incongruent,0,760.244339753755,3781.62966312726
26,104,1,148,-0.5,-0.5,-0.5,3,3,0.6,3,746,1,1,746,0,0,0.8,0.2,0.404038464137012,0.404038464137012,750,1,0,congruent,0,426.942392344064,2771.28030164533
26,104,1,149,-0.5,-0.5,0,2,NaN,0.6,2,678,1,1,678,0,0,0.4,0.2,-0.133429778787439,-0.133429778787439,750,0,0,neutral,0,1198.0814172227,585.974955638801
26,104,1,150,0.5,0.5,0.5,3,2,0.6,3,922,1,0,922,0,0,0.2,NaN,1.79513273994147,1.79513273994147,750,0,0,incongruent,0,4901.26896813221,1195.70470092705
26,104,2,151,-0.5,0.5,-0.5,4,4,0.6,4,818,1,0,818,0,0,0.2,0.6,0.97312248605702,0.97312248605702,750,1,0,congruent,0,802.927458323098,2815.57564118963
26,104,2,152,0.5,0.5,-0.5,2,2,0.4,2,566,1,1,566,1,0,0,NaN,-1.01867159066301,-1.01867159066301,750,1,0,congruent,1,737.75420264508,864.970174455028
26,104,2,153,-0.5,0.5,-0.5,4,4,0.4,4,598,1,1,598,1,0,0.4,0.4,-0.765745358698558,-0.765745358698558,750,1,0,congruent,0.1,1308.07796242772,2856.11623275936
26,104,2,154,0.5,-0.5,0.5,3,1,0.6,3,779,1,0,779,1,0,0.6,NaN,0.664868640850349,0.664868640850349,750,0,0,incongruent,1,1706.2751090529,4022.10147363308
26,104,2,155,-0.5,-0.5,0,2,NaN,0.6,2,573,1,1,573,0,0,1,0.2,-0.963343977420783,-0.963343977420783,750,0,0,neutral,0,1726.23342425034,1783.41180457065
26,104,2,156,-0.5,0.5,-0.5,1,1,0.6,1,597,1,1,597,1,0,1,0.6,-0.773649303447447,-0.773649303447447,750,1,0,congruent,0.1,1473.99635531525,1265.11983981112
26,104,2,159,0.5,-0.5,0.5,2,1,0.6,2,711,1,1,711,1,0,0.6,NaN,0.127400397925898,0.127400397925898,750,0,0,incongruent,1,1984.47668264773,1596.88381357089
26,104,2,160,-0.5,0.5,-0.5,3,3,0.6,3,513,1,1,513,1,0,0.6,0.8,-1.43758066235412,-1.43758066235412,750,1,0,congruent,0.1,449.189158582089,1166.88508737616
26,104,2,162,-0.5,0.5,0,4,NaN,0.8,4,834,1,0,834,0,0,0.8,0.8,1.09958560203924,1.09958560203924,750,0,0,neutral,0,534.812480169822,3229.28588133657
26,104,2,163,-0.5,-0.5,-0.5,3,3,0.6,3,682,1,1,682,0,0,0.8,0.2,-0.101813999791883,-0.101813999791883,750,1,0,congruent,0,1676.13747072905,2123.92177975253
26,104,2,164,-0.5,0.5,-0.5,4,4,0.6,4,624,1,1,624,1,0,0.8,0.6,-0.560242795227445,-0.560242795227445,750,1,0,congruent,0.1,2250.00803674471,1628.21769715955
26,104,2,165,0.5,-0.5,-0.5,3,3,0.6,3,646,1,1,646,0,0,0.6,NaN,-0.386356010751887,-0.386356010751887,750,1,0,congruent,0,990.422717514578,2337.87054039783
26,104,2,166,-0.5,0.5,0.5,1,2,0.6,1,805,1,0,805,0,0,0.4,0.8,0.870371204321463,0.870371204321463,750,0,0,incongruent,0,767.737399710935,1416.28671628973
26,104,2,167,0.5,0.5,0.5,4,3,0.4,4,925,1,0,925,0,0,0.2,NaN,1.81884457418814,1.81884457418814,750,0,0,incongruent,0,1653.36913769156,1050.22238064739
26,104,2,168,0.5,-0.5,0,1,NaN,0.4,1,747,1,1,747,0,0,0.2,NaN,0.411942408885901,0.411942408885901,750,0,0,neutral,0,587.565621761785,3534.324063435
26,104,2,169,-0.5,0.5,-0.5,2,2,0.4,2,535,1,1,535,1,0,0.2,0.6,-1.26369387787856,-1.26369387787856,750,1,0,congruent,0.1,6486.78709042358,4360.02697729344
26,104,2,170,0.5,0.5,0,1,NaN,0.4,1,666,1,1,666,1,0,0.2,NaN,-0.228277115774107,-0.228277115774107,750,0,0,neutral,1,1507.56265460903,1776.95706160207
26,104,2,171,0.5,-0.5,-0.5,4,4,0.6,4,712,1,1,712,0,0,0.6,NaN,0.135304342674787,0.135304342674787,750,1,0,congruent,0,1772.85901332951,1975.92003162726
26,104,2,172,-0.5,-0.5,0,1,NaN,0.6,1,563,1,1,563,1,0,0.6,0.2,-1.04238342490967,-1.04238342490967,750,0,0,neutral,0.1,825.072347207097,3043.73521058848
26,104,2,173,0.5,-0.5,-0.5,2,2,0.6,2,690,1,1,690,1,0,0.8,NaN,-0.0385824418007712,-0.0385824418007712,750,1,0,congruent,1,676.699405458673,766.013242492984
26,104,2,174,0.5,0.5,0,4,NaN,0.6,4,783,1,0,783,0,0,1.2,NaN,0.696484419845905,0.696484419845905,750,0,0,neutral,0,1980.4342676476,1749.77405825867
26,104,2,175,0.5,0.5,-0.5,2,2,0.4,2,614,1,1,614,1,0,1,NaN,-0.639282242716334,-0.639282242716334,750,1,0,congruent,1,1390.91267143917,3927.47139398131
26,104,2,176,-0.5,0.5,0,3,NaN,0.6,3,716,1,1,716,1,0,1,0.6,0.166920121670343,0.166920121670343,750,0,0,neutral,0.1,835.182479660001,1235.90457276657
26,104,2,177,0.5,0.5,-0.5,1,1,0.8,1,640,1,1,640,1,0,1.2,NaN,-0.433779679245221,-0.433779679245221,750,1,0,congruent,1,1526.8045579264,1797.53848432331
26,104,2,178,0.5,-0.5,-0.5,3,3,0.8,3,716,1,1,716,1,0,1.4,NaN,0.166920121670343,0.166920121670343,750,1,0,congruent,1,1254.4941074933,988.530385125375
26,104,2,179,-0.5,0.5,0,1,NaN,0.8,1,625,1,1,625,1,0,1.4,0.6,-0.552338850478556,-0.552338850478556,750,0,0,neutral,0.1,1340.49815335983,2330.84002511877
26,104,2,180,0.5,-0.5,-0.5,3,3,0.8,3,587,1,1,587,1,0,1.6,NaN,-0.852688750936337,-0.852688750936337,750,1,0,congruent,1,1382.01870050877,3233.80785074789
26,104,2,181,0.5,0.5,0,1,NaN,0.8,1,612,1,1,612,1,0,1.6,NaN,-0.655090132214112,-0.655090132214112,750,0,0,neutral,1,3000.05529273807,5097.55020460586
26,104,2,182,0.5,-0.5,0.5,3,1,1,3,706,1,1,706,1,0,1.8,NaN,0.0878806741814527,0.0878806741814527,750,0,0,incongruent,1,804.588128303734,2465.98608902695
26,104,2,183,0.5,-0.5,0,4,NaN,1,4,583,1,1,583,1,0,1.8,NaN,-0.884304529931893,-0.884304529931893,750,0,0,neutral,1,4153.71230018623,2150.55371040604
26,104,2,184,-0.5,0.5,-0.5,2,2,1,2,738,1,1,738,1,0,1.8,0.8,0.3408069061459,0.3408069061459,750,1,0,congruent,0.1,1868.31629736293,5519.27898821576
26,104,2,185,-0.5,0.5,-0.5,4,4,1,4,598,1,1,598,1,0,1.8,0.8,-0.765745358698558,-0.765745358698558,750,1,0,congruent,0.1,1555.19473225462,4327.59032245659
26,104,2,186,0.5,0.5,0.5,1,3,1,1,520,1,1,520,1,0,1.6,NaN,-1.3822530491119,-1.3822530491119,750,0,0,incongruent,1,485.540159578219,2634.30408689058
26,104,2,187,-0.5,0.5,0,2,NaN,1,2,595,1,1,595,1,0,1.6,1,-0.789457192945225,-0.789457192945225,750,0,0,neutral,0.1,5700.59510129407,1841.64058890278
26,104,2,188,0.5,0.5,-0.5,3,3,1,3,668,1,1,668,1,0,1.4,NaN,-0.212469226276329,-0.212469226276329,750,1,0,congruent,1,4114.78677710227,1680.10080397968
26,104,2,189,0.5,0.5,0,4,NaN,1,4,694,1,1,694,1,0,1.4,NaN,-0.00696666280521522,-0.00696666280521522,750,0,0,neutral,1,3807.5760358682,4174.27451209536
26,104,2,190,-0.5,-0.5,-0.5,1,1,1,1,654,1,1,654,1,0,1.6,0.4,-0.323124452760775,-0.323124452760775,750,1,0,congruent,0.1,1248.28382130517,4501.60887083892
26,104,2,192,0.5,0.5,-0.5,2,2,1,2,567,1,1,567,1,0,1.6,NaN,-1.01076764591412,-1.01076764591412,750,1,0,congruent,1,1155.43626220594,4219.17867464871
26,104,2,193,-0.5,0.5,0.5,4,1,1,4,739,1,1,739,1,0,1.8,1,0.348710850894789,0.348710850894789,750,0,0,incongruent,0.1,5004.2126249682,2388.96757641198
26,104,2,194,0.5,0.5,0.5,1,2,1,1,508,1,1,508,1,0,1.6,NaN,-1.47710038609857,-1.47710038609857,750,0,0,incongruent,1,1130.45836985407,2343.55648128069
26,104,2,195,-0.5,0.5,0,4,NaN,1,4,529,1,1,529,1,0,1.6,1,-1.3111175463719,-1.3111175463719,750,0,0,neutral,0.1,259.32067965394,801.29237168166
26,104,2,196,0.5,0.5,-0.5,3,3,1,3,587,1,1,587,1,0,1.6,NaN,-0.852688750936337,-0.852688750936337,750,1,0,congruent,1,1192.81276325601,1044.62311037555
26,104,2,197,0.5,-0.5,-0.5,4,4,1,4,547,1,1,547,1,0,1.6,NaN,-1.1688465408919,-1.1688465408919,750,1,0,congruent,1,1075.46594388011,2178.39819689402
26,104,2,198,0.5,-0.5,-0.5,2,2,1,2,748,1,1,748,1,0,1.6,NaN,0.41984635363479,0.41984635363479,750,1,0,congruent,1,1172.18972460168,2375.66633844381
26,104,2,199,-0.5,-0.5,0,1,NaN,1,1,577,1,1,577,1,0,1.8,0.6,-0.931728198425227,-0.931728198425227,750,0,0,neutral,0.1,1320.23839718988,1563.28470746708
26,104,2,200,-0.5,-0.5,-0.5,3,3,1,4,598,0,1,NaN,1,0,1.6,0.8,-0.765745358698558,NaN,750,0,1,congruent,0.1,2413.26106257521,4396.41625380344
26,104,2,201,-0.5,-0.5,0.5,2,1,1,2,644,1,1,644,1,0,1.6,0.8,-0.402163900249665,-0.402163900249665,750,0,0,incongruent,0.1,3161.30505558219,1927.42107593616
26,104,2,202,-0.5,0.5,-0.5,3,3,1,3,726,1,1,726,1,0,1.4,1,0.245959569159233,0.245959569159233,750,1,0,congruent,0.1,4108.92757197191,1663.90500794064
26,104,2,203,-0.5,0.5,-0.5,2,2,1,2,734,1,1,734,1,0,1.2,1,0.309191127150344,0.309191127150344,750,1,0,congruent,0.1,576.851983225759,3688.7622946352
26,104,2,204,0.5,-0.5,-0.5,3,3,1,3,680,1,1,680,1,0,1,NaN,-0.117621889289661,-0.117621889289661,750,1,0,congruent,1,959.02664970039,1397.0035629609
26,104,2,205,-0.5,0.5,0,1,NaN,1,1,634,1,1,634,1,0,1.2,1,-0.481203347738555,-0.481203347738555,750,0,0,neutral,0.1,1613.98268261543,1662.882776198
26,104,2,206,-0.5,-0.5,-0.5,4,4,1,4,965,1,0,965,1,0,1.2,1,2.1350023641437,2.1350023641437,750,1,0,congruent,0.1,1373.37239837623,3076.02420275329
26,104,2,208,0.5,0.5,0,4,NaN,0.8,4,746,1,1,746,1,0,1,NaN,0.404038464137012,0.404038464137012,750,0,0,neutral,1,355.992502169733,1920.29106959444
26,104,2,209,0.5,0.5,-0.5,1,1,0.8,1,598,1,1,598,1,0,1.2,NaN,-0.765745358698558,-0.765745358698558,750,1,0,congruent,1,604.968102443106,1379.87756396711
26,104,2,210,-0.5,-0.5,0.5,3,4,0.8,3,856,1,0,856,1,0,1.2,1,1.2734723865148,1.2734723865148,750,0,0,incongruent,0.1,739.030819982542,2623.72894500663
26,104,2,211,-0.5,-0.5,0,4,NaN,0.8,3,707,0,1,NaN,1,0,1.2,1,0.0957846189303417,NaN,750,0,1,neutral,0.1,1840.80866210578,2713.0417156702
26,104,2,212,-0.5,0.5,-0.5,3,3,0.8,3,825,1,0,825,0,0,1.2,1,1.02845009929924,1.02845009929924,750,1,0,congruent,0,1578.63469580127,2574.99317694417
26,104,2,213,-0.5,-0.5,-0.5,2,2,0.6,2,885,1,0,885,0,0,1.2,1,1.50268678423258,1.50268678423258,750,1,0,congruent,0,1516.11060099994,2285.91306175444
26,104,2,214,0.5,0.5,0,3,NaN,0.6,3,677,1,1,677,1,0,0.8,NaN,-0.141333723536328,-0.141333723536328,750,0,0,neutral,1,1058.44022139601,1002.2296266765
26,104,2,215,0.5,0.5,-0.5,1,1,0.6,1,584,1,1,584,1,0,0.8,NaN,-0.876400585183004,-0.876400585183004,750,1,0,congruent,1,1499.899215477,1632.20037345024
26,104,2,216,0.5,0.5,-0.5,2,2,0.8,2,669,1,1,669,1,0,1,NaN,-0.20456528152744,-0.20456528152744,750,1,0,congruent,1,1311.68238703785,2197.56932808633
26,104,2,217,-0.5,-0.5,0.5,1,3,0.8,1,732,1,1,732,1,0,1.2,0.8,0.293383237652566,0.293383237652566,750,0,0,incongruent,0.1,1446.17483816653,3999.5626127431
26,104,2,218,0.5,-0.5,-0.5,2,2,0.8,2,596,1,1,596,1,0,1.4,NaN,-0.781553248196336,-0.781553248196336,750,1,0,congruent,1,1364.51819597971,1491.71646877588
26,104,2,219,-0.5,0.5,0,4,NaN,0.8,4,639,1,1,639,1,0,1.8,0.8,-0.44168362399411,-0.44168362399411,750,0,0,neutral,0.1,2021.79397332729,1181.77164153808
26,104,2,220,0.5,-0.5,-0.5,3,3,0.8,3,615,1,1,615,0,0,1.6,NaN,-0.631378297967445,-0.631378297967445,750,1,0,congruent,0,1249.81362339641,2283.76969983448
26,104,2,221,-0.5,0.5,-0.5,2,2,0.8,2,752,1,0,752,0,0,1.2,0.8,0.451462132630346,0.451462132630346,750,1,0,congruent,0,1546.32390913154,2124.47076591295
26,104,2,222,-0.5,0.5,-0.5,1,1,0.8,1,462,1,1,462,1,0,0.8,0.6,-1.84068184454746,-1.84068184454746,750,1,0,congruent,0.1,1370.62360274353,461.711807625494
26,104,2,223,-0.5,-0.5,0,2,NaN,0.8,2,661,1,1,661,0,0,0.8,0.8,-0.267796839518552,-0.267796839518552,750,0,0,neutral,0,521.395000951996,2348.45068118551
26,104,2,224,-0.5,0.5,-0.5,3,3,0.8,3,714,1,1,714,1,0,0.4,0.6,0.151112232172565,0.151112232172565,750,1,0,congruent,0.1,1252.71931669534,2026.02151981259
26,104,2,225,-0.5,-0.5,0,1,NaN,0.8,1,608,1,1,608,1,0,0.4,0.6,-0.686705911209668,-0.686705911209668,750,0,0,neutral,0.1,2733.47308489498,2591.63327871885
26,104,2,227,-0.5,0.5,0,4,NaN,0.8,4,517,1,1,517,1,0,1,0.6,-1.40596488335857,-1.40596488335857,750,0,0,neutral,0.1,1050.61724477998,1015.74081219876
26,104,2,228,0.5,-0.5,-0.5,3,3,0.8,3,654,1,1,654,1,0,1,NaN,-0.323124452760775,-0.323124452760775,750,1,0,congruent,1,442.422371316258,6665.61230824899
26,104,2,229,0.5,0.5,0.5,1,4,0.8,1,467,1,1,467,1,0,1.4,NaN,-1.80116212080302,-1.80116212080302,750,0,0,incongruent,1,1746.04208273747,341.060662961843
26,104,2,230,-0.5,-0.5,-0.5,2,2,1,2,657,1,1,657,1,0,1.6,0.6,-0.299412618514108,-0.299412618514108,750,1,0,congruent,0.1,2622.21678916547,2285.4762890424
26,104,2,231,-0.5,-0.5,0,3,NaN,1,3,493,1,1,493,1,0,1.6,0.6,-1.5956595573319,-1.5956595573319,750,0,0,neutral,0.1,1336.85102004323,1670.27245716503
26,104,2,232,-0.5,-0.5,-0.5,1,1,1,1,508,1,1,508,1,0,1.4,0.8,-1.47710038609857,-1.47710038609857,750,1,0,congruent,0.1,1801.45059537295,937.804264509457
26,104,2,233,-0.5,-0.5,-0.5,4,4,1,4,543,1,1,543,1,0,1.4,0.8,-1.20046231988745,-1.20046231988745,750,1,0,congruent,0.1,1211.96545209284,2789.03327031886
26,104,2,234,-0.5,-0.5,0.5,3,2,1,3,698,1,1,698,1,0,1.2,1,0.0246491161903407,0.0246491161903407,750,0,0,incongruent,0.1,2904.64369478802,4751.21977782592
26,104,2,235,0.5,-0.5,0,4,NaN,1,4,709,1,1,709,1,0,1,NaN,0.11159250842812,0.11159250842812,750,0,0,neutral,1,2715.58734089581,2068.89411812468
26,104,2,236,0.5,0.5,0.5,2,3,1,2,769,1,0,769,0,0,1.2,NaN,0.585829193361459,0.585829193361459,750,0,0,incongruent,0,1474.74826781378,883.768322558175
26,104,2,237,0.5,0.5,0,4,NaN,0.8,4,798,1,0,798,0,0,1,NaN,0.81504359107924,0.81504359107924,750,0,0,neutral,0,361.818142805281,4895.10647587228
26,104,2,238,-0.5,-0.5,0.5,1,4,0.6,1,654,1,1,654,1,0,0.8,1,-0.323124452760775,-0.323124452760775,750,0,0,incongruent,0.1,682.167197161747,2198.75783167738
26,104,2,239,-0.5,0.5,0.5,4,2,0.6,4,563,1,1,563,1,0,0.8,0.8,-1.04238342490967,-1.04238342490967,750,0,0,incongruent,0.1,625.166854032792,1493.20019900335
26,104,2,240,-0.5,0.5,-0.5,3,3,0.6,3,449,1,1,449,1,0,0.8,0.8,-1.94343312628302,-1.94343312628302,750,1,0,congruent,0.1,1329.87285478489,1205.90858042675
26,104,2,241,-0.5,-0.5,-0.5,2,2,0.6,2,427,1,1,427,1,0,0.6,1,-2.11731991075858,-2.11731991075858,750,1,0,congruent,0.1,818.518545734165,683.868918530233
26,104,2,242,-0.5,-0.5,-0.5,4,4,0.6,4,658,1,1,658,1,0,0.8,1,-0.291508673765219,-0.291508673765219,750,1,0,congruent,0.1,1809.98710078615,1630.75584743693
26,104,2,243,-0.5,-0.5,0,3,NaN,0.6,3,668,1,1,668,1,0,1,1,-0.212469226276329,-0.212469226276329,750,0,0,neutral,0.1,528.474906912234,1042.33361438196
26,104,2,244,-0.5,0.5,0.5,1,3,0.6,1,437,1,1,437,1,0,1,1,-2.03828046326969,-2.03828046326969,750,0,0,incongruent,0.1,893.219923826807,1223.58823849826
26,104,2,245,0.5,-0.5,0,4,NaN,0.6,4,685,1,1,685,1,0,1,NaN,-0.0781021655452161,-0.0781021655452161,750,0,0,neutral,1,849.904473142402,2587.36735668516
26,104,2,246,-0.5,-0.5,0.5,3,1,0.6,3,799,1,0,799,0,0,1.2,1,0.822947535828129,0.822947535828129,750,0,0,incongruent,0,2660.70883888512,3039.70200703935
26,104,2,247,0.5,-0.5,-0.5,4,4,0.6,4,650,1,1,650,0,0,1,NaN,-0.354740231756331,-0.354740231756331,750,1,0,congruent,0,1297.2766503257,459.058048767472
26,104,2,248,-0.5,0.5,-0.5,2,2,0.6,3,987,0,0,NaN,0,0,0.8,1,2.30888914861926,NaN,750,0,1,congruent,0,3917.12046583015,1230.04526342939
26,104,2,249,0.5,0.5,0.5,1,3,0.6,1,568,1,1,568,1,0,0.6,NaN,-1.00286370116523,-1.00286370116523,750,0,0,incongruent,1,1545.61853037686,2871.57190065513
26,104,2,250,-0.5,-0.5,-0.5,2,2,0.8,2,584,1,1,584,1,0,0.8,0.8,-0.876400585183004,-0.876400585183004,750,1,0,congruent,0.1,945.45494397979,1524.89698958863
26,104,2,251,0.5,0.5,-0.5,4,4,0.8,4,414,1,1,414,1,0,0.6,NaN,-2.22007119249413,-2.22007119249413,750,1,0,congruent,1,3544.68660433593,1325.74881526999
26,104,2,252,0.5,-0.5,0.5,2,1,0.8,2,580,1,1,580,0,0,1,NaN,-0.90801636417856,-0.90801636417856,750,0,0,incongruent,0,3175.24557453145,1784.90076167541
26,104,2,253,0.5,-0.5,0,3,NaN,0.8,4,637,0,1,NaN,1,0,1,NaN,-0.457491513491888,NaN,750,0,1,neutral,1,1132.82402783377,1328.898134462
26,104,2,254,-0.5,-0.5,0.5,4,1,0.8,3,733,0,1,NaN,1,0,1.4,0.8,0.301287182401455,NaN,750,0,1,incongruent,0.1,3898.10537133406,1386.96599194831
26,104,2,255,-0.5,-0.5,-0.5,2,2,0.8,2,666,1,1,666,1,0,1.2,0.8,-0.228277115774107,-0.228277115774107,750,1,0,congruent,0.1,1760.90667297214,1634.76048050739
26,104,2,256,-0.5,-0.5,0,4,NaN,0.8,4,636,1,1,636,1,0,1.2,0.8,-0.465395458240777,-0.465395458240777,750,0,0,neutral,0.1,1439.0187057706,3145.85380019589
26,104,2,257,0.5,0.5,0.5,3,2,0.8,3,748,1,1,748,1,0,1,NaN,0.41984635363479,0.41984635363479,750,0,0,incongruent,1,2165.81687622668,2695.68303605321
26,104,2,258,0.5,-0.5,-0.5,4,4,0.8,4,707,1,1,707,1,0,1.4,NaN,0.0957846189303417,0.0957846189303417,750,1,0,congruent,1,1892.42858977191,4714.45528793288
26,104,2,260,-0.5,-0.5,0,2,NaN,0.6,2,677,1,1,677,1,0,1.2,0.8,-0.141333723536328,-0.141333723536328,750,0,0,neutral,0.1,1286.55626237934,1785.10935209225
26,104,2,261,0.5,0.5,0.5,3,4,0.6,4,760,0,0,NaN,0,0,1.2,NaN,0.514693690621458,NaN,750,1,0,incongruent,0,1413.90641292998,3383.47709366301
26,104,2,262,0.5,0.5,0.5,1,3,0.6,1,633,1,1,633,1,0,1,NaN,-0.489107292487444,-0.489107292487444,750,0,0,incongruent,1,2569.05472935903,3339.88370121025
26,104,2,263,-0.5,0.5,0.5,3,4,0.6,3,862,1,0,862,0,0,1,0.6,1.32089605500814,1.32089605500814,750,0,0,incongruent,0,1289.63317989622,2443.75492166134
26,104,2,264,-0.5,0.5,0,2,NaN,0.4,2,687,1,1,687,1,0,0.6,0.4,-0.0622942760474382,-0.0622942760474382,750,0,0,neutral,0.1,688.342872928291,3371.73486524985
26,104,2,266,0.5,-0.5,0.5,4,2,0.4,4,760,1,0,760,0,0,0.6,NaN,0.514693690621458,0.514693690621458,750,0,0,incongruent,0,988.574685772597,6323.92429453244
26,104,2,267,0.5,0.5,0.5,2,4,0.4,2,653,1,1,653,1,0,0.6,NaN,-0.331028397509664,-0.331028397509664,750,0,0,incongruent,1,1005.34896007113,3279.68973293037
26,104,2,268,0.5,-0.5,0.5,1,3,0.6,1,727,1,1,727,1,0,0.6,NaN,0.253863513908122,0.253863513908122,750,0,0,incongruent,1,730.213334687723,1804.78122417984
26,104,2,269,0.5,0.5,0,3,NaN,0.6,4,761,0,0,NaN,0,0,1,NaN,0.522597635370347,NaN,750,0,1,neutral,0,2877.85973505919,3080.45142609476
26,104,2,270,0.5,-0.5,0.5,4,2,0.4,4,789,1,0,789,0,0,0.8,NaN,0.743908088339239,0.743908088339239,750,0,0,incongruent,0,902.562084836967,1193.08348447363
26,104,2,272,-0.5,0.5,-0.5,1,1,0.4,1,776,1,0,776,0,0,1,0.2,0.641156806603682,0.641156806603682,750,1,0,congruent,0,1046.89720912452,2650.87314190441
26,104,2,274,-0.5,0.5,0.5,4,3,0.2,3,827,0,0,NaN,0,0,0.2,0.2,1.04425798879702,NaN,750,1,0,incongruent,0,2035.65516820582,830.139737313177
26,104,2,275,-0.5,-0.5,0,1,NaN,0.2,1,493,1,1,493,0,0,0.2,1,-1.5956595573319,-1.5956595573319,750,0,0,neutral,0,858.529155564455,885.155028950783
26,104,2,276,-0.5,0.5,-0.5,4,4,0.2,4,654,1,1,654,1,0,0.2,0.2,-0.323124452760775,-0.323124452760775,750,1,0,congruent,0.1,676.835241993984,1847.66677627373
26,104,2,277,0.5,0.5,0.5,3,2,0.2,3,805,1,0,805,0,0,0.2,NaN,0.870371204321463,0.870371204321463,750,0,0,incongruent,0,992.892852149455,439.912660107114
26,104,2,278,0.5,-0.5,-0.5,1,1,0.2,1,592,1,1,592,0,0,0.2,NaN,-0.813169027191892,-0.813169027191892,750,1,0,congruent,0,1686.41566548586,1481.48200410678
26,104,2,279,-0.5,0.5,0,4,NaN,0.2,4,772,1,0,772,0,0,0.2,0.2,0.609541027608126,0.609541027608126,750,0,0,neutral,0,912.794477745028,585.228618161658
26,104,2,280,0.5,-0.5,0.5,3,1,0.2,1,798,0,0,NaN,1,0,0.2,NaN,0.81504359107924,NaN,750,1,0,incongruent,1,1029.63313345152,2832.59118702072
26,104,2,281,0.5,-0.5,0.5,4,2,0.2,4,785,1,0,785,0,0,0.6,NaN,0.712292309343683,0.712292309343683,750,0,0,incongruent,0,3605.63147276591,1632.00356286443
26,104,2,282,0.5,-0.5,0.5,2,4,0.2,2,879,1,0,879,0,0,0.4,NaN,1.45526311573925,1.45526311573925,750,0,0,incongruent,0,2229.33902469364,5384.41172625465
26,104,2,284,0.5,0.5,0.5,4,3,0.2,3,780,0,0,NaN,0,0,0.4,NaN,0.672772585599238,NaN,750,1,0,incongruent,0,2214.65618108922,1675.39242600785
26,104,2,285,-0.5,0.5,0.5,1,2,0.2,1,723,1,1,723,1,0,0.4,0.2,0.222247734912566,0.222247734912566,750,0,0,incongruent,0.1,976.827158267175,3021.32371008357
26,104,2,286,0.5,-0.5,-0.5,3,3,0.2,3,777,1,0,777,0,0,0.2,NaN,0.649060751352571,0.649060751352571,750,1,0,congruent,0,1095.17582294532,3315.92831855685
26,104,2,287,-0.5,0.5,0.5,2,1,0.2,2,806,1,0,806,0,0,0.2,0.4,0.878275149070352,0.878275149070352,750,0,0,incongruent,0,647.643485330796,3784.22966926424
26,104,2,288,-0.5,0.5,0,4,NaN,0.2,4,878,1,0,878,0,0,0.2,0.4,1.44735917099036,1.44735917099036,750,0,0,neutral,0,899.749398619815,4244.93135515336
26,104,2,289,-0.5,-0.5,-0.5,2,2,0.2,2,810,1,0,810,0,0,0.2,0.8,0.909890928065908,0.909890928065908,750,1,0,congruent,0,1348.80999792997,1259.30941570916
26,104,2,290,0.5,0.5,0.5,4,1,0.2,3,813,0,0,NaN,0,0,0.2,NaN,0.933602762312575,NaN,750,0,1,incongruent,0,2352.50625163548,2744.39248463612
26,104,2,291,-0.5,-0.5,-0.5,3,3,0.2,3,649,1,1,649,0,0,0,0.6,-0.36264417650522,-0.36264417650522,750,1,0,congruent,0,138.806106849497,2688.91083819083
26,104,2,292,-0.5,-0.5,0.5,1,4,0.2,1,681,1,1,681,0,0,0,0.4,-0.109717944540772,-0.109717944540772,750,0,0,incongruent,0,3635.0509760731,1499.38462401645
26,104,2,293,0.5,0.5,0,3,NaN,0.2,3,728,1,1,728,1,0,0,NaN,0.26176745865701,0.26176745865701,750,0,0,neutral,1,1454.12418834939,7145.93984034231
26,104,2,294,-0.5,0.5,-0.5,4,4,0.4,4,723,1,1,723,1,0,0.4,0.4,0.222247734912566,0.222247734912566,750,1,0,congruent,0.1,2392.79930343131,6169.31878825897
26,104,2,295,-0.5,-0.5,-0.5,2,2,0.4,2,821,1,0,821,0,0,0.6,0.2,0.996834320303687,0.996834320303687,750,1,0,congruent,0,3437.61119018136,2684.96760762168
26,104,2,296,0.5,-0.5,0.5,1,3,0.4,1,582,1,1,582,1,0,0.6,NaN,-0.892208474680782,-0.892208474680782,750,0,0,incongruent,1,3172.0922164258,3469.82634576238
26,104,2,297,0.5,-0.5,-0.5,4,4,0.4,4,902,1,0,902,0,0,1,NaN,1.63705384496369,1.63705384496369,750,1,0,congruent,0,3240.24926363158,1560.15436797485
26,104,2,299,0.5,0.5,0.5,4,2,0.4,4,867,1,0,867,0,0,0.6,NaN,1.36041577875258,1.36041577875258,750,0,0,incongruent,0,742.577905818772,2315.1381065796
26,104,2,300,-0.5,0.5,-0.5,1,1,0.4,1,611,1,1,611,1,0,0.4,0.4,-0.662994076963001,-0.662994076963001,750,1,0,congruent,0.1,1691.17846704441,641.857671257769
26,104,3,301,-0.5,0.5,-0.5,3,3,0.6,3,614,1,1,614,1,0,0.6,0.6,-0.639282242716334,-0.639282242716334,750,1,0,congruent,0.1,438.062728836878,1880.00035018658
26,104,3,303,-0.5,0.5,0,2,NaN,0.8,2,569,1,1,569,1,0,0.6,0.6,-0.994959756416339,-0.994959756416339,750,0,0,neutral,0.1,1402.53076309589,577.393187766861
26,104,3,304,-0.5,0.5,-0.5,1,1,0.8,1,594,1,1,594,1,0,0.8,0.8,-0.797361137694114,-0.797361137694114,750,1,0,congruent,0.1,818.482752575423,872.070797541662
26,104,3,305,-0.5,0.5,-0.5,3,3,0.8,3,914,1,0,914,0,0,1,1,1.73190118195036,1.73190118195036,750,1,0,congruent,0,628.816843203267,1144.93310631533
26,104,3,306,0.5,0.5,0,2,NaN,0.8,2,584,1,1,584,1,0,0.8,NaN,-0.876400585183004,-0.876400585183004,750,0,0,neutral,1,886.37656639109,2221.39070632197
26,104,3,307,0.5,0.5,-0.5,1,1,0.8,1,406,1,1,406,1,0,1,NaN,-2.28330275048524,-2.28330275048524,750,1,0,congruent,1,1238.97226772642,509.816313958401
26,104,3,308,-0.5,-0.5,0,2,NaN,0.8,2,591,1,1,591,0,0,1.2,0.2,-0.821072971940781,-0.821072971940781,750,0,0,neutral,0,704.390460990118,3500.47852868967
26,104,3,309,0.5,-0.5,-0.5,1,1,0.8,1,568,1,1,568,1,0,1,NaN,-1.00286370116523,-1.00286370116523,750,1,0,congruent,1,2835.81741616672,3542.13184789338
26,104,3,310,0.5,0.5,0,4,NaN,0.8,4,777,1,0,777,0,0,1.2,NaN,0.649060751352571,0.649060751352571,750,0,0,neutral,0,1105.45572063028,1007.6226943779
26,104,3,311,-0.5,-0.5,-0.5,1,1,0.6,1,507,1,1,507,0,0,1.2,0.2,-1.48500433084746,-1.48500433084746,750,1,0,congruent,0,727.670578015147,326.071477474807
26,104,3,312,0.5,-0.5,0,4,NaN,0.6,4,811,1,0,811,1,0,0.8,NaN,0.917794872814797,0.917794872814797,750,0,0,neutral,1,4133.79352033651,2296.30043746351
26,104,3,313,0.5,-0.5,-0.5,1,1,0.6,1,514,1,1,514,1,0,0.8,NaN,-1.42967671760523,-1.42967671760523,750,1,0,congruent,1,915.116741196514,1712.91930566547
26,104,3,314,-0.5,0.5,-0.5,3,3,0.6,3,750,1,1,750,0,0,1.2,0.8,0.435654243132568,0.435654243132568,750,1,0,congruent,0,1868.53156689527,2232.59296869113
26,104,3,315,0.5,0.5,0,4,NaN,0.4,4,888,1,0,888,0,0,0.8,NaN,1.52639861847925,1.52639861847925,750,0,0,neutral,0,1122.82502786954,2658.42497320858
26,104,3,316,-0.5,0.5,0.5,2,1,0.4,2,550,1,1,550,1,0,0.8,0.6,-1.14513470664523,-1.14513470664523,750,0,0,incongruent,0.1,1898.19828074908,2911.0639032883
26,104,3,317,0.5,0.5,0.5,3,4,0.4,3,899,1,0,899,0,0,1,NaN,1.61334201071703,1.61334201071703,750,0,0,incongruent,0,1381.13330487125,2217.1376795188
26,104,3,318,0.5,0.5,-0.5,2,2,0.2,2,558,1,1,558,1,0,0.6,NaN,-1.08190314865412,-1.08190314865412,750,1,0,congruent,1,2002.32178544947,1119.57194145148
26,104,3,319,-0.5,0.5,0.5,4,3,0.4,4,744,1,1,744,1,0,0.6,0.6,0.388230574639234,0.388230574639234,750,0,0,incongruent,0.1,2219.19984038075,1162.73324941229
26,104,3,320,0.5,-0.5,0,2,NaN,0.6,2,534,1,1,534,1,0,0.8,NaN,-1.27159782262745,-1.27159782262745,750,0,0,neutral,1,1275.37428128819,1190.95680684923
26,104,3,321,0.5,-0.5,-0.5,4,4,0.6,4,643,1,1,643,1,0,1.2,NaN,-0.410067844998554,-0.410067844998554,750,1,0,congruent,1,4571.67689959997,2563.6258190863
26,104,3,322,0.5,0.5,0.5,1,3,0.6,1,499,1,1,499,1,0,1.4,NaN,-1.54823588883857,-1.54823588883857,750,0,0,incongruent,1,1436.87631213152,1177.09886849581
26,104,3,323,0.5,0.5,-0.5,4,4,0.8,4,891,1,0,891,0,0,1.8,NaN,1.55011045272592,1.55011045272592,750,1,0,congruent,0,1460.91775963011,1648.05721389564
26,104,3,324,0.5,-0.5,0.5,3,2,0.6,2,808,0,0,NaN,0,0,1.4,NaN,0.89408303856813,NaN,750,1,0,incongruent,0,8103.4692090047,2453.10203317006
26,104,3,325,0.5,0.5,-0.5,1,1,0.6,1,537,1,1,537,1,0,1.2,NaN,-1.24788598838079,-1.24788598838079,750,1,0,congruent,1,1063.31424410166,2168.25133010458
26,104,3,326,-0.5,-0.5,-0.5,3,3,0.8,3,784,1,0,784,0,0,1.2,0.2,0.704388364594794,0.704388364594794,750,1,0,congruent,0,3182.8958080617,6792.50057659567
26,104,3,327,-0.5,0.5,-0.5,1,1,0.8,1,577,1,1,577,1,0,0.8,0.6,-0.931728198425227,-0.931728198425227,750,1,0,congruent,0.1,450.750661491828,3330.45350479041
26,104,3,328,-0.5,0.5,-0.5,4,4,0.8,4,674,1,1,674,1,0,0.6,0.6,-0.165045557782995,-0.165045557782995,750,1,0,congruent,0.1,2846.64132168775,2168.29778225178
26,104,3,329,-0.5,0.5,0,3,NaN,0.8,3,696,1,1,696,1,0,0.8,0.8,0.00884122669256277,0.00884122669256277,750,0,0,neutral,0.1,1279.3411654923,1704.11980438503
26,104,3,330,0.5,0.5,-0.5,4,4,0.8,4,738,1,1,738,1,0,1,NaN,0.3408069061459,0.3408069061459,750,1,0,congruent,1,1472.79193007889,11238.6505944093
26,104,3,331,-0.5,-0.5,-0.5,1,1,1,1,498,1,1,498,1,0,1,0.2,-1.55613983358746,-1.55613983358746,750,1,0,congruent,0.1,1449.29384264237,1131.7301984111
26,104,3,332,0.5,-0.5,0.5,4,3,1,4,728,1,1,728,1,0,1.2,NaN,0.26176745865701,0.26176745865701,750,0,0,incongruent,1,613.087835751546,4351.32230808451
26,104,3,333,-0.5,-0.5,0,3,NaN,1,3,648,1,1,648,1,0,1.4,0.4,-0.370548121254109,-0.370548121254109,750,0,0,neutral,0.1,1170.2088820773,2165.41578794635
26,104,3,334,-0.5,0.5,-0.5,1,1,1,1,628,1,1,628,1,0,1.4,1,-0.528627016231889,-0.528627016231889,750,1,0,congruent,0.1,3848.48381536699,3427.3729874471
26,104,3,335,0.5,0.5,0.5,3,4,1,3,800,1,0,800,0,0,1.4,NaN,0.830851480577018,0.830851480577018,750,0,0,incongruent,0,1148.22363065634,4047.02724416861
26,104,3,336,0.5,-0.5,0,1,NaN,0.8,1,536,1,1,536,0,0,1,NaN,-1.25578993312968,-1.25578993312968,750,0,0,neutral,0,1276.22528484734,1365.18727461476
26,104,3,337,-0.5,-0.5,-0.5,2,2,0.8,2,582,1,1,582,1,0,0.8,0.4,-0.892208474680782,-0.892208474680782,750,1,0,congruent,0.1,1721.41159993134,1476.46872656148
26,104,3,338,-0.5,0.5,-0.5,1,1,0.8,1,598,1,1,598,1,0,0.6,1,-0.765745358698558,-0.765745358698558,750,1,0,congruent,0.1,221.451751122856,2589.58031020218
26,104,3,339,0.5,-0.5,-0.5,2,2,0.8,2,582,1,1,582,1,0,0.6,NaN,-0.892208474680782,-0.892208474680782,750,1,0,congruent,1,1722.38811493743,1335.97767954266
26,104,3,340,0.5,0.5,0.5,4,1,0.8,4,685,1,1,685,1,0,0.8,NaN,-0.0781021655452161,-0.0781021655452161,750,0,0,incongruent,1,1259.60435551015,3074.53779557322
26,104,3,341,-0.5,0.5,0,2,NaN,0.8,2,600,1,1,600,1,0,1.2,1,-0.74993746920078,-0.74993746920078,750,0,0,neutral,0.1,402.588802790291,1386.07486630588
26,104,3,342,0.5,-0.5,-0.5,1,1,0.8,1,486,1,1,486,1,0,1.4,NaN,-1.65098717057413,-1.65098717057413,750,1,0,congruent,1,779.970024988902,1286.33264611202
26,104,3,343,0.5,0.5,-0.5,3,3,0.8,3,714,1,1,714,1,0,1.6,NaN,0.151112232172565,0.151112232172565,750,1,0,congruent,1,2444.12606473363,2113.50018932283
26,104,3,344,0.5,-0.5,0,1,NaN,0.8,1,721,1,1,721,1,0,1.8,NaN,0.206439845414788,0.206439845414788,750,0,0,neutral,1,2351.84206799012,5068.72549210194
26,104,3,345,-0.5,0.5,0.5,3,2,0.8,3,967,1,0,967,0,0,1.8,1,2.15081025364148,2.15081025364148,750,0,0,incongruent,0,7445.78137300324,2322.0558127483
26,104,3,346,-0.5,-0.5,0,1,NaN,0.8,1,523,1,1,523,1,0,1.4,0.6,-1.35854121486523,-1.35854121486523,750,0,0,neutral,0.1,1367.99380389591,1043.37890872728
26,104,3,347,0.5,-0.5,-0.5,4,4,0.8,4,669,1,1,669,1,0,1.4,NaN,-0.20456528152744,-0.20456528152744,750,1,0,congruent,1,1409.58259039604,3252.83842961974
26,104,3,348,0.5,0.5,0.5,3,1,0.8,3,828,1,0,828,0,0,1.4,NaN,1.05216193354591,1.05216193354591,750,0,0,incongruent,0,1583.97369556354,4484.28545483866
26,104,3,349,-0.5,-0.5,0,4,NaN,0.6,4,710,1,1,710,0,0,1,0.8,0.119496453177009,0.119496453177009,750,0,0,neutral,0,835.409292006644,2567.50281350277
26,104,3,350,-0.5,0.5,-0.5,2,2,0.6,2,441,1,1,441,1,0,0.6,0.8,-2.00666468427413,-2.00666468427413,750,1,0,congruent,0.1,2970.8742809949,1545.36035850071
26,104,3,351,0.5,-0.5,-0.5,1,1,0.6,1,433,1,1,433,1,0,0.8,NaN,-2.06989624226524,-2.06989624226524,750,1,0,congruent,1,1822.17030668626,1245.31262379615
26,104,3,352,0.5,0.5,-0.5,4,4,0.6,4,596,1,1,596,1,0,1,NaN,-0.781553248196336,-0.781553248196336,750,1,0,congruent,1,1720.04265590228,1389.61184006571
26,104,3,353,-0.5,0.5,0.5,1,2,0.6,1,834,1,0,834,0,0,1,0.8,1.09958560203924,1.09958560203924,750,0,0,incongruent,0,1384.14305480817,3504.26851718651
26,104,3,354,-0.5,0.5,0.5,4,1,0.4,4,765,1,0,765,0,0,1,0.6,0.554213414365903,0.554213414365903,750,0,0,incongruent,0,682.255029925021,1581.70616148155
26,104,3,355,-0.5,0.5,0,3,NaN,0.4,2,833,0,0,NaN,0,0,1,0.4,1.09168165729035,NaN,750,0,1,neutral,0,3632.0623713649,4265.40191143295
26,104,3,356,-0.5,0.5,0.5,1,2,0.4,1,478,1,1,478,1,0,0.8,0.2,-1.71421872856524,-1.71421872856524,750,0,0,incongruent,0.1,1103.22935782896,430.570176282143
26,104,3,357,0.5,0.5,-0.5,3,3,0.4,3,682,1,1,682,1,0,0.6,NaN,-0.101813999791883,-0.101813999791883,750,1,0,congruent,1,2522.13481490978,1192.60747346835
26,104,3,358,0.5,-0.5,0.5,1,4,0.4,1,774,1,0,774,0,0,0.6,NaN,0.625348917105904,0.625348917105904,750,0,0,incongruent,0,2034.88135790217,1687.50936442287
26,104,3,359,0.5,-0.5,-0.5,2,2,0.4,2,895,1,0,895,1,0,0.6,NaN,1.58172623172147,1.58172623172147,750,1,0,congruent,1,1687.37512293763,405.108667420682
26,104,3,360,0.5,0.5,0,1,NaN,0.4,1,552,1,1,552,1,0,1,NaN,-1.12932681714745,-1.12932681714745,750,0,0,neutral,1,654.703491104378,2464.53492003602
26,104,3,361,-0.5,0.5,-0.5,2,2,0.6,2,590,1,1,590,1,0,1.4,0.4,-0.82897691668967,-0.82897691668967,750,1,0,congruent,0.1,1578.02261666172,1695.07608092477
26,104,3,362,0.5,-0.5,0.5,4,3,0.8,3,928,0,0,NaN,1,0,1.4,NaN,1.84255640843481,NaN,750,1,0,incongruent,1,847.805792770188,1144.36590177807
26,104,3,364,-0.5,0.5,0,1,NaN,0.8,1,499,1,1,499,1,0,1.6,0.4,-1.54823588883857,-1.54823588883857,750,0,0,neutral,0.1,519.564670968917,613.602005785725
26,104,3,365,0.5,-0.5,-0.5,4,4,1,4,827,1,0,827,1,0,1.4,NaN,1.04425798879702,1.04425798879702,750,1,0,congruent,1,1762.74815273719,1293.72748032377
26,104,3,366,0.5,-0.5,0,3,NaN,1,3,695,1,1,695,1,0,1.4,NaN,0.000937281943673775,0.000937281943673775,750,0,0,neutral,1,3253.68447237113,2833.79803583706
26,104,3,367,-0.5,0.5,0.5,2,4,1,2,723,1,1,723,1,0,1.6,0.6,0.222247734912566,0.222247734912566,750,0,0,incongruent,0.1,2105.39743736892,1387.05842102208
26,104,3,368,0.5,-0.5,0.5,4,3,1,4,862,1,0,862,1,0,1.4,NaN,1.32089605500814,1.32089605500814,750,0,0,incongruent,1,1634.65466138604,3043.43996001548
26,104,3,369,-0.5,-0.5,0,1,NaN,1,1,607,1,1,607,1,0,1.6,0.8,-0.694609855958557,-0.694609855958557,750,0,0,neutral,0.1,445.177028255944,546.038404448005
26,104,3,371,-0.5,0.5,0.5,1,4,0.8,1,657,1,1,657,1,0,1.2,0.8,-0.299412618514108,-0.299412618514108,750,0,0,incongruent,0.1,846.652236916699,1215.05394788992
26,104,3,372,0.5,0.5,-0.5,2,2,0.8,2,870,1,0,870,0,0,1,NaN,1.38412761299925,1.38412761299925,750,1,0,congruent,0,1170.23078156192,333.403147409576
26,104,3,373,-0.5,0.5,0.5,1,4,0.6,1,677,1,1,677,1,0,0.8,1,-0.141333723536328,-0.141333723536328,750,0,0,incongruent,0.1,1030.2982466951,422.108005440955
26,104,3,374,-0.5,-0.5,-0.5,3,3,0.6,4,683,0,1,NaN,0,0,0.6,0.8,-0.0939100550429941,NaN,750,0,1,congruent,0,2462.84572797195,4216.55422255288
26,104,3,375,-0.5,-0.5,0,1,NaN,0.6,1,590,1,1,590,0,0,0.4,0.6,-0.82897691668967,-0.82897691668967,750,0,0,neutral,0,1380.20049234648,2973.17935345483
26,104,3,376,0.5,0.5,-0.5,4,4,0.6,4,772,1,0,772,0,0,0.4,NaN,0.609541027608126,0.609541027608126,750,1,0,congruent,0,875.388330007869,5165.55443961682
26,104,3,377,0.5,0.5,0.5,1,2,0.4,1,499,1,1,499,1,0,0.2,NaN,-1.54823588883857,-1.54823588883857,750,0,0,incongruent,1,2030.8660272616,962.518010870771
26,104,3,378,-0.5,-0.5,0.5,2,1,0.6,2,678,1,1,678,1,0,0.6,0.4,-0.133429778787439,-0.133429778787439,750,0,0,incongruent,0.1,543.951853691249,1722.54016115464
26,104,3,379,-0.5,-0.5,0,1,NaN,0.6,1,669,1,1,669,0,0,0.6,0.6,-0.20456528152744,-0.20456528152744,750,0,0,neutral,0,933.840835965436,1943.36351632912
26,104,3,380,-0.5,0.5,0.5,2,4,0.6,4,798,0,0,NaN,0,0,0.6,1,0.81504359107924,NaN,750,1,0,incongruent,0,614.084434905465,724.229003805143
26,104,3,381,-0.5,0.5,0,1,NaN,0.4,1,610,1,1,610,1,0,0.6,0.8,-0.670898021711891,-0.670898021711891,750,0,0,neutral,0.1,397.26956935536,2549.05191917989
26,104,3,382,-0.5,-0.5,-0.5,3,3,0.6,3,472,1,1,472,0,0,0.8,0.4,-1.76164239705857,-1.76164239705857,750,1,0,congruent,0,1680.78170921441,669.632176455257
26,104,3,383,-0.5,-0.5,0,4,NaN,0.6,4,736,1,1,736,1,0,0.4,0.2,0.324999016648122,0.324999016648122,750,0,0,neutral,0.1,1024.13644073536,1251.80189498512
26,104,3,384,-0.5,-0.5,-0.5,2,2,0.6,2,582,1,1,582,0,0,0.4,0.4,-0.892208474680782,-0.892208474680782,750,1,0,congruent,0,2014.09724488648,2687.24015950824
26,104,3,385,0.5,-0.5,0,4,NaN,0.6,4,743,1,1,743,1,0,0.4,NaN,0.380326629890345,0.380326629890345,750,0,0,neutral,1,1047.67898917978,3123.53046833582
26,104,3,386,0.5,0.5,0.5,2,3,0.6,3,951,0,0,NaN,0,0,0.8,NaN,2.02434713765926,NaN,750,1,0,incongruent,0,2558.93526063823,4275.84325554664
26,104,3,387,0.5,-0.5,0.5,3,1,0.4,3,992,1,0,992,1,0,0.6,NaN,2.3484088723637,2.3484088723637,750,0,0,incongruent,1,2259.58531156667,3594.63884487222
26,104,3,389,-0.5,-0.5,-0.5,4,4,0.4,4,692,1,1,692,0,0,0.8,0.4,-0.0227745523029932,-0.0227745523029932,750,1,0,congruent,0,1064.05145822761,3874.32175715288
26,104,3,390,0.5,0.5,-0.5,1,1,0.4,1,585,1,1,585,1,0,0.8,NaN,-0.868496640434115,-0.868496640434115,750,1,0,congruent,1,1483.27416095266,2333.96662582554
26,104,3,391,-0.5,-0.5,-0.5,4,4,0.4,4,781,1,0,781,1,0,0.8,0.2,0.680676530348127,0.680676530348127,750,1,0,congruent,0.1,1114.61386090726,1893.87511045027
26,104,3,392,0.5,0.5,0,1,NaN,0.4,1,491,1,1,491,1,0,1,NaN,-1.61146744682968,-1.61146744682968,750,0,0,neutral,1,2196.80406756391,559.82079654436
26,104,3,393,-0.5,0.5,-0.5,3,3,0.6,3,743,1,1,743,1,0,1,0.8,0.380326629890345,0.380326629890345,750,1,0,congruent,0.1,380.067990624935,2109.24715848517
26,104,3,394,-0.5,-0.5,0,1,NaN,0.6,1,522,1,1,522,1,0,1.2,0.4,-1.36644515961412,-1.36644515961412,750,0,0,neutral,0.1,1844.20473932973,1309.29447768595
26,104,3,395,0.5,0.5,-0.5,4,4,0.6,4,758,1,0,758,0,0,1.4,NaN,0.49888580112368,0.49888580112368,750,1,0,congruent,0,1805.72662653036,3853.61989450695
26,104,3,396,0.5,-0.5,-0.5,2,2,0.6,2,598,1,1,598,1,0,1,NaN,-0.765745358698558,-0.765745358698558,750,1,0,congruent,1,2275.01760454411,4613.95540096887
26,104,3,397,0.5,0.5,0,4,NaN,0.6,4,632,1,1,632,1,0,1.2,NaN,-0.497011237236333,-0.497011237236333,750,0,0,neutral,1,2350.30947314085,1556.32739376189
26,104,3,398,0.5,0.5,-0.5,3,3,0.8,3,621,1,1,621,1,0,1.2,NaN,-0.583954629474112,-0.583954629474112,750,1,0,congruent,1,1967.35632108431,2662.03732315812
26,104,3,399,-0.5,-0.5,-0.5,1,1,0.8,1,578,1,1,578,0,0,1.4,0.6,-0.923824253676338,-0.923824253676338,750,1,0,congruent,0,3431.4370656689,2784.78416779651
26,104,3,400,-0.5,0.5,0,3,NaN,0.8,3,664,1,1,664,1,0,1.2,0.8,-0.244085005271885,-0.244085005271885,750,0,0,neutral,0.1,1463.75979163187,936.586929258983
26,104,3,401,-0.5,-0.5,0.5,4,1,0.8,4,808,1,0,808,1,0,1.4,0.4,0.89408303856813,0.89408303856813,750,0,0,incongruent,0.1,1870.20732126013,1906.12231911946
26,104,3,402,0.5,-0.5,0,3,NaN,0.8,3,542,1,1,542,1,0,1.2,NaN,-1.20836626463634,-1.20836626463634,750,0,0,neutral,1,2110.60532551575,3701.5954512797
26,104,3,403,-0.5,-0.5,-0.5,1,1,0.8,1,544,1,1,544,1,0,1.2,0.6,-1.19255837513856,-1.19255837513856,750,1,0,congruent,0.1,264.326808632167,1040.49488375832
26,104,3,405,0.5,0.5,-0.5,1,1,0.6,1,554,1,1,554,1,0,1,NaN,-1.11351892764967,-1.11351892764967,750,1,0,congruent,1,4683.99682855428,680.377423269824
26,104,3,406,-0.5,0.5,0.5,2,3,0.8,2,971,1,0,971,0,0,1.2,0.8,2.18242603263704,2.18242603263704,750,0,0,incongruent,0,910.962707926689,1306.57977977886
26,104,3,407,0.5,-0.5,0.5,3,4,0.6,3,912,1,0,912,1,0,1,NaN,1.71609329245258,1.71609329245258,750,0,0,incongruent,1,4228.68589464337,1417.97462107772
26,104,3,408,0.5,0.5,0,1,NaN,0.6,1,559,1,1,559,1,0,1,NaN,-1.07399920390523,-1.07399920390523,750,0,0,neutral,1,2768.73650285677,1539.37356864943
26,104,3,409,0.5,-0.5,-0.5,2,2,0.6,2,752,1,0,752,0,0,1.2,NaN,0.451462132630346,0.451462132630346,750,1,0,congruent,0,3242.26589037209,2643.70750668931
26,104,3,410,0.5,-0.5,-0.5,1,1,0.6,1,563,1,1,563,1,0,1.2,NaN,-1.04238342490967,-1.04238342490967,750,1,0,congruent,1,1250.19345693274,5582.73662625815
26,104,3,411,-0.5,-0.5,0.5,3,2,0.6,3,688,1,1,688,0,0,1.2,0.8,-0.0543903312985492,-0.0543903312985492,750,0,0,incongruent,0,1086.3400571353,3391.90996918732
26,104,3,412,0.5,0.5,0,2,NaN,0.6,2,750,1,1,750,0,0,1.2,NaN,0.435654243132568,0.435654243132568,750,0,0,neutral,0,1772.58123972951,1758.2979522518
26,104,3,413,-0.5,-0.5,0.5,1,3,0.4,1,853,1,0,853,1,0,0.8,0.6,1.24976055226813,1.24976055226813,750,0,0,incongruent,0.1,537.981143337537,2050.63641429756
26,104,3,414,-0.5,0.5,0.5,3,4,0.4,3,699,1,1,699,1,0,0.6,0.6,0.0325530609392297,0.0325530609392297,750,0,0,incongruent,0.1,1052.5790547943,1568.81341342787
26,104,3,415,0.5,0.5,0.5,1,3,0.6,1,538,1,1,538,1,0,0.8,NaN,-1.2399820436319,-1.2399820436319,750,0,0,incongruent,1,540.881306999954,1120.39131702574
26,104,3,416,0.5,-0.5,-0.5,2,2,0.6,2,471,1,1,471,0,0,0.8,NaN,-1.76954634180746,-1.76954634180746,750,1,0,congruent,0,966.397967885985,1249.9669161211
26,104,3,417,0.5,0.5,0,4,NaN,0.6,4,990,1,0,990,0,0,0.8,NaN,2.33260098286593,2.33260098286593,750,0,0,neutral,0,1062.25839330196,1752.1269247819
26,104,3,418,-0.5,-0.5,-0.5,3,3,0.6,3,676,1,1,676,1,0,0.8,0.6,-0.149237668285217,-0.149237668285217,750,1,0,congruent,0.1,755.703612075735,2115.1039351098
26,104,3,419,-0.5,0.5,0.5,4,1,0.6,2,964,0,0,NaN,0,0,0.8,0.8,2.12709841939481,NaN,750,0,1,incongruent,0,1238.29358884292,1266.94949406092
26,104,3,420,0.5,0.5,-0.5,2,2,0.4,4,882,0,0,NaN,0,0,0.6,NaN,1.47897494998592,NaN,750,0,1,congruent,0,1201.87978605364,4224.33471578057
26,104,3,421,0.5,0.5,0.5,3,4,0.4,3,829,1,0,829,0,0,0.2,NaN,1.0600658782948,1.0600658782948,750,0,0,incongruent,0,2813.41162163992,3086.48510649413
26,104,3,422,-0.5,-0.5,-0.5,1,1,0.2,1,554,1,1,554,0,0,0.2,0.8,-1.11351892764967,-1.11351892764967,750,1,0,congruent,0,428.931055840296,634.295263266329
26,104,3,423,0.5,0.5,-0.5,4,4,0.2,4,767,1,0,767,0,0,0.2,NaN,0.570021303863681,0.570021303863681,750,1,0,congruent,0,1980.59349458108,2648.48124667809
26,104,3,424,0.5,0.5,0,1,NaN,0,1,480,1,1,480,1,0,0,NaN,-1.69841083906746,-1.69841083906746,750,0,0,neutral,1,948.928646713642,1230.11758604293
26,104,3,425,-0.5,0.5,-0.5,3,3,0.2,3,567,1,1,567,1,0,0.4,0.6,-1.01076764591412,-1.01076764591412,750,1,0,congruent,0.1,1511.65530782999,1820.39844436146
26,104,3,426,-0.5,0.5,0.5,2,4,0.4,2,751,1,0,751,0,0,0.6,0.6,0.443558187881457,0.443558187881457,750,0,0,incongruent,0,2361.5467689799,3553.60077093462
26,104,3,427,0.5,0.5,-0.5,1,1,0.4,1,542,1,1,542,1,0,0.6,NaN,-1.20836626463634,-1.20836626463634,750,1,0,congruent,1,3068.39701828312,2667.85891028749
26,104,3,428,-0.5,-0.5,-0.5,2,2,0.6,2,655,1,1,655,0,0,1,0.6,-0.315220508011886,-0.315220508011886,750,1,0,congruent,0,2250.18162126767,1333.97510927721
26,104,3,429,-0.5,0.5,0.5,1,3,0.6,1,618,1,1,618,1,0,1,0.4,-0.607666463720778,-0.607666463720778,750,0,0,incongruent,0.1,1398.56113436213,1426.97083094349
26,104,3,430,0.5,0.5,0,4,NaN,0.8,4,771,1,0,771,0,0,0.8,NaN,0.601637082859237,0.601637082859237,750,0,0,neutral,0,1554.00403239293,802.174334438404
26,104,3,431,0.5,-0.5,-0.5,3,3,0.6,3,664,1,1,664,0,0,0.6,NaN,-0.244085005271885,-0.244085005271885,750,1,0,congruent,0,2343.69181246,4095.63468970499
26,104,3,432,-0.5,0.5,-0.5,2,2,0.6,2,711,1,1,711,1,0,0.6,0.6,0.127400397925898,0.127400397925898,750,1,0,congruent,0.1,727.470653642442,1611.31588450999
26,104,3,433,0.5,-0.5,0,4,NaN,0.6,4,576,1,1,576,0,0,0.4,NaN,-0.939632143174116,-0.939632143174116,750,0,0,neutral,0,668.983281030426,1246.96787751912
26,104,3,434,0.5,-0.5,-0.5,3,3,0.6,3,591,1,1,591,1,0,0.4,NaN,-0.821072971940781,-0.821072971940781,750,1,0,congruent,1,1280.15474036078,1167.25823497587
26,104,3,435,0.5,0.5,0.5,1,4,0.6,1,778,1,0,778,0,0,0.6,NaN,0.65696469610146,0.65696469610146,750,0,0,incongruent,0,629.54859780013,3154.02905971134
26,104,3,437,0.5,-0.5,0.5,1,4,0.6,1,624,1,1,624,1,0,0.6,NaN,-0.560242795227445,-0.560242795227445,750,0,0,incongruent,1,1957.75860886507,440.674061533109
26,104,3,438,0.5,-0.5,0.5,2,1,0.6,2,527,1,1,527,1,0,0.8,NaN,-1.32692543586968,-1.32692543586968,750,0,0,incongruent,1,406.384081477629,1063.08164847138
26,104,3,439,-0.5,0.5,0.5,3,2,0.6,3,845,1,0,845,0,0,1.2,0.6,1.18652899427702,1.18652899427702,750,0,0,incongruent,0,4920.92011722678,3792.70431453013
26,104,3,440,0.5,-0.5,0.5,2,1,0.4,2,686,1,1,686,0,0,0.8,NaN,-0.0701982207963271,-0.0701982207963271,750,0,0,incongruent,0,2485.2433923121,2711.74603979781
26,104,3,441,-0.5,0.5,0,1,NaN,0.4,1,702,1,1,702,1,0,0.8,0.6,0.0562648951858967,0.0562648951858967,750,0,0,neutral,0.1,2041.87331155896,3250.14755616891
26,104,3,442,0.5,0.5,0.5,2,4,0.4,2,759,1,0,759,0,0,1,NaN,0.506789745872569,0.506789745872569,750,0,0,incongruent,0,2502.16712214431,2346.84407096169
26,104,3,443,-0.5,0.5,-0.5,1,1,0.4,1,500,1,1,500,1,0,0.6,0.6,-1.54033194408968,-1.54033194408968,750,1,0,congruent,0.1,1819.25836150433,1081.50854744519
26,104,3,444,0.5,-0.5,0.5,2,4,0.4,2,638,1,1,638,1,0,0.4,NaN,-0.449587568742999,-0.449587568742999,750,0,0,incongruent,1,3466.12456384203,815.081193286298
26,104,3,445,0.5,-0.5,-0.5,1,1,0.4,1,586,1,1,586,1,0,0.8,NaN,-0.860592695685226,-0.860592695685226,750,1,0,congruent,1,848.679858793867,2336.80547737516
26,104,3,446,0.5,-0.5,0.5,3,2,0.4,3,779,1,0,779,0,0,1.2,NaN,0.664868640850349,0.664868640850349,750,0,0,incongruent,0,834.831625901915,2011.10535489356
26,104,3,447,0.5,-0.5,-0.5,1,1,0.4,1,670,1,1,670,1,0,1,NaN,-0.196661336778551,-0.196661336778551,750,1,0,congruent,1,1740.1225940436,1366.84748994741
26,104,3,449,0.5,0.5,-0.5,1,1,0.4,1,677,1,1,677,1,0,1.2,NaN,-0.141333723536328,-0.141333723536328,750,1,0,congruent,1,1960.67931604233,2135.58897927388
26,104,4,451,-0.5,-0.5,0,1,NaN,0.6,1,500,1,1,500,1,0,0.8,0.4,-1.54033194408968,-1.54033194408968,750,0,0,neutral,0.1,1054.70414512512,1952.94783500925
26,104,4,452,-0.5,0.5,-0.5,4,4,0.6,4,794,1,0,794,0,0,1,0.8,0.783427812083684,0.783427812083684,750,1,0,congruent,0,2922.16130353924,7795.09321676541
26,104,4,453,-0.5,0.5,0,3,NaN,0.4,3,745,1,1,745,1,0,0.6,0.6,0.396134519388123,0.396134519388123,750,0,0,neutral,0.1,1372.79515837919,929.927076632527
26,104,4,454,-0.5,0.5,-0.5,1,1,0.6,1,575,1,1,575,1,0,0.8,0.6,-0.947536087923005,-0.947536087923005,750,1,0,congruent,0.1,1474.3333104853,2272.5253052112
26,104,4,456,-0.5,-0.5,-0.5,4,4,0.4,4,872,1,0,872,1,0,0.6,0.6,1.39993550249703,1.39993550249703,750,1,0,congruent,0.1,1904.47812345021,2470.1438274125
26,104,4,457,0.5,0.5,-0.5,2,2,0.4,2,827,1,0,827,0,0,0.6,NaN,1.04425798879702,1.04425798879702,750,1,0,congruent,0,934.667662345249,2464.9040812188
26,104,4,459,0.5,-0.5,0.5,2,1,0.4,2,733,1,1,733,1,0,0.4,NaN,0.301287182401455,0.301287182401455,750,0,0,incongruent,1,2664.74137846078,2040.40469375513
26,104,4,460,-0.5,0.5,0,4,NaN,0.4,3,890,0,0,NaN,0,0,0.6,0.6,1.54220650797703,NaN,750,0,1,neutral,0,859.132966185711,1331.89303969682
26,104,4,461,-0.5,-0.5,0.5,3,1,0.4,3,696,1,1,696,0,0,0.6,0.4,0.00884122669256277,0.00884122669256277,750,0,0,incongruent,0,2612.49144214748,2214.11932773079
26,104,4,462,-0.5,-0.5,0,2,NaN,0.4,2,727,1,1,727,0,0,0.4,0.4,0.253863513908122,0.253863513908122,750,0,0,neutral,0,1756.33431122389,1902.57446095225
26,104,4,463,0.5,0.5,0.5,3,1,0.4,3,971,1,0,971,0,0,0.4,NaN,2.18242603263704,2.18242603263704,750,0,0,incongruent,0,1546.49078635842,3063.88240312723
26,104,4,464,0.5,0.5,0.5,2,4,0.2,2,909,1,0,909,0,0,0.4,NaN,1.69238145820592,1.69238145820592,750,0,0,incongruent,0,1163.63518715795,2134.47661707273
26,104,4,465,0.5,0.5,0.5,1,3,0,1,609,1,1,609,1,0,0,NaN,-0.678801966460779,-0.678801966460779,750,0,0,incongruent,1,2619.19955393684,1147.5431114857
26,104,4,466,-0.5,0.5,0.5,4,1,0.2,4,869,1,0,869,0,0,0.4,0.4,1.37622366825036,1.37622366825036,750,0,0,incongruent,0,3919.66413210863,3189.06707845152
26,104,4,467,-0.5,-0.5,0,1,NaN,0.2,1,534,1,1,534,1,0,0.4,0.4,-1.27159782262745,-1.27159782262745,750,0,0,neutral,0.1,1284.46302407765,1610.1784950568
26,104,4,468,-0.5,0.5,-0.5,3,3,0.2,3,724,1,1,724,1,0,0.6,0.4,0.230151679661455,0.230151679661455,750,1,0,congruent,0.1,1301.11595491585,4588.65711900955
26,104,4,469,0.5,-0.5,0,2,NaN,0.4,2,886,1,0,886,1,0,0.8,NaN,1.51059072898147,1.51059072898147,750,0,0,neutral,1,2232.3789695852,906.245735268956
26,104,4,470,-0.5,-0.5,0.5,1,4,0.4,1,621,1,1,621,0,0,1.2,0.4,-0.583954629474112,-0.583954629474112,750,0,0,incongruent,0,2194.55000801628,1468.3274742952
26,104,4,471,-0.5,0.5,0,4,NaN,0.4,4,547,1,1,547,1,0,0.8,0.4,-1.1688465408919,-1.1688465408919,750,0,0,neutral,0.1,1057.91148951462,1448.82584084563
26,104,4,472,-0.5,-0.5,0.5,1,4,0.6,1,398,1,1,398,1,0,1,0.2,-2.34653430847636,-2.34653430847636,750,0,0,incongruent,0.1,1998.66191251343,3071.60655096718
26,104,4,473,-0.5,-0.5,0.5,2,1,0.6,2,685,1,1,685,1,0,1,0.4,-0.0781021655452161,-0.0781021655452161,750,0,0,incongruent,0.1,663.845463703304,1760.66540416447
26,104,4,474,-0.5,0.5,0.5,1,2,0.6,1,753,1,0,753,0,0,1,0.4,0.459366077379235,0.459366077379235,750,0,0,incongruent,0,590.67727965789,3723.21914041443
26,104,4,476,-0.5,-0.5,0,1,NaN,0.4,1,544,1,1,544,0,0,0.6,0.6,-1.19255837513856,-1.19255837513856,750,0,0,neutral,0,866.655218738296,3855.62964740008
26,104,4,477,0.5,-0.5,-0.5,3,3,0.4,3,692,1,1,692,1,0,0.4,NaN,-0.0227745523029932,-0.0227745523029932,750,1,0,congruent,1,838.422115193043,1643.72740184061
26,104,4,478,0.5,-0.5,-0.5,1,1,0.4,1,585,1,1,585,0,0,0.6,NaN,-0.868496640434115,-0.868496640434115,750,1,0,congruent,0,516.511278952254,1149.63116035863
26,104,4,479,-0.5,-0.5,0.5,3,2,0.4,3,800,1,0,800,1,0,0.4,0.6,0.830851480577018,0.830851480577018,750,0,0,incongruent,0.1,772.605470394031,1025.602282178
26,104,4,480,0.5,-0.5,-0.5,1,1,0.4,1,571,1,1,571,0,0,0.6,NaN,-0.979151866918561,-0.979151866918561,750,1,0,congruent,0,309.108406932744,2996.00959169167
26,104,4,481,0.5,0.5,0,3,NaN,0.4,3,596,1,1,596,1,0,0.6,NaN,-0.781553248196336,-0.781553248196336,750,0,0,neutral,1,1249.85374316782,1253.53515621824
26,104,4,482,0.5,0.5,-0.5,4,4,0.6,4,673,1,1,673,1,0,1,NaN,-0.172949502531884,-0.172949502531884,750,1,0,congruent,1,1199.61587556137,2307.84050283553
26,104,4,483,-0.5,0.5,0,2,NaN,0.6,4,609,0,1,NaN,0,0,1,0.4,-0.678801966460779,NaN,750,0,1,neutral,0,5387.22992143622,1422.50736652998
26,104,4,484,0.5,-0.5,-0.5,3,3,0.4,3,952,1,0,952,0,0,1,NaN,2.03225108240814,2.03225108240814,750,1,0,congruent,0,492.520635156298,808.662270132369
26,104,4,485,-0.5,-0.5,0,4,NaN,0.4,4,590,1,1,590,1,0,0.8,0.6,-0.82897691668967,-0.82897691668967,750,0,0,neutral,0.1,1616.12731614232,3642.48271890332
26,104,4,486,0.5,0.5,-0.5,2,2,0.4,2,855,1,0,855,0,0,1,NaN,1.26556844176591,1.26556844176591,750,1,0,congruent,0,1291.02007989231,11546.9028437284
26,104,4,487,-0.5,-0.5,0,1,NaN,0.4,1,567,1,1,567,0,0,0.6,0.8,-1.01076764591412,-1.01076764591412,750,0,0,neutral,0,1235.56858054916,799.728055587692
26,104,4,488,0.5,-0.5,-0.5,4,4,0.4,4,834,1,0,834,0,0,0.2,NaN,1.09958560203924,1.09958560203924,750,1,0,congruent,0,1445.32811273757,5855.42056408548
26,104,4,490,-0.5,0.5,0,3,NaN,0.4,3,692,1,1,692,1,0,0.2,0.4,-0.0227745523029932,-0.0227745523029932,750,0,0,neutral,0.1,3237.51768865777,4428.97969060937
26,104,4,491,0.5,0.5,0.5,2,3,0.4,2,791,1,0,791,0,0,0.2,NaN,0.759715977837017,0.759715977837017,750,0,0,incongruent,0,1336.34891534074,738.018005548848
26,104,4,492,-0.5,-0.5,0.5,1,4,0.2,1,527,1,1,527,1,0,0.2,0.6,-1.32692543586968,-1.32692543586968,750,0,0,incongruent,0.1,472.364254046562,533.573656860125
26,104,4,493,0.5,-0.5,0.5,2,1,0.2,2,794,1,0,794,0,0,0.4,NaN,0.783427812083684,0.783427812083684,750,0,0,incongruent,0,2137.38106787022,2805.29038703099
26,104,4,494,0.5,-0.5,0.5,4,2,0.2,4,833,1,0,833,0,0,0.4,NaN,1.09168165729035,1.09168165729035,750,0,0,incongruent,0,1483.44009471304,5046.94812372107
26,104,4,495,0.5,0.5,-0.5,3,3,0.2,3,634,1,1,634,1,0,0.4,NaN,-0.481203347738555,-0.481203347738555,750,1,0,congruent,1,1462.88224768282,1989.15713378188
26,104,4,496,0.5,-0.5,0,4,NaN,0.4,4,666,1,1,666,0,0,0.6,NaN,-0.228277115774107,-0.228277115774107,750,0,0,neutral,0,1513.76565088509,2558.14188738876
26,104,4,497,-0.5,0.5,-0.5,1,1,0.4,1,599,1,1,599,1,0,0.6,0.6,-0.757841413949669,-0.757841413949669,750,1,0,congruent,0.1,465.033323792772,1559.48977255441
26,104,4,498,0.5,0.5,0,2,NaN,0.6,2,707,1,1,707,1,0,0.6,NaN,0.0957846189303417,0.0957846189303417,750,0,0,neutral,1,1271.87902775464,4686.28990026498
26,104,4,499,-0.5,-0.5,-0.5,1,1,0.8,1,550,1,1,550,1,0,1,0.6,-1.14513470664523,-1.14513470664523,750,1,0,congruent,0.1,2186.34417798058,1943.27178700297
26,104,4,500,-0.5,-0.5,0.5,2,4,0.8,2,588,1,1,588,1,0,1.2,0.8,-0.844784806187448,-0.844784806187448,750,0,0,incongruent,0.1,1870.88312555052,1566.12268017783
26,104,4,501,0.5,0.5,0.5,4,3,0.8,4,784,1,0,784,0,0,1,NaN,0.704388364594794,0.704388364594794,750,0,0,incongruent,0,1504.00577945195,2076.12387730934
26,104,4,502,-0.5,-0.5,-0.5,2,2,0.6,2,779,1,0,779,0,0,1,0.8,0.664868640850349,0.664868640850349,750,1,0,congruent,0,1766.51757821128,2531.45845631783
26,104,4,503,0.5,-0.5,0.5,1,4,0.6,1,623,1,1,623,1,0,0.8,NaN,-0.568146739976334,-0.568146739976334,750,0,0,incongruent,1,568.859761275239,2489.03642079844
26,104,4,504,-0.5,-0.5,-0.5,2,2,0.6,2,631,1,1,631,1,0,0.8,0.6,-0.504915181985222,-0.504915181985222,750,1,0,congruent,0.1,1029.73568379802,808.216374805572
26,104,4,505,0.5,-0.5,-0.5,3,3,0.6,4,799,0,0,NaN,1,0,0.8,NaN,0.822947535828129,NaN,750,0,1,congruent,1,3887.46911309747,4637.02453122018
26,104,4,506,-0.5,-0.5,-0.5,2,2,0.6,2,688,1,1,688,0,0,1,0.8,-0.0543903312985492,-0.0543903312985492,750,1,0,congruent,0,2287.19172922284,3171.69209815806
26,104,4,507,-0.5,-0.5,0,3,NaN,0.6,3,691,1,1,691,1,0,1,0.6,-0.0306784970518822,-0.0306784970518822,750,0,0,neutral,0.1,1313.25177455591,1790.18824090642
26,104,4,508,0.5,-0.5,0.5,2,1,0.6,2,764,1,0,764,0,0,1.2,NaN,0.546309469617014,0.546309469617014,750,0,0,incongruent,0,1900.38493226508,1064.9322283494
26,104,4,509,0.5,-0.5,0,3,NaN,0.6,3,827,1,0,827,1,0,0.8,NaN,1.04425798879702,1.04425798879702,750,0,0,neutral,1,2077.27794594536,1567.35639020492
26,104,4,510,-0.5,-0.5,0.5,4,3,0.6,4,704,1,1,704,0,0,1,0.6,0.0720727846836747,0.0720727846836747,750,0,0,incongruent,0,1850.84836105874,3492.77361187973
26,104,4,511,0.5,0.5,-0.5,1,1,0.6,1,495,1,1,495,1,0,0.6,NaN,-1.57985166783412,-1.57985166783412,750,1,0,congruent,1,959.288755977654,3283.58985406192
26,104,4,512,-0.5,0.5,0.5,3,4,0.8,3,787,1,0,787,0,0,1,0.6,0.728100198841461,0.728100198841461,750,0,0,incongruent,0,663.322668457702,2815.28472359232
26,104,4,513,0.5,0.5,0.5,4,3,0.6,4,765,1,0,765,0,0,0.8,NaN,0.554213414365903,0.554213414365903,750,0,0,incongruent,0,1189.1895265866,3368.36233340301
26,104,4,514,-0.5,-0.5,0.5,3,2,0.4,3,959,1,0,959,0,0,0.8,0.4,2.08757869565037,2.08757869565037,750,0,0,incongruent,0,2635.92702315501,1208.65821030126
26,104,4,515,0.5,0.5,-0.5,4,4,0.4,4,857,1,0,857,0,0,0.4,NaN,1.28137633126369,1.28137633126369,750,1,0,congruent,0,889.593667017326,1550.31039004421
26,104,4,516,-0.5,-0.5,0.5,2,1,0.2,2,763,1,0,763,0,0,0.4,0.4,0.538405524868125,0.538405524868125,750,0,0,incongruent,0,2136.10137241361,2310.41956127892
26,104,4,517,0.5,-0.5,0.5,3,4,0.2,3,842,1,0,842,0,0,0,NaN,1.16281716003036,1.16281716003036,750,0,0,incongruent,0,3917.21910426089,1288.19320607986
26,104,4,518,-0.5,0.5,0,2,NaN,0.2,2,610,1,1,610,1,0,0,0.4,-0.670898021711891,-0.670898021711891,750,0,0,neutral,0.1,1971.20019255941,1765.40496542774
26,104,4,519,0.5,0.5,-0.5,4,4,0.4,4,981,1,0,981,0,0,0.2,NaN,2.26146548012593,2.26146548012593,750,1,0,congruent,0,2435.00903048926,1719.44047634302
26,104,4,520,0.5,0.5,0.5,2,1,0.2,2,716,1,1,716,1,0,0.2,NaN,0.166920121670343,0.166920121670343,750,0,0,incongruent,1,1010.11424837866,3365.94225651081
26,104,4,521,-0.5,-0.5,0,1,NaN,0.4,1,574,1,1,574,1,0,0.6,0.2,-0.955440032671894,-0.955440032671894,750,0,0,neutral,0.1,831.615599388695,1108.39819493875
26,104,4,522,0.5,-0.5,-0.5,4,4,0.4,4,693,1,1,693,0,0,0.8,NaN,-0.0148706075541042,-0.0148706075541042,750,1,0,congruent,0,897.694543048318,1254.975880448
26,104,4,523,-0.5,0.5,0,2,NaN,0.4,2,804,1,0,804,0,0,0.8,0.6,0.862467259572574,0.862467259572574,750,0,0,neutral,0,1801.3945732107,1892.1734008175
26,104,4,524,0.5,-0.5,0.5,4,3,0.4,4,827,1,0,827,1,0,0.6,NaN,1.04425798879702,1.04425798879702,750,0,0,incongruent,1,2189.61192385126,3843.03586797924
26,104,4,525,0.5,-0.5,0.5,3,4,0.4,3,754,1,0,754,1,0,1,NaN,0.467270022128124,0.467270022128124,750,0,0,incongruent,1,845.472482668721,2428.66245960111
26,104,4,526,-0.5,0.5,0,4,NaN,0.4,4,778,1,0,778,0,0,1,0.6,0.65696469610146,0.65696469610146,750,0,0,neutral,0,1240.02964315236,1250.90063526091
26,104,4,527,0.5,0.5,0.5,2,1,0.4,2,647,1,1,647,1,0,0.8,NaN,-0.378452066002998,-0.378452066002998,750,0,0,incongruent,1,951.993336377255,2290.7647032296
26,104,4,528,0.5,0.5,-0.5,3,3,0.4,3,607,1,1,607,1,0,1.2,NaN,-0.694609855958557,-0.694609855958557,750,1,0,congruent,1,1100.58693610403,5433.68387516682
26,104,4,529,-0.5,-0.5,0,2,NaN,0.6,2,922,1,0,922,0,0,1.6,0.4,1.79513273994147,1.79513273994147,750,0,0,neutral,0,2147.51352662351,2242.84327770849
26,104,4,530,-0.5,-0.5,-0.5,1,1,0.6,1,390,1,1,390,1,0,1.2,0.2,-2.40976586646747,-2.40976586646747,750,1,0,congruent,0.1,3346.07607272139,456.093266208419
26,104,4,531,-0.5,0.5,-0.5,3,3,0.6,3,618,1,1,618,1,0,1,0.4,-0.607666463720778,-0.607666463720778,750,1,0,congruent,0.1,1066.69647977924,1448.63975052303
26,104,4,532,0.5,0.5,0,4,NaN,0.6,4,665,1,1,665,1,0,1.2,NaN,-0.236181060522996,-0.236181060522996,750,0,0,neutral,1,1631.98277382727,1541.92049783898
26,104,4,533,-0.5,-0.5,0.5,2,4,0.8,2,852,1,0,852,1,0,1.2,0.4,1.24185660751925,1.24185660751925,750,0,0,incongruent,0.1,1252.68818136422,4275.85868844552
26,104,4,534,-0.5,-0.5,0.5,4,3,0.8,4,725,1,1,725,0,0,1,0.6,0.238055624410344,0.238055624410344,750,0,0,incongruent,0,855.7162330994,1395.65708686431
26,104,4,535,-0.5,0.5,-0.5,1,1,0.8,1,543,1,1,543,1,0,1,0.4,-1.20046231988745,-1.20046231988745,750,1,0,congruent,0.1,1332.50648609986,912.975053081349
26,104,4,536,0.5,0.5,0,4,NaN,1,4,802,1,0,802,0,0,1,NaN,0.846659370074796,0.846659370074796,750,0,0,neutral,0,768.566836594151,2347.00327611654
26,104,4,537,0.5,-0.5,0.5,3,1,0.8,2,785,0,0,NaN,0,0,0.8,NaN,0.712292309343683,NaN,750,0,1,incongruent,0,4787.19476992185,1840.06194911741
26,104,4,538,-0.5,-0.5,0.5,1,2,0.8,1,578,1,1,578,1,0,0.4,0.6,-0.923824253676338,-0.923824253676338,750,0,0,incongruent,0.1,730.077127167195,2704.61654611016
26,104,4,539,0.5,0.5,0.5,3,1,0.8,4,799,0,0,NaN,0,0,0.4,NaN,0.822947535828129,NaN,750,0,1,incongruent,0,7719.5490740004,1366.09603060048
26,104,4,540,-0.5,-0.5,-0.5,4,4,0.6,4,749,1,1,749,0,0,0.4,0.6,0.427750298383679,0.427750298383679,750,1,0,congruent,0,748.300219426334,4203.06288925962
26,104,4,541,-0.5,-0.5,0,1,NaN,0.6,1,569,1,1,569,0,0,0.2,0.6,-0.994959756416339,-0.994959756416339,750,0,0,neutral,0,837.479113362927,1452.11664211604
26,104,4,543,0.5,-0.5,0,4,NaN,0.6,3,766,0,0,NaN,0,0,0.4,NaN,0.562117359114792,NaN,750,0,1,neutral,0,4655.91822907095,5000.71171729748
26,104,4,544,0.5,-0.5,0.5,2,1,0.6,2,716,1,1,716,1,0,0.2,NaN,0.166920121670343,0.166920121670343,750,0,0,incongruent,1,482.112345383754,2447.46265996209
26,104,4,545,0.5,-0.5,0,3,NaN,0.6,3,802,1,0,802,0,0,0.6,NaN,0.846659370074796,0.846659370074796,750,0,0,neutral,0,878.545231968339,1010.48251320825
26,104,4,546,0.5,0.5,-0.5,2,2,0.6,2,576,1,1,576,1,0,0.6,NaN,-0.939632143174116,-0.939632143174116,750,1,0,congruent,1,529.682615766116,3037.03011749237
26,104,4,548,0.5,-0.5,0,3,NaN,0.4,3,796,1,0,796,0,0,0.8,NaN,0.799235701581462,0.799235701581462,750,0,0,neutral,0,773.419441072474,3661.76853127857
26,104,4,549,-0.5,-0.5,-0.5,2,2,0.4,2,734,1,1,734,0,0,0.8,0.4,0.309191127150344,0.309191127150344,750,1,0,congruent,0,967.303938501063,876.840947323206
26,104,4,550,0.5,0.5,-0.5,1,1,0.4,1,592,1,1,592,1,0,0.4,NaN,-0.813169027191892,-0.813169027191892,750,1,0,congruent,1,2972.64064639552,491.163784902764
26,104,4,551,0.5,-0.5,0.5,2,4,0.4,2,977,1,0,977,1,0,0.8,NaN,2.22984970113037,2.22984970113037,750,0,0,incongruent,1,1052.23151350005,1367.04836742965
26,104,4,552,0.5,-0.5,0.5,4,3,0.4,4,728,1,1,728,0,0,0.8,NaN,0.26176745865701,0.26176745865701,750,0,0,incongruent,0,2391.875871484,3214.26034399914
26,104,4,553,-0.5,0.5,0,1,NaN,0.4,1,654,1,1,654,1,0,0.8,0.4,-0.323124452760775,-0.323124452760775,750,0,0,neutral,0.1,848.460536077393,1133.38783568854
26,104,4,554,0.5,0.5,-0.5,4,4,0.6,4,863,1,0,863,0,0,1,NaN,1.32879999975702,1.32879999975702,750,1,0,congruent,0,797.743596244633,1667.61988737706
26,104,4,555,-0.5,0.5,0.5,2,3,0.6,2,765,1,0,765,0,0,1,0.6,0.554213414365903,0.554213414365903,750,0,0,incongruent,0,1392.04943554351,1907.32600746133
26,104,4,556,0.5,-0.5,0,1,NaN,0.4,1,450,1,1,450,0,0,0.6,NaN,-1.93552918153413,-1.93552918153413,750,0,0,neutral,0,534.831599553724,599.562298058238
26,104,4,557,-0.5,0.5,0.5,4,3,0.4,4,833,1,0,833,0,0,0.2,0.6,1.09168165729035,1.09168165729035,750,0,0,incongruent,0,687.509270301344,2832.46807637764
26,104,4,558,0.5,-0.5,0.5,1,2,0.4,1,563,1,1,563,1,0,0.2,NaN,-1.04238342490967,-1.04238342490967,750,0,0,incongruent,1,797.381101294544,967.851264603511
26,104,4,559,0.5,0.5,-0.5,3,3,0.4,3,937,1,0,937,0,0,0.4,NaN,1.91369191117481,1.91369191117481,750,1,0,congruent,0,3398.93556125089,1309.55737115935
26,104,4,560,-0.5,-0.5,0.5,4,2,0.2,4,962,1,0,962,0,0,0.4,0.4,2.11129052989703,2.11129052989703,750,0,0,incongruent,0,2047.43649596837,1077.2990879834
26,104,4,561,-0.5,-0.5,0,3,NaN,0.2,3,759,1,0,759,0,0,0.4,0.2,0.506789745872569,0.506789745872569,750,0,0,neutral,0,2149.51253329221,1734.46295251587
26,104,4,563,0.5,0.5,-0.5,1,1,0.2,1,775,1,0,775,0,0,0.6,NaN,0.633252861854793,0.633252861854793,750,1,0,congruent,0,1732.18132031419,1071.04938611911
26,104,4,564,-0.5,0.5,0,3,NaN,0,3,788,1,0,788,0,0,0.2,0.4,0.73600414359035,0.73600414359035,750,0,0,neutral,0,853.235694668576,960.980695929922
26,104,4,565,-0.5,-0.5,-0.5,4,4,0,4,637,1,1,637,0,0,0.2,0.4,-0.457491513491888,-0.457491513491888,750,1,0,congruent,0,2822.60129115019,877.02220090507
26,104,4,566,-0.5,-0.5,-0.5,1,1,0,1,512,1,1,512,0,0,0.2,0.2,-1.44548460710301,-1.44548460710301,750,1,0,congruent,0,1939.88661465215,1259.33623608212
26,104,4,567,0.5,-0.5,0.5,4,3,0,4,755,1,0,755,0,0,0.2,NaN,0.475173966877013,0.475173966877013,750,0,0,incongruent,0,639.57426284059,2339.88735741571
26,104,4,568,-0.5,-0.5,-0.5,1,1,0,1,751,1,0,751,0,0,0,0.2,0.443558187881457,0.443558187881457,750,1,0,congruent,0,602.197662653553,2513.20842267701
26,104,4,569,-0.5,0.5,-0.5,4,4,0,4,851,1,0,851,0,0,0,0.2,1.23395266277036,1.23395266277036,750,1,0,congruent,0,3008.33055441095,3211.43394535927
26,104,4,570,0.5,-0.5,-0.5,2,2,0,2,673,1,1,673,0,0,0,NaN,-0.172949502531884,-0.172949502531884,750,1,0,congruent,0,491.19170971487,1070.80418170023
26,104,4,571,0.5,-0.5,0.5,4,3,0,4,928,1,0,928,0,0,0,NaN,1.84255640843481,1.84255640843481,750,0,0,incongruent,0,1547.64535218734,3008.50968541319
26,104,4,572,0.5,0.5,-0.5,1,1,0,1,767,1,0,767,0,0,0,NaN,0.570021303863681,0.570021303863681,750,1,0,congruent,0,1091.02953780339,2669.93382212006
26,104,4,573,-0.5,0.5,-0.5,4,4,0,4,932,1,0,932,0,0,0,0.2,1.87417218743036,1.87417218743036,750,1,0,congruent,0,1156.92659986553,790.831373062272
26,104,4,574,0.5,0.5,0.5,2,1,0,2,735,1,1,735,1,0,0,NaN,0.317095071899233,0.317095071899233,750,0,0,incongruent,1,827.194227616366,2299.7401570548
26,104,4,575,-0.5,-0.5,0.5,1,2,0.2,1,621,1,1,621,0,0,0.4,0.2,-0.583954629474112,-0.583954629474112,750,0,0,incongruent,0,1152.12868082051,2624.32594680033
26,104,4,576,-0.5,0.5,0,2,NaN,0.2,2,954,1,0,954,0,0,0.4,0,2.04805897190592,2.04805897190592,750,0,0,neutral,0,1021.11578078316,1418.08037309248
26,104,4,579,0.5,-0.5,-0.5,2,2,0.2,2,753,1,0,753,0,0,0.6,NaN,0.459366077379235,0.459366077379235,750,1,0,congruent,0,1355.26358558307,2190.7045621364
26,104,4,581,0.5,-0.5,-0.5,1,1,0.2,1,570,1,1,570,0,0,0.2,NaN,-0.98705581166745,-0.98705581166745,750,1,0,congruent,0,1315.61463482124,876.157014535412
26,104,4,582,-0.5,-0.5,0,3,NaN,0.2,3,764,1,0,764,0,0,0.2,0.2,0.546309469617014,0.546309469617014,750,0,0,neutral,0,832.133573986121,1321.12896228947
26,104,4,583,0.5,0.5,-0.5,4,4,0.2,4,885,1,0,885,0,0,0.2,NaN,1.50268678423258,1.50268678423258,750,1,0,congruent,0,2491.00687121609,1896.21116681724
26,104,4,584,0.5,-0.5,0.5,1,3,0.2,1,580,1,1,580,0,0,0,NaN,-0.90801636417856,-0.90801636417856,750,0,0,incongruent,0,1600.97687966559,1340.97381660967
26,104,4,585,0.5,0.5,0,2,NaN,0.2,2,716,1,1,716,1,0,0,NaN,0.166920121670343,0.166920121670343,750,0,0,neutral,1,2879.20278870751,1392.56439448988
26,104,4,586,0.5,-0.5,-0.5,3,3,0.4,4,784,0,0,NaN,1,0,0.4,NaN,0.704388364594794,NaN,750,0,1,congruent,1,3541.44547808596,790.074852326018
26,104,4,587,0.5,0.5,-0.5,4,4,0.4,4,792,1,0,792,0,0,0.8,NaN,0.767619922585906,0.767619922585906,750,1,0,congruent,0,1148.16698231464,2148.85193085411
26,104,4,588,-0.5,-0.5,0.5,1,2,0.2,1,641,1,1,641,1,0,0.8,0.2,-0.425875734496332,-0.425875734496332,750,0,0,incongruent,0.1,1028.87572621704,3689.77038354526
26,104,4,589,-0.5,0.5,0,4,NaN,0.2,4,650,1,1,650,1,0,1,0,-0.354740231756331,-0.354740231756331,750,0,0,neutral,0.1,1103.09763622341,3063.18834829601
26,104,4,590,-0.5,0.5,-0.5,1,1,0.4,1,527,1,1,527,1,0,1.2,0.2,-1.32692543586968,-1.32692543586968,750,1,0,congruent,0.1,634.95607136415,1016.21717896572
26,104,4,591,0.5,-0.5,0.5,2,3,0.6,3,933,0,0,NaN,0,0,1,NaN,1.88207613217925,NaN,750,1,0,incongruent,0,3125.0879566596,453.58372122037
26,104,4,593,-0.5,0.5,0.5,1,3,0.6,1,596,1,1,596,1,0,1,0.4,-0.781553248196336,-0.781553248196336,750,0,0,incongruent,0.1,618.038909876424,1406.93359227364
26,104,4,594,-0.5,-0.5,-0.5,2,2,0.8,2,632,1,1,632,1,0,1,0.4,-0.497011237236333,-0.497011237236333,750,1,0,congruent,0.1,1256.42285664025,1258.86757223703
26,104,4,595,0.5,0.5,0,4,NaN,0.8,4,749,1,1,749,1,0,1,NaN,0.427750298383679,0.427750298383679,750,0,0,neutral,1,3798.6887034137,9171.82024588586
26,104,4,596,-0.5,0.5,-0.5,1,1,0.8,1,582,1,1,582,1,0,1.2,0.6,-0.892208474680782,-0.892208474680782,750,1,0,congruent,0.1,1612.25898493246,863.49836051667
26,104,4,597,-0.5,-0.5,0,2,NaN,1,2,938,1,0,938,1,0,1.4,0.6,1.9215958559237,1.9215958559237,750,0,0,neutral,0.1,2352.40506316815,4011.79191742081
26,104,4,599,-0.5,0.5,-0.5,2,2,1,2,755,1,0,755,0,0,1.4,0.8,0.475173966877013,0.475173966877013,750,1,0,congruent,0,1330.92206946247,1875.38114410527
26,104,4,600,0.5,0.5,-0.5,1,1,0.8,1,576,1,1,576,1,0,1.2,NaN,-0.939632143174116,-0.939632143174116,750,1,0,congruent,1,1283.52818321567,2382.50713977732
