subid,vers,block,trial,rewlvl,efflvl,congruency,targetresp,distractorresp,rollingefflvl,resp,rt,acc,fast,accrt,isrewarded,ismiss,runavgrrgen,runavgrrcond,zrt,acczrt,rtthreshold,isdisterror,isranderror,congruence,feedback,fcz_resp_theta,fcz_resp_theta_baseline
28,104,1,1,-0.5,0.5,0.5,2,1,0.4,4,733,0,1,NaN,0,0,0,0,0.613572683490539,NaN,750,0,1,incongruent,0,1399.38217622417,5884.91125167439
28,104,1,2,-0.5,0.5,-0.5,3,3,0.3,4,580,0,1,NaN,0,0,0,0,-0.387500458105984,NaN,750,0,1,congruent,0,5412.45723334886,2034.16136156789
28,104,1,3,0.5,-0.5,0.5,2,4,0.2,3,768,0,0,NaN,0,0,0,NaN,0.84257634333288,NaN,750,0,1,incongruent,0,3852.47906873376,4109.01892166742
28,104,1,4,0.5,0.5,0,4,NaN,0.2,4,577,1,1,577,1,0,0,NaN,-0.407129343235327,-0.407129343235327,750,0,0,neutral,1,458.550686792986,1478.46522325387
28,104,1,5,-0.5,0.5,0.5,2,1,0.3,2,953,1,0,953,0,0,0.4,0,2.0530242596424,2.0530242596424,750,0,0,incongruent,0,4240.69992334226,581.364494589527
28,104,1,6,-0.5,0.5,0,3,NaN,0.2,3,743,1,1,743,1,0,0.4,0,0.67900230058835,0.67900230058835,750,0,0,neutral,0.1,1615.10003060702,3345.73387547937
28,104,1,7,-0.5,-0.5,-0.5,1,1,0.4,1,632,1,1,632,0,0,0.6,0,-0.0472664491973619,-0.0472664491973619,750,1,0,congruent,0,1709.20642816804,1605.8558671456
28,104,1,8,0.5,0.5,0.5,2,3,0.4,2,770,1,0,770,0,0,0.6,NaN,0.855662266752443,0.855662266752443,750,0,0,incongruent,0,3499.80497782144,5766.54434944323
28,104,1,9,0.5,-0.5,0.5,1,2,0.4,1,663,1,1,663,0,0,0.6,NaN,0.155565363805855,0.155565363805855,750,0,0,incongruent,0,1130.22758075779,1348.21472914931
28,104,1,10,-0.5,-0.5,0,4,NaN,0.4,4,594,1,1,594,1,0,0.2,0,-0.295898994169047,-0.295898994169047,750,0,0,neutral,0.1,1016.03309157755,2353.33897919391
28,104,1,11,-0.5,0.5,-0.5,3,3,0.4,4,630,0,1,NaN,0,0,0.4,0.2,-0.0603523726169243,NaN,750,0,1,congruent,0,2802.60432630046,858.89748903856
28,104,1,12,0.5,-0.5,0.5,4,2,0.4,4,864,1,0,864,0,0,0.2,NaN,1.47070066747187,1.47070066747187,750,0,0,incongruent,0,3812.03996199582,5540.31544652005
28,104,1,13,-0.5,0.5,0.5,2,1,0.4,2,859,1,0,859,0,0,0.2,0.2,1.43798585892297,1.43798585892297,750,0,0,incongruent,0,1582.03880479639,5231.23350329496
28,104,1,14,-0.5,0.5,0,3,NaN,0.2,4,580,0,1,NaN,0,0,0.2,0.2,-0.387500458105984,NaN,750,0,1,neutral,0,3215.66191470007,2386.02046701629
28,104,1,15,-0.5,-0.5,0.5,4,1,0.2,4,709,1,1,709,0,0,0.2,0.2,0.45654160245579,0.45654160245579,750,0,0,incongruent,0,1869.86902313447,3015.14330162993
28,104,1,16,0.5,-0.5,0.5,1,3,0.2,2,689,0,1,NaN,0,0,0,NaN,0.325682368260166,NaN,750,0,1,incongruent,0,4168.07413106411,2485.19486536582
28,104,1,17,0.5,0.5,0,3,NaN,0.2,4,552,0,1,NaN,0,0,0,NaN,-0.570703385979857,NaN,750,0,1,neutral,0,5309.98970035135,747.601720980336
28,104,1,18,-0.5,-0.5,-0.5,1,1,0,1,519,1,1,519,0,0,0,0.2,-0.786621122402637,-0.786621122402637,750,1,0,congruent,0,677.984331398624,1253.4927894423
28,104,1,19,0.5,-0.5,-0.5,3,3,0,3,878,1,0,878,0,0,0,NaN,1.56230213140881,1.56230213140881,750,1,0,congruent,0,1491.28954684223,2349.39106432433
28,104,1,20,0.5,0.5,0.5,1,2,0,1,536,1,1,536,1,0,0,NaN,-0.675390773336356,-0.675390773336356,750,0,0,incongruent,1,3710.1218265021,1698.0064039338
28,104,1,21,-0.5,-0.5,0.5,2,4,0.2,2,769,1,0,769,0,0,0.4,0.2,0.849119305042661,0.849119305042661,750,0,0,incongruent,0,2683.37860242487,3942.07457914248
28,104,1,22,0.5,0.5,0.5,4,2,0.2,3,668,0,1,NaN,0,0,0.4,NaN,0.188280172354761,NaN,750,0,1,incongruent,0,5030.80924298531,2627.72304602084
28,104,1,23,-0.5,-0.5,-0.5,1,1,0.2,1,537,1,1,537,0,0,0.4,0.2,-0.668847811626575,-0.668847811626575,750,1,0,congruent,0,2702.96720017443,2677.51275893742
28,104,1,24,0.5,-0.5,0,2,NaN,0.2,3,618,0,1,NaN,0,0,0.4,NaN,-0.138867913134299,NaN,750,0,1,neutral,0,1336.2294185134,2385.12577131579
28,104,1,25,0.5,0.5,-0.5,3,3,0.2,3,633,1,1,633,1,0,0.4,NaN,-0.0407234874875807,-0.0407234874875807,750,1,0,congruent,1,6176.88867101387,1530.09795367444
28,104,1,26,0.5,-0.5,0.5,1,2,0.4,1,823,1,0,823,0,0,0.4,NaN,1.20243923737085,1.20243923737085,750,0,0,incongruent,0,2134.23485566277,4733.47691242428
28,104,1,27,0.5,0.5,-0.5,4,4,0.4,4,515,1,1,515,1,0,0.4,NaN,-0.812792969241761,-0.812792969241761,750,1,0,congruent,1,2160.21783924669,899.705582446923
28,104,1,28,-0.5,-0.5,0,1,NaN,0.6,1,654,1,1,654,1,0,0.8,0.2,0.0966787084178243,0.0966787084178243,750,0,0,neutral,0.1,2127.61214868684,1181.32573291262
28,104,1,29,0.5,0.5,-0.5,3,3,0.6,3,623,1,1,623,1,0,1,NaN,-0.106153104585393,-0.106153104585393,750,1,0,congruent,1,3051.25864438915,3559.18057274697
28,104,1,30,0.5,0.5,0,4,NaN,0.8,4,598,1,1,598,1,0,1.4,NaN,-0.269727147329922,-0.269727147329922,750,0,0,neutral,1,245.319886294174,2010.807627971
28,104,1,31,-0.5,-0.5,-0.5,2,2,0.8,1,524,0,1,NaN,0,0,1.4,0.2,-0.753906313853731,NaN,750,0,1,congruent,0,6684.60253335353,1664.41057033111
28,104,1,32,0.5,-0.5,0.5,1,3,0.8,1,572,1,1,572,1,0,1.4,NaN,-0.439844151784233,-0.439844151784233,750,0,0,incongruent,1,2431.88864833025,2446.02529125151
28,104,1,33,-0.5,-0.5,-0.5,4,4,0.8,4,594,1,1,594,0,0,1.4,0.2,-0.295898994169047,-0.295898994169047,750,1,0,congruent,0,899.271318953698,1373.68683014075
28,104,1,34,-0.5,-0.5,0.5,2,1,0.8,2,677,1,1,677,1,0,1.2,0.2,0.247166827742792,0.247166827742792,750,0,0,incongruent,0.1,12761.908534383,2930.02217358394
28,104,1,35,0.5,-0.5,0.5,1,2,0.8,2,607,0,1,NaN,1,0,1,NaN,-0.210840491941892,NaN,750,1,0,incongruent,1,3352.56554683849,7023.01145373344
28,104,1,36,-0.5,0.5,0.5,2,1,0.8,2,638,1,1,638,1,0,1,0.2,-0.00800867893867474,-0.00800867893867474,750,0,0,incongruent,0.1,1550.32978705274,1723.24387400612
28,104,1,37,0.5,0.5,-0.5,4,4,1,4,456,1,1,456,1,0,1.2,NaN,-1.19882771011885,-1.19882771011885,750,1,0,congruent,1,2565.58898071148,4128.21267055615
28,104,1,38,-0.5,0.5,0,2,NaN,1,3,529,0,1,NaN,0,0,1.2,0.4,-0.721191505304825,NaN,750,0,1,neutral,0,3373.89162947083,2410.87230869638
28,104,1,39,-0.5,-0.5,0.5,3,1,0.8,3,784,1,0,784,0,0,1.2,0.4,0.947263730689379,0.947263730689379,750,0,0,incongruent,0,2436.34553196533,1431.28863107098
28,104,1,40,-0.5,-0.5,-0.5,2,2,0.8,1,560,0,1,NaN,1,0,1,0.4,-0.518359692301608,NaN,750,0,1,congruent,0.1,4764.1385663176,6303.23924024841
28,104,1,41,0.5,-0.5,0,4,NaN,0.8,4,581,1,1,581,1,0,0.8,NaN,-0.380957496396203,-0.380957496396203,750,0,0,neutral,1,1974.22615762482,2760.59323765418
28,104,1,42,-0.5,-0.5,-0.5,3,3,0.8,3,584,1,1,584,1,0,1,0.4,-0.361328611266859,-0.361328611266859,750,1,0,congruent,0.1,1033.09606770591,1255.4265248979
28,104,1,43,-0.5,-0.5,0,4,NaN,0.8,4,527,1,1,527,1,0,0.8,0.6,-0.734277428724387,-0.734277428724387,750,0,0,neutral,0.1,727.697549426661,2579.0617756691
28,104,1,44,0.5,-0.5,-0.5,1,1,0.8,1,467,1,1,467,1,0,1,NaN,-1.12685513131126,-1.12685513131126,750,1,0,congruent,1,3248.16124017749,278.838261454799
28,104,1,45,0.5,0.5,-0.5,4,4,0.8,4,559,1,1,559,1,0,1.4,NaN,-0.524902654011389,-0.524902654011389,750,1,0,congruent,1,4494.6828967059,1456.30663030294
28,104,1,46,0.5,-0.5,0,3,NaN,0.8,3,581,1,1,581,0,0,1.6,NaN,-0.380957496396203,-0.380957496396203,750,0,0,neutral,0,3805.55457373559,1043.86118203737
28,104,1,47,0.5,0.5,-0.5,2,2,0.8,2,527,1,1,527,1,0,1.2,NaN,-0.734277428724387,-0.734277428724387,750,1,0,congruent,1,3487.85256015572,4105.66379471109
28,104,1,48,-0.5,0.5,-0.5,4,4,0.8,4,534,1,1,534,1,0,1.4,0.2,-0.688476696755919,-0.688476696755919,750,1,0,congruent,0.1,699.90230024794,2378.68983289232
28,104,1,49,0.5,0.5,0.5,3,2,0.8,2,831,0,0,NaN,0,0,1.4,NaN,1.2547829310491,NaN,750,1,0,incongruent,0,7072.1486345344,1693.73314130429
28,104,1,50,0.5,0.5,0.5,4,3,0.6,1,751,0,0,NaN,0,0,1,NaN,0.7313459942666,NaN,750,0,1,incongruent,0,3059.64790682289,3995.19945787341
28,104,1,51,-0.5,-0.5,-0.5,1,1,0.6,1,544,1,1,544,0,0,0.6,0.8,-0.623047079658107,-0.623047079658107,750,1,0,congruent,0,1705.28486970778,957.126755170786
28,104,1,52,-0.5,0.5,-0.5,4,4,0.6,4,640,1,1,640,1,0,0.6,0.4,0.00507724448088765,0.00507724448088765,750,1,0,congruent,0.1,7235.33851339457,2654.03195502235
28,104,1,53,-0.5,0.5,-0.5,3,3,0.6,3,552,1,1,552,1,0,0.4,0.6,-0.570703385979857,-0.570703385979857,750,1,0,congruent,0.1,3637.06900905641,502.021852356453
28,104,1,54,-0.5,0.5,-0.5,2,2,0.6,2,560,1,1,560,1,0,0.4,0.8,-0.518359692301608,-0.518359692301608,750,1,0,congruent,0.1,3671.18657967296,595.321740293602
28,104,1,55,0.5,0.5,-0.5,4,4,0.6,4,467,1,1,467,1,0,0.6,NaN,-1.12685513131126,-1.12685513131126,750,1,0,congruent,1,3037.91973644105,2963.90880598105
28,104,1,56,-0.5,0.5,0.5,3,1,0.8,4,570,0,1,NaN,0,0,1,0.8,-0.452930075203796,NaN,750,0,1,incongruent,0,3921.75840700216,3308.65887901507
28,104,1,57,0.5,-0.5,-0.5,2,2,0.8,3,653,0,1,NaN,1,0,1,NaN,0.0901357467080431,NaN,750,0,1,congruent,1,475.414855432592,4434.05873002703
28,104,1,58,-0.5,0.5,0,4,NaN,0.8,4,501,1,1,501,1,0,1.2,0.8,-0.904394433178698,-0.904394433178698,750,0,0,neutral,0.1,2187.27168126743,4105.06313242031
28,104,1,59,-0.5,-0.5,-0.5,2,2,0.8,3,681,0,1,NaN,0,0,1.2,0.6,0.273338674581917,NaN,750,0,1,congruent,0,3230.30695591887,3991.49228833068
28,104,1,60,0.5,0.5,-0.5,4,4,0.8,4,480,1,1,480,1,0,1,NaN,-1.0417966290841,-1.0417966290841,750,1,0,congruent,1,2046.73957417612,1726.72194679243
28,104,1,61,-0.5,0.5,0,3,NaN,0.8,4,563,0,1,NaN,0,0,1,0.8,-0.498730807172264,NaN,750,0,1,neutral,0,1663.54159711606,578.095024924223
28,104,1,62,-0.5,-0.5,0.5,4,2,0.6,2,810,0,0,NaN,0,0,1,0.6,1.11738073514369,NaN,750,1,0,incongruent,0,4246.93870418663,2598.7379936731
28,104,1,63,0.5,-0.5,0,2,NaN,0.6,2,652,1,1,652,1,0,0.6,NaN,0.0835927849982619,0.0835927849982619,750,0,0,neutral,1,4713.02291896892,2361.65775720602
28,104,1,64,0.5,-0.5,-0.5,1,1,0.6,1,384,1,1,384,0,0,0.8,NaN,-1.6699209532231,-1.6699209532231,750,1,0,congruent,0,2473.05369057911,691.562939827531
28,104,1,65,-0.5,0.5,-0.5,4,4,0.6,4,476,1,1,476,1,0,0.8,0.6,-1.06796847592323,-1.06796847592323,750,1,0,congruent,0.1,1202.02595398437,741.931658577299
28,104,1,67,0.5,0.5,-0.5,2,2,0.6,3,560,0,1,NaN,0,0,0.8,NaN,-0.518359692301608,NaN,750,0,1,congruent,0,3048.09891844122,2057.93053364583
28,104,1,68,0.5,0.5,-0.5,3,3,0.6,3,674,1,1,674,1,0,0.8,NaN,0.227537942613448,0.227537942613448,750,1,0,congruent,1,1466.23983766799,2820.99677742984
28,104,1,69,0.5,0.5,-0.5,1,1,0.6,2,433,0,1,NaN,0,0,0.8,NaN,-1.34931582944382,NaN,750,0,1,congruent,0,1873.45228332675,3340.87176257887
28,104,1,70,0.5,-0.5,0,3,NaN,0.4,1,518,0,1,NaN,0,0,0.8,NaN,-0.793164084112418,NaN,750,0,1,neutral,0,1710.25586123897,2896.1509122943
28,104,1,71,-0.5,-0.5,-0.5,4,4,0.4,4,505,1,1,505,0,0,0.6,0.4,-0.878222586339573,-0.878222586339573,750,1,0,congruent,0,4656.84661652893,2123.26835398152
28,104,1,72,-0.5,0.5,-0.5,3,3,0.4,3,623,1,1,623,1,0,0.4,0.6,-0.106153104585393,-0.106153104585393,750,1,0,congruent,0.1,3309.74356571941,3032.08882433916
28,104,1,73,0.5,-0.5,0.5,4,1,0.6,4,894,1,0,894,1,0,0.6,NaN,1.66698951876531,1.66698951876531,750,0,0,incongruent,1,2427.33366785658,2974.37643148502
28,104,1,74,-0.5,-0.5,-0.5,2,2,0.6,3,645,0,1,NaN,1,0,0.6,0.2,0.0377920530297936,NaN,750,0,1,congruent,0.1,1237.53963871669,959.488234759527
28,104,1,75,0.5,0.5,0.5,3,1,0.6,1,686,0,1,NaN,0,0,0.8,NaN,0.306053483130822,NaN,750,1,0,incongruent,0,6358.54574334455,2949.40764288092
28,104,1,76,-0.5,-0.5,0,1,NaN,0.4,1,855,1,0,855,0,0,0.8,0.4,1.41181401208384,1.41181401208384,750,0,0,neutral,0,1223.76255129687,1673.94667415732
28,104,1,77,0.5,0.5,0.5,2,4,0.4,4,495,0,1,NaN,0,0,0.8,NaN,-0.943652203437385,NaN,750,1,0,incongruent,0,7711.05873809244,1089.84933696527
28,104,1,78,-0.5,-0.5,-0.5,1,1,0.4,3,308,0,1,NaN,1,0,0.6,0.4,-2.16718604316647,NaN,750,0,1,congruent,0.1,4051.51125830774,1728.35229946683
28,104,1,79,0.5,-0.5,0,2,NaN,0.4,2,356,1,1,356,0,0,0.4,NaN,-1.85312388109697,-1.85312388109697,750,0,0,neutral,0,1328.39794432527,1703.31720788803
28,104,1,80,0.5,-0.5,0.5,4,1,0.4,4,272,1,1,272,0,0,0.2,NaN,-2.40273266471859,-2.40273266471859,750,0,0,incongruent,0,2494.96810923177,926.240056132791
28,104,1,81,-0.5,-0.5,0.5,3,2,0.4,2,666,0,1,NaN,1,0,0.2,0.6,0.175194248935199,NaN,750,1,0,incongruent,0.1,2523.91370480691,2425.66439226155
28,104,1,82,-0.5,-0.5,-0.5,1,1,0.4,3,354,0,1,NaN,0,0,0.4,0.6,-1.86620980451653,NaN,750,0,1,congruent,0,3313.29040748718,3310.82286855207
28,104,1,83,-0.5,0.5,-0.5,4,4,0.4,4,431,1,1,431,1,0,0.4,0.6,-1.36240175286338,-1.36240175286338,750,1,0,congruent,0.1,2570.25150545483,1624.95590419308
28,104,1,84,-0.5,-0.5,-0.5,3,3,0.4,2,260,0,1,NaN,0,0,0.4,0.6,-2.48124820523597,NaN,750,0,1,congruent,0,1881.24085799342,848.026626815522
28,104,1,85,-0.5,0.5,0.5,1,2,0.4,1,558,1,1,558,1,0,0.4,0.8,-0.53144561572117,-0.53144561572117,750,0,0,incongruent,0.1,6218.42358863538,1504.25924033011
28,104,1,86,0.5,-0.5,0.5,4,3,0.6,4,499,1,1,499,1,0,0.6,NaN,-0.91748035659826,-0.91748035659826,750,0,0,incongruent,1,1755.72396973398,5789.42094667742
28,104,1,87,0.5,0.5,-0.5,2,2,0.6,2,537,1,1,537,1,0,0.8,NaN,-0.668847811626575,-0.668847811626575,750,1,0,congruent,1,2617.3726378713,803.051344397876
28,104,1,88,0.5,0.5,0,1,NaN,0.6,1,788,1,0,788,0,0,1.2,NaN,0.973435577528504,0.973435577528504,750,0,0,neutral,0,1686.49402670958,929.970691835582
28,104,1,89,0.5,-0.5,-0.5,3,3,0.6,4,531,0,1,NaN,1,0,1,NaN,-0.708105581885262,NaN,750,0,1,congruent,1,8963.86894035176,3601.46205298479
28,104,1,90,-0.5,-0.5,-0.5,2,2,0.6,1,421,0,1,NaN,1,0,1.4,0.4,-1.42783136996119,NaN,750,0,1,congruent,0.1,5566.9403529556,363.814995483935
28,104,1,91,0.5,0.5,-0.5,3,3,0.6,3,694,1,1,694,1,0,1.4,NaN,0.358397176809072,0.358397176809072,750,1,0,congruent,1,770.388334704172,2126.8914979674
28,104,1,92,-0.5,-0.5,0,2,NaN,0.8,4,579,0,1,NaN,1,0,1.4,0.6,-0.394043419815765,NaN,750,0,1,neutral,0.1,6319.79505935242,2219.88598045881
28,104,1,93,-0.5,-0.5,0.5,4,3,0.8,2,345,0,1,NaN,0,0,1.2,0.6,-1.92509645990456,NaN,750,0,1,incongruent,0,5941.13609097416,5393.58906447649
28,104,1,94,0.5,-0.5,0.5,1,4,0.8,1,674,1,1,674,1,0,1.2,NaN,0.227537942613448,0.227537942613448,750,0,0,incongruent,1,6325.49714050944,583.967638742222
28,104,1,95,0.5,0.5,0.5,2,1,0.8,2,724,1,1,724,1,0,1.2,NaN,0.554686028102508,0.554686028102508,750,0,0,incongruent,1,3682.17967302215,1192.42746552786
28,104,1,96,-0.5,0.5,0,3,NaN,0.8,3,694,1,1,694,1,0,1.4,0.8,0.358397176809072,0.358397176809072,750,0,0,neutral,0.1,2502.53556921154,3673.49334758978
28,104,1,97,-0.5,0.5,0.5,4,1,0.8,4,602,1,1,602,1,0,1.2,1,-0.243555300490798,-0.243555300490798,750,0,0,incongruent,0.1,4302.84841591939,2496.75337832018
28,104,1,98,-0.5,-0.5,0.5,1,2,0.8,2,580,0,1,NaN,1,0,1.2,0.4,-0.387500458105984,NaN,750,1,0,incongruent,0.1,6557.63337779167,1665.10798179391
28,104,1,99,-0.5,0.5,0,2,NaN,0.8,2,812,1,0,812,0,0,1.4,1,1.13046665856325,1.13046665856325,750,0,0,neutral,0,1578.36501141617,1206.35950220679
28,104,1,100,-0.5,-0.5,0.5,3,2,0.8,2,726,0,1,NaN,1,0,1,0.6,0.56777195152207,NaN,750,1,0,incongruent,0.1,4899.18469082876,3587.77025838596
28,104,1,101,-0.5,-0.5,0,1,NaN,0.8,1,456,1,1,456,0,0,0.8,0.8,-1.19882771011885,-1.19882771011885,750,0,0,neutral,0,4755.11855331514,2579.61082390206
28,104,1,102,0.5,0.5,-0.5,3,3,0.8,3,637,1,1,637,1,0,0.6,NaN,-0.0145516406484559,-0.0145516406484559,750,1,0,congruent,1,1327.99873040841,2678.23405586126
28,104,1,103,-0.5,-0.5,0.5,2,4,0.8,2,687,1,1,687,1,0,0.8,0.6,0.312596444840604,0.312596444840604,750,0,0,incongruent,0.1,1650.70499144039,2464.53151541471
28,104,1,104,-0.5,-0.5,-0.5,1,1,0.8,1,490,1,1,490,1,0,0.8,0.6,-0.976367011986291,-0.976367011986291,750,1,0,congruent,0.1,2923.59367939501,875.918532314845
28,104,1,105,0.5,0.5,0,3,NaN,0.8,3,694,1,1,694,1,0,1,NaN,0.358397176809072,0.358397176809072,750,0,0,neutral,1,2955.1350548138,204.646594665039
28,104,1,106,0.5,0.5,-0.5,4,4,0.8,4,952,1,0,952,0,0,1.2,NaN,2.04648129793262,2.04648129793262,750,1,0,congruent,0,2251.70701467832,3422.82930053734
28,104,1,107,-0.5,-0.5,-0.5,3,3,0.6,3,614,1,1,614,1,0,1.2,0.8,-0.165039759973423,-0.165039759973423,750,1,0,congruent,0.1,741.788166795065,3270.01416957676
28,104,1,108,-0.5,0.5,-0.5,4,4,0.6,4,577,1,1,577,1,0,1,0.8,-0.407129343235327,-0.407129343235327,750,1,0,congruent,0.1,4556.41140016371,3480.5385865875
28,104,1,109,0.5,0.5,0.5,3,1,0.6,3,814,1,0,814,0,0,1,NaN,1.14355258198281,1.14355258198281,750,0,0,incongruent,0,3193.55802751398,1402.60388343118
28,104,1,110,0.5,0.5,-0.5,4,4,0.6,4,507,1,1,507,1,0,0.8,NaN,-0.865136662920011,-0.865136662920011,750,1,0,congruent,1,333.614918276338,271.409714286271
28,104,1,111,-0.5,0.5,0,3,NaN,0.6,3,564,1,1,564,1,0,0.8,0.8,-0.492187845462483,-0.492187845462483,750,0,0,neutral,0.1,5369.92583779145,2302.15915076826
28,104,1,112,-0.5,0.5,0.5,4,2,0.6,4,851,1,0,851,0,0,1,0.8,1.38564216524472,1.38564216524472,750,0,0,incongruent,0,1226.80062919201,3792.750743894
28,104,1,113,0.5,0.5,0.5,2,1,0.6,2,749,1,1,749,1,0,0.8,NaN,0.718260070847038,0.718260070847038,750,0,0,incongruent,1,4617.4901901544,1872.02213277607
28,104,1,114,-0.5,-0.5,-0.5,3,3,0.6,3,514,1,1,514,1,0,1,0.8,-0.819335930951543,-0.819335930951543,750,1,0,congruent,0.1,2650.16046606443,4508.28531915061
28,104,1,115,0.5,0.5,0,1,NaN,0.6,1,557,1,1,557,1,0,1.2,NaN,-0.537988577430951,-0.537988577430951,750,0,0,neutral,1,1488.70227100005,466.824612835292
28,104,1,116,0.5,-0.5,0.5,3,2,0.8,3,679,1,1,679,1,0,1.2,NaN,0.260252751162354,0.260252751162354,750,0,0,incongruent,1,3651.68884053811,697.937631667275
28,104,1,117,0.5,-0.5,0.5,2,1,0.8,2,792,1,0,792,1,0,1.4,NaN,0.999607424367629,0.999607424367629,750,0,0,incongruent,1,1891.94766184495,4105.28231738891
28,104,1,119,-0.5,0.5,0.5,4,2,0.8,4,582,1,1,582,1,0,1.4,0.6,-0.374414534686421,-0.374414534686421,750,0,0,incongruent,0.1,1458.67021682207,1002.8244988653
28,104,1,120,0.5,0.5,0,1,NaN,0.8,1,540,1,1,540,1,0,1.4,NaN,-0.649218926497232,-0.649218926497232,750,0,0,neutral,1,2146.79516885067,1310.20511414645
28,104,1,121,-0.5,0.5,0.5,3,2,0.8,3,606,1,1,606,1,0,1.4,0.6,-0.217383453651673,-0.217383453651673,750,0,0,incongruent,0.1,1738.34918601391,3531.7961149503
28,104,1,122,-0.5,-0.5,0,1,NaN,1,1,537,1,1,537,1,0,1.2,0.8,-0.668847811626575,-0.668847811626575,750,0,0,neutral,0.1,1790.48213981153,2121.59627730259
28,104,1,123,-0.5,0.5,-0.5,3,3,1,3,678,1,1,678,1,0,1,0.8,0.253709789452573,0.253709789452573,750,1,0,congruent,0.1,2390.94582112053,1448.08495232184
28,104,1,124,-0.5,0.5,0,2,NaN,1,3,573,0,1,NaN,0,0,1.2,0.8,-0.433301190074452,NaN,750,0,1,neutral,0,2862.73407263003,1156.76950899842
28,104,1,125,-0.5,0.5,-0.5,1,1,0.8,1,614,1,1,614,1,0,1,0.6,-0.165039759973423,-0.165039759973423,750,1,0,congruent,0.1,2340.99635254125,5261.74219758735
28,104,1,126,0.5,-0.5,-0.5,2,2,0.8,2,498,1,1,498,1,0,0.8,NaN,-0.924023318308042,-0.924023318308042,750,1,0,congruent,1,1296.41381857367,886.228238566347
28,104,1,127,0.5,-0.5,0,3,NaN,0.8,3,612,1,1,612,1,0,1,NaN,-0.178125683392986,-0.178125683392986,750,0,0,neutral,1,3277.51664783427,7871.91690957292
28,104,1,128,0.5,-0.5,0.5,4,2,0.8,2,630,0,1,NaN,1,0,1.2,NaN,-0.0603523726169243,NaN,750,1,0,incongruent,1,1758.87174560111,808.749893773607
28,104,1,129,-0.5,0.5,0,2,NaN,0.8,2,863,1,0,863,0,0,1.4,0.8,1.46415770576209,1.46415770576209,750,0,0,neutral,0,1588.94534067936,1626.89430744313
28,104,1,130,0.5,-0.5,-0.5,1,1,0.6,1,576,1,1,576,1,0,1.4,NaN,-0.413672304945109,-0.413672304945109,750,1,0,congruent,1,563.096235834514,1982.97738060674
28,104,1,131,-0.5,-0.5,0,2,NaN,0.6,2,708,1,1,708,0,0,1.6,0.8,0.449998640746009,0.449998640746009,750,0,0,neutral,0,2863.4554884699,2811.2491507408
28,104,1,132,-0.5,0.5,-0.5,4,4,0.6,4,672,1,1,672,1,0,1.2,0.6,0.214452019193886,0.214452019193886,750,1,0,congruent,0.1,1219.86612582772,1784.23796646989
28,104,1,133,0.5,0.5,0,2,NaN,0.6,2,853,1,0,853,0,0,1,NaN,1.39872808866428,1.39872808866428,750,0,0,neutral,0,2068.25240128694,3334.63747001139
28,104,1,134,0.5,-0.5,-0.5,3,3,0.4,3,722,1,1,722,0,0,0.6,NaN,0.541600104682945,0.541600104682945,750,1,0,congruent,0,1124.05074014353,5393.98998759675
28,104,1,135,0.5,-0.5,0,2,NaN,0.4,2,511,1,1,511,1,0,0.6,NaN,-0.838964816080886,-0.838964816080886,750,0,0,neutral,1,2633.22683089449,2258.63194045142
28,104,1,136,0.5,0.5,-0.5,1,1,0.4,1,498,1,1,498,1,0,0.6,NaN,-0.924023318308042,-0.924023318308042,750,1,0,congruent,1,2177.72036577898,1693.25006035048
28,104,1,137,-0.5,0.5,0,4,NaN,0.6,4,582,1,1,582,1,0,1,0.6,-0.374414534686421,-0.374414534686421,750,0,0,neutral,0.1,3585.77048417032,1551.5614153021
28,104,1,138,0.5,0.5,0.5,2,4,0.6,4,607,0,1,NaN,0,0,1,NaN,-0.210840491941892,NaN,750,1,0,incongruent,0,7105.9907357014,2238.87336158055
28,104,1,139,-0.5,0.5,0.5,4,2,0.6,2,916,0,0,NaN,0,0,1,0.6,1.8109346763805,NaN,750,1,0,incongruent,0,5573.36064270898,1000.33184408488
28,104,1,140,-0.5,0.5,-0.5,1,1,0.4,1,525,1,1,525,1,0,1,0.6,-0.747363352143949,-0.747363352143949,750,1,0,congruent,0.1,7519.45358151138,1846.97891415954
28,104,1,141,0.5,-0.5,0.5,4,3,0.6,4,554,1,1,554,1,0,0.8,NaN,-0.557617462560295,-0.557617462560295,750,0,0,incongruent,1,1814.02816681987,2006.90712231685
28,104,1,142,0.5,-0.5,-0.5,2,2,0.6,2,807,1,0,807,0,0,0.8,NaN,1.09775185001435,1.09775185001435,750,1,0,congruent,0,3831.55788225121,3022.06401090733
28,104,1,143,0.5,-0.5,-0.5,1,1,0.6,1,533,1,1,533,0,0,0.6,NaN,-0.6950196584657,-0.6950196584657,750,1,0,congruent,0,1501.24265966865,2323.67421343794
28,104,1,144,-0.5,0.5,0,2,NaN,0.6,2,664,1,1,664,1,0,0.6,0.6,0.162108325515636,0.162108325515636,750,0,0,neutral,0.1,1492.22383229804,2207.58015546278
28,104,1,145,0.5,-0.5,-0.5,3,3,0.6,3,714,1,1,714,0,0,0.8,NaN,0.489256411004696,0.489256411004696,750,1,0,congruent,0,7049.16982069057,1441.85434334008
28,104,1,146,0.5,-0.5,0.5,2,4,0.6,4,650,0,1,NaN,1,0,0.6,NaN,0.0705068615786996,NaN,750,1,0,incongruent,1,4264.6520288832,2075.07935643857
28,104,1,147,0.5,-0.5,0.5,1,2,0.6,1,721,1,1,721,1,0,0.6,NaN,0.535057142973164,0.535057142973164,750,0,0,incongruent,1,3401.25349966474,955.261109482051
28,104,1,148,0.5,0.5,0,3,NaN,0.6,3,522,1,1,522,1,0,1,NaN,-0.766992237273293,-0.766992237273293,750,0,0,neutral,1,2805.08306196557,3336.42385769407
28,104,1,149,-0.5,-0.5,-0.5,4,4,0.6,2,325,0,1,NaN,1,0,1.4,0.6,-2.05595569410019,NaN,750,0,1,congruent,0.1,1813.79200185458,2639.29495143961
28,104,1,150,0.5,-0.5,0,2,NaN,0.6,2,664,1,1,664,1,0,1.4,NaN,0.162108325515636,0.162108325515636,750,0,0,neutral,1,2186.71587965914,2993.52702157483
28,104,2,151,-0.5,-0.5,-0.5,3,3,0.6,3,993,1,0,993,1,0,1.8,0.6,2.31474272803365,2.31474272803365,750,1,0,congruent,0.1,2069.95282826493,2535.90170091257
28,104,2,152,0.5,-0.5,0.5,2,4,0.6,4,529,0,1,NaN,0,0,1.6,NaN,-0.721191505304825,NaN,750,1,0,incongruent,0,3750.29651451494,2204.03035987222
28,104,2,153,0.5,-0.5,-0.5,1,1,0.6,2,233,0,1,NaN,1,0,1.2,NaN,-2.65790817140006,NaN,750,0,1,congruent,1,2023.59793113281,2815.31099929286
28,104,2,154,0.5,-0.5,0,4,NaN,0.6,2,145,0,1,NaN,1,0,1.2,NaN,-3.2336888018608,NaN,750,0,1,neutral,1,2986.15145975268,591.38869918995
28,104,2,155,-0.5,-0.5,-0.5,3,3,0.6,2,303,0,1,NaN,1,0,1.4,0.6,-2.19990085171537,NaN,750,0,1,congruent,0.1,4286.37414177259,8810.71527049508
28,104,2,156,-0.5,0.5,0.5,2,1,0.6,1,626,0,1,NaN,0,0,1.2,0.8,-0.086524219456049,NaN,750,1,0,incongruent,0,1672.19768630115,1300.72339502307
28,104,2,157,-0.5,-0.5,-0.5,4,4,0.6,4,548,1,1,548,1,0,1,0.8,-0.596875232818982,-0.596875232818982,750,1,0,congruent,0.1,2037.53517726183,2243.37248155233
28,104,2,158,0.5,0.5,0,1,NaN,0.6,1,571,1,1,571,1,0,1.2,NaN,-0.446387113494015,-0.446387113494015,750,0,0,neutral,1,3946.47385847462,1634.8987065382
28,104,2,159,-0.5,-0.5,-0.5,4,4,0.8,4,193,1,1,193,1,0,1.2,0.8,-2.91962663979131,-2.91962663979131,750,1,0,congruent,0.1,1431.37626624,3806.98999817832
28,104,2,160,0.5,0.5,0.5,2,1,0.8,2,872,1,0,872,0,0,1,NaN,1.52304436115012,1.52304436115012,750,0,0,incongruent,0,1620.8998409663,3012.74528947197
28,104,2,161,-0.5,-0.5,-0.5,4,4,0.6,4,634,1,1,634,1,0,0.8,1,-0.0341805257777995,-0.0341805257777995,750,1,0,congruent,0.1,3227.45956025033,2753.55077434169
28,104,2,162,-0.5,0.5,-0.5,1,1,0.6,1,596,1,1,596,1,0,1,0.6,-0.282813070749485,-0.282813070749485,750,1,0,congruent,0.1,1635.5151121241,809.052405913781
28,104,2,163,-0.5,-0.5,0.5,4,2,0.6,4,905,1,0,905,1,0,1,1,1.7389620975729,1.7389620975729,750,0,0,incongruent,0.1,1504.58951439584,5637.21914533977
28,104,2,164,-0.5,0.5,-0.5,1,1,0.6,1,561,1,1,561,1,0,0.8,0.6,-0.511816730591827,-0.511816730591827,750,1,0,congruent,0.1,2082.16328845287,3081.74133378178
28,104,2,165,0.5,0.5,0.5,4,3,0.6,4,717,1,1,717,1,0,0.8,NaN,0.508885296134039,0.508885296134039,750,0,0,incongruent,1,2115.10381540865,1660.67163441423
28,104,2,166,0.5,0.5,-0.5,1,1,0.8,1,691,1,1,691,1,0,1.2,NaN,0.338768291679728,0.338768291679728,750,1,0,congruent,1,1040.82240603712,4683.96783795596
28,104,2,167,-0.5,0.5,-0.5,4,4,0.8,4,504,1,1,504,1,0,1.4,0.8,-0.884765548049354,-0.884765548049354,750,1,0,congruent,0.1,3116.63753936619,644.525935744395
28,104,2,170,-0.5,-0.5,0,2,NaN,0.8,3,797,0,0,NaN,0,0,1.4,1,1.03232223291653,NaN,750,0,1,neutral,0,1202.62601224445,2122.57318913775
28,104,2,171,0.5,-0.5,-0.5,3,3,0.8,4,631,0,1,NaN,1,0,1,NaN,-0.0538094109071431,NaN,750,0,1,congruent,1,2525.61670400919,1145.84950719244
28,104,2,172,0.5,-0.5,0.5,4,1,0.8,3,243,0,1,NaN,1,0,1,NaN,-2.59247855430225,NaN,750,0,1,incongruent,1,941.865528962642,311.725443100851
28,104,2,173,0.5,-0.5,-0.5,2,2,0.8,2,302,1,1,302,1,0,1.2,NaN,-2.20644381342516,-2.20644381342516,750,1,0,congruent,1,3984.52341997657,1620.11406801702
28,104,2,174,-0.5,0.5,0.5,4,1,0.8,4,729,1,1,729,1,0,1.2,0.6,0.587400836651414,0.587400836651414,750,0,0,incongruent,0.1,2145.69545086621,1424.75108337159
28,104,2,175,0.5,0.5,0,1,NaN,0.8,1,576,1,1,576,1,0,1.4,NaN,-0.413672304945109,-0.413672304945109,750,0,0,neutral,1,1312.31306657877,2310.39687217873
28,104,2,176,-0.5,-0.5,-0.5,4,4,0.8,4,572,1,1,572,1,0,1.8,0.8,-0.439844151784233,-0.439844151784233,750,1,0,congruent,0.1,2878.29375650843,2475.54509880132
28,104,2,177,0.5,-0.5,0.5,3,1,0.8,2,758,0,0,NaN,0,0,1.6,NaN,0.777146726235068,NaN,750,0,1,incongruent,0,4061.68585018946,2548.04211972107
28,104,2,178,0.5,0.5,0,4,NaN,0.8,4,597,1,1,597,1,0,1.2,NaN,-0.276270109039704,-0.276270109039704,750,0,0,neutral,1,1766.08606205008,444.285615794104
28,104,2,179,-0.5,-0.5,-0.5,1,1,0.8,1,518,1,1,518,1,0,1.2,0.8,-0.793164084112418,-0.793164084112418,750,1,0,congruent,0.1,1769.42273467225,1302.0673870266
28,104,2,180,-0.5,0.5,0,2,NaN,0.8,2,657,1,1,657,1,0,1.2,0.8,0.116307593547168,0.116307593547168,750,0,0,neutral,0.1,1635.92422938449,1207.27592813016
28,104,2,181,-0.5,0.5,-0.5,4,4,0.8,2,986,0,0,NaN,0,0,1,0.8,2.26894199606518,NaN,750,0,1,congruent,0,6700.64178281833,1152.60381916322
28,104,2,182,0.5,0.5,0,1,NaN,0.8,1,619,1,1,619,1,0,0.8,NaN,-0.132324951424517,-0.132324951424517,750,0,0,neutral,1,4754.46419172116,369.536705846713
28,104,2,183,-0.5,0.5,0.5,4,2,0.8,2,614,0,1,NaN,0,0,1.2,0.6,-0.165039759973423,NaN,750,1,0,incongruent,0,1117.67611514767,2258.20513940132
28,104,2,184,0.5,0.5,0.5,1,4,0.6,4,579,0,1,NaN,0,0,0.8,NaN,-0.394043419815765,NaN,750,1,0,incongruent,0,4901.1788888702,1984.56329275556
28,104,2,185,0.5,-0.5,0.5,3,1,0.4,3,814,1,0,814,1,0,0.6,NaN,1.14355258198281,1.14355258198281,750,0,0,incongruent,1,874.227119965709,2674.94237019819
28,104,2,186,0.5,-0.5,0,2,NaN,0.4,2,658,1,1,658,0,0,0.8,NaN,0.122850555256949,0.122850555256949,750,0,0,neutral,0,1893.41865863001,1215.88992117956
28,104,2,187,0.5,0.5,-0.5,3,3,0.4,3,590,1,1,590,1,0,0.8,NaN,-0.322070841008172,-0.322070841008172,750,1,0,congruent,1,1071.02222875147,2257.18762384279
28,104,2,189,0.5,-0.5,0.5,1,4,0.4,4,781,0,0,NaN,0,0,0.8,NaN,0.927634845560036,NaN,750,1,0,incongruent,0,2127.65510779023,3030.17373599441
28,104,2,190,-0.5,0.5,0,3,NaN,0.4,3,694,1,1,694,1,0,0.8,0.4,0.358397176809072,0.358397176809072,750,0,0,neutral,0.1,7336.62252523849,1183.60723943992
28,104,2,192,-0.5,-0.5,0,4,NaN,0.6,4,580,1,1,580,1,0,0.8,0.6,-0.387500458105984,-0.387500458105984,750,0,0,neutral,0.1,278.096809707169,2039.15975560469
28,104,2,193,0.5,-0.5,-0.5,2,2,0.6,2,891,1,0,891,0,0,0.6,NaN,1.64736063363597,1.64736063363597,750,1,0,congruent,0,3424.15836046169,4404.15949092477
28,104,2,194,-0.5,-0.5,-0.5,4,4,0.6,4,573,1,1,573,0,0,0.6,0.8,-0.433301190074452,-0.433301190074452,750,1,0,congruent,0,4199.44969017359,1314.46263810865
28,104,2,196,0.5,0.5,0.5,3,4,0.4,2,873,0,0,NaN,0,0,0.4,NaN,1.52958732285991,NaN,750,0,1,incongruent,0,6534.25806628116,1331.2089296585
28,104,2,197,0.5,0.5,-0.5,1,1,0.4,1,573,1,1,573,1,0,0.2,NaN,-0.433301190074452,-0.433301190074452,750,1,0,congruent,1,4361.46007113144,2308.66324713364
28,104,2,198,0.5,0.5,0.5,4,3,0.6,4,955,1,0,955,0,0,0.4,NaN,2.06611018306196,2.06611018306196,750,0,0,incongruent,0,3770.39686693844,1116.52820927886
28,104,2,199,-0.5,0.5,0.5,3,2,0.4,3,841,1,0,841,0,0,0.4,0.4,1.32021254814691,1.32021254814691,750,0,0,incongruent,0,831.858310390422,3050.09484889771
28,104,2,200,-0.5,0.5,0.5,2,3,0.2,2,766,1,0,766,0,0,0.4,0.2,0.829490419913318,0.829490419913318,750,0,0,incongruent,0,1408.5869803086,590.809484910889
28,104,2,201,0.5,-0.5,-0.5,4,4,0.2,4,518,1,1,518,0,0,0.4,NaN,-0.793164084112418,-0.793164084112418,750,1,0,congruent,0,2147.85521004216,1142.52311177965
28,104,2,202,0.5,-0.5,0.5,2,3,0.2,2,919,1,0,919,0,0,0.4,NaN,1.83056356150984,1.83056356150984,750,0,0,incongruent,0,3920.57091377515,904.877377996974
28,104,2,203,-0.5,-0.5,0.5,4,2,0.2,4,658,1,1,658,1,0,0,0.6,0.122850555256949,0.122850555256949,750,0,0,incongruent,0.1,1569.53650186057,1304.38153269098
28,104,2,204,0.5,0.5,0,1,NaN,0.2,1,773,1,0,773,0,0,0.2,NaN,0.875291151881786,0.875291151881786,750,0,0,neutral,0,1639.48496694083,4376.90822113668
28,104,2,205,0.5,-0.5,-0.5,3,3,0.2,4,567,0,1,NaN,0,0,0.2,NaN,-0.472558960333139,NaN,750,0,1,congruent,0,1085.07475191244,2237.77126448719
28,104,2,206,0.5,-0.5,0,4,NaN,0.2,4,655,1,1,655,1,0,0.2,NaN,0.103221670127606,0.103221670127606,750,0,0,neutral,1,1686.0217629361,1468.93661646469
28,104,2,207,0.5,0.5,-0.5,1,1,0.2,1,641,1,1,641,1,0,0.6,NaN,0.0116202061906688,0.0116202061906688,750,1,0,congruent,1,2912.39565811299,1531.36287962734
28,104,2,208,0.5,-0.5,0.5,2,3,0.2,3,972,0,0,NaN,0,0,1,NaN,2.17734053212824,NaN,750,1,0,incongruent,0,2082.16325863361,1167.58476357786
28,104,2,209,0.5,0.5,-0.5,4,4,0.2,4,511,1,1,511,1,0,0.8,NaN,-0.838964816080886,-0.838964816080886,750,1,0,congruent,1,1984.8994468759,1549.5374499413
28,104,2,210,-0.5,0.5,0,1,NaN,0.4,1,438,1,1,438,1,0,1.2,0.2,-1.31660102089491,-1.31660102089491,750,0,0,neutral,0.1,2160.21817267758,756.215565589746
28,104,2,211,-0.5,-0.5,-0.5,2,2,0.6,2,896,1,0,896,0,0,1.4,0.6,1.68007544218487,1.68007544218487,750,1,0,congruent,0,1250.1775563241,4977.14008510002
28,104,2,212,0.5,0.5,0.5,3,1,0.6,3,756,1,0,756,0,0,1,NaN,0.764060802815506,0.764060802815506,750,0,0,incongruent,0,4437.53235574357,3166.91603098045
28,104,2,213,-0.5,-0.5,0.5,1,2,0.6,2,731,0,1,NaN,0,0,0.6,0.6,0.600486760070976,NaN,750,1,0,incongruent,0,3255.56488880311,5550.0397192987
28,104,2,214,0.5,0.5,0,4,NaN,0.6,4,658,1,1,658,1,0,0.6,NaN,0.122850555256949,0.122850555256949,750,0,0,neutral,1,1970.59426799621,2737.01685024362
28,104,2,215,0.5,0.5,-0.5,1,1,0.8,1,523,1,1,523,1,0,0.6,NaN,-0.760449275563512,-0.760449275563512,750,1,0,congruent,1,3687.63928179783,861.675722447182
28,104,2,216,0.5,-0.5,-0.5,3,3,0.8,2,747,0,1,NaN,1,0,0.8,NaN,0.705174147427475,NaN,750,0,1,congruent,1,5066.20559281384,2153.77315317511
28,104,2,217,-0.5,0.5,0,2,NaN,0.8,2,718,1,1,718,1,0,1.2,0.4,0.515428257843821,0.515428257843821,750,0,0,neutral,0.1,3944.47525906211,1938.79963591872
28,104,2,218,0.5,-0.5,0.5,3,1,0.8,2,561,0,1,NaN,1,0,1.4,NaN,-0.511816730591827,NaN,750,0,1,incongruent,1,10042.2543748877,1418.70708799319
28,104,2,219,0.5,0.5,-0.5,4,4,0.8,4,567,1,1,567,1,0,1.8,NaN,-0.472558960333139,-0.472558960333139,750,1,0,congruent,1,683.74983931727,995.908951782845
28,104,2,220,-0.5,0.5,0.5,3,2,0.8,2,622,0,1,NaN,0,0,1.8,0.4,-0.112696066295174,NaN,750,1,0,incongruent,0,2899.5126584879,4519.24885323048
28,104,2,221,-0.5,-0.5,0,2,NaN,0.8,2,281,1,1,281,1,0,1.4,0.4,-2.34384600933056,-2.34384600933056,750,0,0,neutral,0.1,8789.07414974999,2294.54530819728
28,104,2,222,-0.5,-0.5,-0.5,3,3,0.8,3,483,1,1,483,1,0,1.2,0.4,-1.02216774395476,-1.02216774395476,750,1,0,congruent,0.1,3865.22972979887,3519.19751964463
28,104,2,223,-0.5,0.5,-0.5,2,2,0.8,3,709,0,1,NaN,0,0,1.2,0.4,0.45654160245579,NaN,750,0,1,congruent,0,245.952626328234,354.098633967412
28,104,2,224,-0.5,-0.5,0.5,4,1,0.6,4,726,1,1,726,1,0,0.8,0.6,0.56777195152207,0.56777195152207,750,0,0,incongruent,0.1,1328.90404751748,1632.75607921039
28,104,2,225,-0.5,0.5,0,2,NaN,0.6,1,677,0,1,NaN,0,0,0.6,0.4,0.247166827742792,NaN,750,0,1,neutral,0,1738.64869188838,3700.13989558799
28,104,2,227,-0.5,-0.5,0,2,NaN,0.4,2,833,1,0,833,0,0,0.8,0.6,1.26786885446866,1.26786885446866,750,0,0,neutral,0,1481.49888319835,5341.65720436608
28,104,2,229,-0.5,0.5,0.5,2,1,0.4,2,843,1,0,843,0,0,0.6,0.4,1.33329847156647,1.33329847156647,750,0,0,incongruent,0,4159.61669012449,1495.00998706259
28,104,2,230,-0.5,-0.5,0.5,3,4,0.2,4,529,0,1,NaN,0,0,0.4,0.6,-0.721191505304825,NaN,750,1,0,incongruent,0,1875.80425178423,2864.87545349214
28,104,2,231,-0.5,0.5,0.5,4,2,0.2,2,924,0,0,NaN,0,0,0.4,0.2,1.86327837005875,NaN,750,1,0,incongruent,0,8635.72127702441,776.952494678982
28,104,2,232,0.5,0.5,-0.5,1,1,0,1,586,1,1,586,1,0,0,NaN,-0.348242687847297,-0.348242687847297,750,1,0,congruent,1,2488.84239040964,2079.24515997455
28,104,2,233,-0.5,0.5,-0.5,4,4,0.2,4,482,1,1,482,1,0,0.4,0,-1.02871070566454,-1.02871070566454,750,1,0,congruent,0.1,906.129147597698,1388.87368308736
28,104,2,234,0.5,-0.5,0.5,3,1,0.4,2,833,0,0,NaN,1,0,0.6,NaN,1.26786885446866,NaN,750,0,1,incongruent,1,1063.4699569089,4863.54756280035
28,104,2,235,-0.5,-0.5,-0.5,2,2,0.4,2,631,1,1,631,0,0,1,0.4,-0.0538094109071431,-0.0538094109071431,750,1,0,congruent,0,3300.37458983958,1879.67573007299
28,104,2,236,-0.5,0.5,0,1,NaN,0.4,1,563,1,1,563,1,0,1,0.2,-0.498730807172264,-0.498730807172264,750,0,0,neutral,0.1,3894.43176308135,956.652682708952
28,104,2,237,0.5,-0.5,-0.5,3,3,0.6,2,852,0,0,NaN,1,0,1.2,NaN,1.3921851269545,NaN,750,0,1,congruent,1,1161.6715041689,1157.1033716022
28,104,2,238,0.5,-0.5,-0.5,4,4,0.6,4,523,1,1,523,1,0,1.2,NaN,-0.760449275563512,-0.760449275563512,750,1,0,congruent,1,3079.52809559243,958.6019250595
28,104,2,239,-0.5,-0.5,0,1,NaN,0.6,1,739,1,1,739,0,0,1.4,0.2,0.652830453749226,0.652830453749226,750,0,0,neutral,0,1791.8543831501,1664.56974281375
28,104,2,240,0.5,-0.5,0.5,4,1,0.6,4,229,1,1,229,1,0,1,NaN,-2.68408001823918,-2.68408001823918,750,0,0,incongruent,1,2225.29086636745,2075.28898779113
28,104,2,241,0.5,-0.5,-0.5,3,3,0.6,3,619,1,1,619,0,0,1.4,NaN,-0.132324951424517,-0.132324951424517,750,1,0,congruent,0,2790.07083612929,2073.39879313629
28,104,2,242,-0.5,0.5,0.5,2,4,0.6,4,607,0,1,NaN,0,0,1.2,0.4,-0.210840491941892,NaN,750,1,0,incongruent,0,1347.91589360344,1639.08738575742
28,104,2,243,0.5,-0.5,-0.5,1,1,0.6,1,498,1,1,498,1,0,0.8,NaN,-0.924023318308042,-0.924023318308042,750,1,0,congruent,1,2405.23401734845,7852.67824465137
28,104,2,244,-0.5,-0.5,-0.5,2,2,0.6,2,747,1,1,747,1,0,0.8,0,0.705174147427475,0.705174147427475,750,1,0,congruent,0.1,3260.78013112528,3243.17871373811
28,104,2,245,0.5,-0.5,0.5,1,4,0.6,1,903,1,0,903,1,0,1,NaN,1.72587617415334,1.72587617415334,750,0,0,incongruent,1,2749.25491465615,4965.46839634219
28,104,2,246,-0.5,-0.5,0.5,2,3,0.6,2,777,1,0,777,0,0,1,0.2,0.901462998720911,0.901462998720911,750,0,0,incongruent,0,717.332192856536,1110.20332126301
28,104,2,247,-0.5,0.5,0,1,NaN,0.6,1,686,1,1,686,1,0,1,0.4,0.306053483130822,0.306053483130822,750,0,0,neutral,0.1,2209.55839526917,3553.88970821114
28,104,2,248,0.5,-0.5,-0.5,3,3,0.8,2,572,0,1,NaN,0,0,1.2,NaN,-0.439844151784233,NaN,750,0,1,congruent,0,6228.67834310798,2652.66865722715
28,104,2,249,-0.5,-0.5,-0.5,4,4,0.8,4,550,1,1,550,1,0,0.8,0.2,-0.58378930939942,-0.58378930939942,750,1,0,congruent,0.1,3395.88012154621,1302.91802173758
28,104,2,250,-0.5,-0.5,-0.5,3,3,0.8,3,603,1,1,603,1,0,0.8,0.4,-0.237012338781016,-0.237012338781016,750,1,0,congruent,0.1,1871.80764707799,1353.38477873897
28,104,2,251,-0.5,0.5,0,4,NaN,0.8,4,612,1,1,612,1,0,0.6,0.6,-0.178125683392986,-0.178125683392986,750,0,0,neutral,0.1,1237.52122797434,2407.84223293389
28,104,2,252,-0.5,-0.5,-0.5,1,1,0.8,1,574,1,1,574,1,0,0.8,0.6,-0.426758228364671,-0.426758228364671,750,1,0,congruent,0.1,3129.1532188393,804.63266583111
28,104,2,253,0.5,-0.5,-0.5,2,2,0.8,2,820,1,0,820,1,0,0.8,NaN,1.1828103522415,1.1828103522415,750,1,0,congruent,1,639.837715779859,2897.00545978915
28,104,2,254,0.5,0.5,0.5,1,3,0.8,4,909,0,0,NaN,0,0,1.2,NaN,1.76513394441203,NaN,750,0,1,incongruent,0,3050.00502192284,1399.42333817199
28,104,2,255,-0.5,-0.5,-0.5,2,2,0.6,3,758,0,0,NaN,0,0,1,0.8,0.777146726235068,NaN,750,0,1,congruent,0,2579.0716421639,2279.14062842388
28,104,2,256,0.5,-0.5,0.5,4,1,0.6,2,0,0,1,NaN,1,0,0.8,NaN,-4.18241824977907,NaN,750,0,1,incongruent,1,5096.42104672464,953.563309365261
28,104,2,257,0.5,-0.5,0,3,NaN,0.6,2,234,0,1,NaN,1,0,1,NaN,-2.65136520969028,NaN,750,0,1,neutral,1,1078.42368972621,1334.27387541779
28,104,2,258,-0.5,-0.5,-0.5,1,1,0.6,1,991,1,0,991,1,0,1.2,0.6,2.30165680461409,2.30165680461409,750,1,0,congruent,0.1,1566.94673001466,3063.91769455618
28,104,2,259,0.5,0.5,0,3,NaN,0.6,4,607,0,1,NaN,0,0,1,NaN,-0.210840491941892,NaN,750,0,1,neutral,0,5086.15930229391,1761.91013908341
28,104,2,260,-0.5,-0.5,0.5,2,3,0.4,2,763,1,0,763,1,0,1,0.8,0.809861534783974,0.809861534783974,750,0,0,incongruent,0.1,2384.63212910775,3688.14786765044
28,104,2,261,-0.5,-0.5,0.5,3,1,0.4,1,0,0,1,NaN,0,0,1.2,0.8,-4.18241824977907,NaN,750,1,0,incongruent,0,5949.21650287035,6253.96443977629
28,104,2,263,0.5,-0.5,-0.5,3,3,0.4,4,290,0,1,NaN,0,0,0.6,NaN,-2.28495935394253,NaN,750,0,1,congruent,0,3171.04103300939,1346.66544904244
28,104,2,264,-0.5,0.5,-0.5,4,4,0.4,4,507,1,1,507,1,0,0.4,0.8,-0.865136662920011,-0.865136662920011,750,1,0,congruent,0.1,1168.3584572841,1172.20803008706
28,104,2,265,-0.5,0.5,0.5,2,1,0.6,1,526,0,1,NaN,0,0,0.6,0.8,-0.740820390434168,NaN,750,1,0,incongruent,0,1747.89254124132,951.56078499817
28,104,2,266,-0.5,0.5,0,3,NaN,0.4,4,490,0,1,NaN,0,0,0.4,0.6,-0.976367011986291,NaN,750,0,1,neutral,0,1819.38085329867,1285.01319100929
28,104,2,267,-0.5,0.5,0.5,4,1,0.2,2,830,0,0,NaN,0,0,0.4,0.6,1.24823996933931,NaN,750,0,1,incongruent,0,11884.8669882641,6397.02865785366
28,104,2,269,-0.5,0.5,0.5,1,3,0.2,1,786,1,0,786,0,0,0.6,0.4,0.960349654108942,0.960349654108942,750,0,0,incongruent,0,899.112164278066,7898.14434332683
28,104,2,270,-0.5,0.5,0,4,NaN,0.2,4,578,1,1,578,1,0,0.4,0.2,-0.400586381525546,-0.400586381525546,750,0,0,neutral,0.1,2087.46073810745,1156.03219562454
28,104,2,271,-0.5,0.5,-0.5,2,2,0.2,2,787,1,0,787,0,0,0.6,0.2,0.966892615818723,0.966892615818723,750,1,0,congruent,0,1229.69280140902,4351.51700725858
28,104,2,272,0.5,-0.5,0,1,NaN,0.2,1,758,1,0,758,1,0,0.6,NaN,0.777146726235068,0.777146726235068,750,0,0,neutral,1,10811.3149616533,2944.5198233264
28,104,2,273,-0.5,-0.5,-0.5,3,3,0.2,3,816,1,0,816,1,0,1,0.6,1.15663850540238,1.15663850540238,750,1,0,congruent,0.1,2349.05645497852,2686.02099289291
28,104,2,274,0.5,0.5,0.5,4,1,0.2,2,712,0,1,NaN,0,0,0.8,NaN,0.476170487585133,NaN,750,0,1,incongruent,0,930.48538281932,3429.42422805026
28,104,2,275,0.5,-0.5,-0.5,3,3,0.2,3,455,1,1,455,0,0,0.8,NaN,-1.20537067182863,-1.20537067182863,750,1,0,congruent,0,4219.4404005014,1700.0882978001
28,104,2,276,-0.5,-0.5,-0.5,2,2,0.2,2,566,1,1,566,0,0,0.6,0.8,-0.479101922042921,-0.479101922042921,750,1,0,congruent,0,2212.97624404484,2044.48719802125
28,104,2,277,-0.5,0.5,0.5,1,3,0.2,1,632,1,1,632,1,0,0.6,0.2,-0.0472664491973619,-0.0472664491973619,750,0,0,incongruent,0.1,1781.08471388103,1740.58486614269
28,104,2,278,0.5,0.5,-0.5,4,4,0.4,4,512,1,1,512,1,0,0.4,NaN,-0.832421854371105,-0.832421854371105,750,1,0,congruent,1,1719.16757009742,3035.19993821996
28,104,2,279,-0.5,0.5,0.5,1,3,0.6,1,506,1,1,506,1,0,0.6,0.4,-0.871679624629792,-0.871679624629792,750,0,0,incongruent,0.1,2812.64484564517,987.359514476445
28,104,2,280,0.5,-0.5,-0.5,4,4,0.6,4,539,1,1,539,1,0,0.8,NaN,-0.655761888207013,-0.655761888207013,750,1,0,congruent,1,3149.03405237032,2203.0481395531
28,104,2,281,-0.5,-0.5,-0.5,3,3,0.6,4,472,0,1,NaN,1,0,1.2,0.6,-1.09414032276235,NaN,750,0,1,congruent,0.1,2982.51624451394,1530.42315387288
28,104,2,282,-0.5,0.5,0.5,4,1,0.6,4,892,1,0,892,0,0,1.4,0.6,1.65390359534575,1.65390359534575,750,0,0,incongruent,0,5461.20655548801,1662.03730070932
28,104,2,283,-0.5,0.5,0,1,NaN,0.6,1,562,1,1,562,1,0,1.2,0.6,-0.505273768882045,-0.505273768882045,750,0,0,neutral,0.1,1912.08895686597,1637.96064518938
28,104,2,284,-0.5,-0.5,-0.5,2,2,0.8,2,746,1,1,746,0,0,1,0.6,0.698631185717694,0.698631185717694,750,1,0,congruent,0,2774.53628804129,1793.12541777052
28,104,2,285,0.5,-0.5,0.5,4,3,0.8,4,586,1,1,586,0,0,0.8,NaN,-0.348242687847297,-0.348242687847297,750,0,0,incongruent,0,1258.69911128064,1051.41762174478
28,104,2,286,-0.5,-0.5,-0.5,2,2,0.8,2,649,1,1,649,1,0,0.4,0.6,0.0639638998689184,0.0639638998689184,750,1,0,congruent,0.1,1965.32615688074,3992.58080380096
28,104,2,287,-0.5,0.5,-0.5,3,3,0.8,4,554,0,1,NaN,0,0,0.4,0.6,-0.557617462560295,NaN,750,0,1,congruent,0,1147.45418137694,1438.97061248718
28,104,2,288,0.5,-0.5,0,2,NaN,0.6,2,744,1,1,744,1,0,0.4,NaN,0.685545262298132,0.685545262298132,750,0,0,neutral,1,1099.46156090804,1039.67409220579
28,104,2,289,0.5,-0.5,-0.5,1,1,0.6,1,697,1,1,697,1,0,0.6,NaN,0.378026061938416,0.378026061938416,750,1,0,congruent,1,2292.73545509627,3620.51113283403
28,104,2,290,0.5,-0.5,0,4,NaN,0.6,4,630,1,1,630,1,0,1,NaN,-0.0603523726169243,-0.0603523726169243,750,0,0,neutral,1,437.835814806177,2493.53210083317
28,104,2,291,-0.5,0.5,0.5,1,2,0.6,1,912,1,0,912,0,0,1.4,0.6,1.78476282954137,1.78476282954137,750,0,0,incongruent,0,2839.08131365481,3668.18966751648
28,104,2,292,-0.5,-0.5,0,2,NaN,0.4,2,887,1,0,887,1,0,1.2,0.6,1.62118878679684,1.62118878679684,750,0,0,neutral,0.1,1435.57000554372,4416.80319932341
28,104,2,293,-0.5,0.5,-0.5,3,3,0.4,3,986,1,0,986,0,0,1.4,0.4,2.26894199606518,2.26894199606518,750,1,0,congruent,0,1911.32552528657,1379.67565054113
28,104,2,294,-0.5,-0.5,0.5,4,2,0.2,4,763,1,0,763,0,0,1,0.6,0.809861534783974,0.809861534783974,750,0,0,incongruent,0,8865.95141461888,2063.36463892689
28,104,2,295,-0.5,0.5,-0.5,3,3,0.2,3,590,1,1,590,1,0,0.6,0.2,-0.322070841008172,-0.322070841008172,750,1,0,congruent,0.1,2697.83815430968,696.305384882381
28,104,2,296,0.5,-0.5,0.5,4,1,0.4,4,757,1,0,757,0,0,0.4,NaN,0.770603764525287,0.770603764525287,750,0,0,incongruent,0,934.136298384667,1612.95445644401
28,104,2,297,-0.5,0.5,-0.5,3,3,0.4,3,861,1,0,861,0,0,0.4,0.4,1.45107178234253,1.45107178234253,750,1,0,congruent,0,3219.59468765462,2524.7225860113
28,104,2,298,0.5,-0.5,0.5,2,1,0.2,1,542,0,1,NaN,0,0,0.2,NaN,-0.636133003077669,NaN,750,1,0,incongruent,0,1664.71882246392,823.536934300138
28,104,2,299,-0.5,-0.5,0,4,NaN,0.2,4,582,1,1,582,0,0,0.2,0.6,-0.374414534686421,-0.374414534686421,750,0,0,neutral,0,513.461632704304,3107.02076945168
28,104,2,300,-0.5,0.5,-0.5,3,3,0.2,3,505,1,1,505,1,0,0.2,0.2,-0.878222586339573,-0.878222586339573,750,1,0,congruent,0.1,4226.65774627718,1524.82392510873
28,104,3,301,-0.5,0.5,0,4,NaN,0.4,4,814,1,0,814,0,0,0.2,0.4,1.14355258198281,1.14355258198281,750,0,0,neutral,0,2326.18939273715,929.672122594134
28,104,3,303,0.5,0.5,0,1,NaN,0.4,1,516,1,1,516,1,0,0.2,NaN,-0.80625000753198,-0.80625000753198,750,0,0,neutral,1,8110.50945964133,1193.24612049782
28,104,3,304,0.5,0.5,0.5,2,3,0.4,2,847,1,0,847,0,0,0.6,NaN,1.35947031840559,1.35947031840559,750,0,0,incongruent,0,6715.58000695425,3132.68101865574
28,104,3,305,-0.5,0.5,0.5,3,2,0.4,3,689,1,1,689,1,0,0.6,0.4,0.325682368260166,0.325682368260166,750,0,0,incongruent,0.1,1352.06191000309,7390.23418350545
28,104,3,306,-0.5,0.5,-0.5,1,1,0.4,1,640,1,1,640,1,0,0.6,0.6,0.00507724448088765,0.00507724448088765,750,1,0,congruent,0.1,6827.76356178522,3041.94564529265
28,104,3,307,-0.5,-0.5,0,4,NaN,0.6,4,537,1,1,537,1,0,0.8,0.4,-0.668847811626575,-0.668847811626575,750,0,0,neutral,0.1,1057.86152702068,1327.16164236762
28,104,3,308,-0.5,0.5,-0.5,2,2,0.6,2,855,1,0,855,0,0,1,0.6,1.41181401208384,1.41181401208384,750,1,0,congruent,0,1825.15997492781,1792.80271783986
28,104,3,309,0.5,0.5,0.5,4,1,0.6,4,780,1,0,780,0,0,0.6,NaN,0.921091883850255,0.921091883850255,750,0,0,incongruent,0,3880.49756318168,2282.15258722914
28,104,3,310,0.5,0.5,-0.5,3,3,0.4,4,572,0,1,NaN,0,0,0.6,NaN,-0.439844151784233,NaN,750,0,1,congruent,0,989.315416927369,2849.67772398477
28,104,3,311,-0.5,0.5,0,4,NaN,0.4,4,517,1,1,517,1,0,0.4,0.6,-0.799707045822199,-0.799707045822199,750,0,0,neutral,0.1,1326.42426139715,1525.17581861648
28,104,3,312,-0.5,-0.5,0.5,1,2,0.4,1,611,1,1,611,1,0,0.4,0.6,-0.184668645102767,-0.184668645102767,750,0,0,incongruent,0.1,2050.63340865692,1032.52457187169
28,104,3,313,-0.5,-0.5,0,2,NaN,0.4,2,892,1,0,892,0,0,0.4,0.6,1.65390359534575,1.65390359534575,750,0,0,neutral,0,1964.51529612466,1129.3137295947
28,104,3,315,-0.5,-0.5,-0.5,3,3,0.4,2,596,0,1,NaN,0,0,0.4,0.4,-0.282813070749485,NaN,750,0,1,congruent,0,1992.2666297337,1761.01210325126
28,104,3,316,-0.5,-0.5,0.5,2,1,0.4,1,552,0,1,NaN,0,0,0.4,0.4,-0.570703385979857,NaN,750,1,0,incongruent,0,1187.00702743566,3854.54276324221
28,104,3,317,0.5,-0.5,0.5,1,3,0.4,2,557,0,1,NaN,0,0,0.2,NaN,-0.537988577430951,NaN,750,0,1,incongruent,0,1403.39826485222,3147.73045674357
28,104,3,319,-0.5,-0.5,-0.5,3,3,0.2,3,780,1,0,780,0,0,0,0.2,0.921091883850255,0.921091883850255,750,1,0,congruent,0,1586.7593596876,3215.86363215842
28,104,3,320,0.5,0.5,-0.5,2,2,0.2,2,540,1,1,540,1,0,0,NaN,-0.649218926497232,-0.649218926497232,750,1,0,congruent,1,5592.99161071063,698.934221472162
28,104,3,321,0.5,-0.5,0.5,1,3,0.4,1,649,1,1,649,0,0,0.4,NaN,0.0639638998689184,0.0639638998689184,750,0,0,incongruent,0,1068.99775251543,3257.01389049579
28,104,3,322,-0.5,-0.5,-0.5,4,4,0.4,4,497,1,1,497,0,0,0.4,0,-0.930566280017823,-0.930566280017823,750,1,0,congruent,0,1942.44507478554,1663.07442286381
28,104,3,323,-0.5,-0.5,0,3,NaN,0.4,3,768,1,0,768,1,0,0.4,0,0.84257634333288,0.84257634333288,750,0,0,neutral,0.1,3198.45826556359,1018.21957078666
28,104,3,324,0.5,0.5,0.5,2,4,0.4,2,805,1,0,805,0,0,0.6,NaN,1.08466592659478,1.08466592659478,750,0,0,incongruent,0,2464.1153350839,1336.94052084531
28,104,3,325,-0.5,-0.5,0.5,4,1,0.4,4,695,1,1,695,0,0,0.6,0.2,0.364940138518853,0.364940138518853,750,0,0,incongruent,0,692.943583085742,4545.14646447111
28,104,3,326,0.5,-0.5,0.5,1,2,0.4,1,627,1,1,627,0,0,0.2,NaN,-0.0799812577462679,-0.0799812577462679,750,0,0,incongruent,0,1642.76377859012,2041.76286548564
28,104,3,327,0.5,0.5,-0.5,3,3,0.4,3,584,1,1,584,1,0,0.2,NaN,-0.361328611266859,-0.361328611266859,750,1,0,congruent,1,1938.83327008265,1265.98595833459
28,104,3,328,-0.5,-0.5,0.5,1,2,0.6,1,909,1,0,909,0,0,0.6,0.2,1.76513394441203,1.76513394441203,750,0,0,incongruent,0,1255.60818654433,2235.80557139042
28,104,3,329,0.5,0.5,0,4,NaN,0.6,4,537,1,1,537,1,0,0.4,NaN,-0.668847811626575,-0.668847811626575,750,0,0,neutral,1,2668.28243490457,940.857365276703
28,104,3,330,-0.5,-0.5,-0.5,3,3,0.6,3,634,1,1,634,1,0,0.8,0.2,-0.0341805257777995,-0.0341805257777995,750,1,0,congruent,0.1,2199.58695085708,2866.49658517045
28,104,3,331,0.5,0.5,-0.5,4,4,0.6,4,606,1,1,606,1,0,1,NaN,-0.217383453651673,-0.217383453651673,750,1,0,congruent,1,2977.36091969062,2147.63847443675
28,104,3,332,0.5,-0.5,0,2,NaN,0.8,2,737,1,1,737,1,0,1.4,NaN,0.639744530329663,0.639744530329663,750,0,0,neutral,1,2772.14299759892,1452.47314305459
28,104,3,333,-0.5,0.5,0.5,1,2,0.8,1,724,1,1,724,1,0,1.4,0.6,0.554686028102508,0.554686028102508,750,0,0,incongruent,0.1,1641.32549347317,4458.46250499782
28,104,3,334,0.5,0.5,-0.5,3,3,0.8,3,613,1,1,613,1,0,1.6,NaN,-0.171582721683205,-0.171582721683205,750,1,0,congruent,1,1916.5951424927,2114.55461113347
28,104,3,335,0.5,0.5,-0.5,4,4,1,4,501,1,1,501,1,0,1.6,NaN,-0.904394433178698,-0.904394433178698,750,1,0,congruent,1,1719.57756024416,1778.18878978558
28,104,3,336,0.5,-0.5,0.5,1,3,1,1,661,1,1,661,1,0,1.8,NaN,0.142479440386293,0.142479440386293,750,0,0,incongruent,1,1165.2465012675,2140.92970813937
28,104,3,337,0.5,-0.5,-0.5,2,2,1,2,722,1,1,722,1,0,1.8,NaN,0.541600104682945,0.541600104682945,750,1,0,congruent,1,3294.38919683627,1036.14784356708
28,104,3,338,-0.5,0.5,0,4,NaN,1,4,559,1,1,559,1,0,1.8,0.6,-0.524902654011389,-0.524902654011389,750,0,0,neutral,0.1,2833.30991060476,1128.55215407429
28,104,3,339,0.5,-0.5,-0.5,3,3,1,3,715,1,1,715,1,0,1.8,NaN,0.495799372714477,0.495799372714477,750,1,0,congruent,1,1203.05427637506,7135.51199784893
28,104,3,340,0.5,-0.5,0,1,NaN,1,1,573,1,1,573,1,0,1.8,NaN,-0.433301190074452,-0.433301190074452,750,0,0,neutral,1,912.462897857412,2461.13744415514
28,104,3,341,0.5,0.5,-0.5,4,4,1,4,500,1,1,500,1,0,1.8,NaN,-0.910937394888479,-0.910937394888479,750,1,0,congruent,1,1494.81729654324,3369.2649408343
28,104,3,342,-0.5,-0.5,-0.5,2,2,1,3,892,0,0,NaN,1,0,1.8,0.4,1.65390359534575,NaN,750,0,1,congruent,0.1,2531.5091310617,1386.01311702166
28,104,3,343,0.5,0.5,0,4,NaN,1,4,465,1,1,465,1,0,1.6,NaN,-1.13994105473082,-1.13994105473082,750,0,0,neutral,1,4519.02051304681,1563.03064053052
28,104,3,344,-0.5,0.5,-0.5,1,1,1,1,558,1,1,558,1,0,1.8,0.6,-0.53144561572117,-0.53144561572117,750,1,0,congruent,0.1,2570.86393899025,1490.5780875241
28,104,3,345,0.5,-0.5,0,4,NaN,1,4,505,1,1,505,1,0,1.6,NaN,-0.878222586339573,-0.878222586339573,750,0,0,neutral,1,1562.11491841075,1619.68481909775
28,104,3,346,0.5,-0.5,-0.5,1,1,1,1,618,1,1,618,1,0,1.6,NaN,-0.138867913134299,-0.138867913134299,750,1,0,congruent,1,2965.82499023671,1985.05551134213
28,104,3,347,-0.5,0.5,0,4,NaN,1,4,886,1,0,886,0,0,1.6,0.8,1.61464582508706,1.61464582508706,750,0,0,neutral,0,1388.95250376638,911.004194568707
28,104,3,348,-0.5,0.5,-0.5,2,2,0.8,1,574,0,1,NaN,0,0,1.4,0.6,-0.426758228364671,NaN,750,0,1,congruent,0,1516.68038976911,553.63225637136
28,104,3,349,0.5,-0.5,0,4,NaN,0.6,4,553,1,1,553,1,0,1,NaN,-0.564160424270076,-0.564160424270076,750,0,0,neutral,1,768.053187248478,3128.9069856965
28,104,3,350,0.5,0.5,0.5,1,3,0.6,1,791,1,0,791,0,0,1.2,NaN,0.993064462657848,0.993064462657848,750,0,0,incongruent,0,3210.75720829215,1821.8309578678
28,104,3,351,-0.5,-0.5,-0.5,2,2,0.4,2,544,1,1,544,0,0,0.8,0.6,-0.623047079658107,-0.623047079658107,750,1,0,congruent,0,1598.6925227469,888.348255486098
28,104,3,352,0.5,0.5,0.5,4,1,0.4,1,680,0,1,NaN,0,0,0.4,NaN,0.266795712872135,NaN,750,1,0,incongruent,0,2449.50937538585,2746.71183676967
28,104,3,353,0.5,-0.5,0.5,2,3,0.2,2,665,1,1,665,0,0,0.4,NaN,0.168651287225417,0.168651287225417,750,0,0,incongruent,0,2083.19757781801,1543.72061719823
28,104,3,354,-0.5,0.5,-0.5,1,1,0.2,1,508,1,1,508,1,0,0.4,0.6,-0.85859370121023,-0.85859370121023,750,1,0,congruent,0.1,1803.74216878711,764.07904897085
28,104,3,355,-0.5,-0.5,0,4,NaN,0.2,4,529,1,1,529,0,0,0.2,0.4,-0.721191505304825,-0.721191505304825,750,0,0,neutral,0,3256.89374684958,2718.72582385845
28,104,3,356,-0.5,0.5,0.5,2,3,0.2,3,577,0,1,NaN,0,0,0.2,0.6,-0.407129343235327,NaN,750,1,0,incongruent,0,4733.72829757851,2144.74525630683
28,104,3,357,0.5,-0.5,0,1,NaN,0.2,4,511,0,1,NaN,0,0,0.2,NaN,-0.838964816080886,NaN,750,0,1,neutral,0,4672.08278298856,4546.69161740525
28,104,3,358,-0.5,0.5,-0.5,2,2,0.2,3,1000,0,0,NaN,0,0,0.2,0.4,2.36054346000212,NaN,750,0,1,congruent,0,4161.09678300011,1344.20511349073
28,104,3,359,-0.5,0.5,0,4,NaN,0.2,4,578,1,1,578,1,0,0.2,0.2,-0.400586381525546,-0.400586381525546,750,0,0,neutral,0.1,1116.18409142915,1571.99014727495
28,104,3,360,0.5,-0.5,0.5,1,4,0.4,1,908,1,0,908,0,0,0.2,NaN,1.75859098270225,1.75859098270225,750,0,0,incongruent,0,1116.47792058442,3560.6745746354
28,104,3,361,-0.5,-0.5,0,2,NaN,0.4,4,618,0,1,NaN,0,0,0.2,0.4,-0.138867913134299,NaN,750,0,1,neutral,0,1476.3519105126,3869.35483836005
28,104,3,362,0.5,-0.5,0.5,4,1,0.4,4,629,1,1,629,1,0,0.2,NaN,-0.0668953343267055,-0.0668953343267055,750,0,0,incongruent,1,117.597313491294,2369.57063856689
28,104,3,363,0.5,0.5,0,1,NaN,0.4,1,784,1,0,784,0,0,0.6,NaN,0.947263730689379,0.947263730689379,750,0,0,neutral,0,957.066179619423,2355.39149334401
28,104,3,364,-0.5,-0.5,0.5,3,4,0.4,4,681,0,1,NaN,1,0,0.6,0.4,0.273338674581917,NaN,750,1,0,incongruent,0.1,1952.8016598779,4901.65739952461
28,104,3,367,0.5,-0.5,-0.5,3,3,0.4,1,248,0,1,NaN,0,0,1,NaN,-2.55976374575334,NaN,750,0,1,congruent,0,3760.25134076845,3331.03507443706
28,104,3,368,0.5,-0.5,0,2,NaN,0.4,3,967,0,0,NaN,0,0,0.6,NaN,2.14462572357934,NaN,750,0,1,neutral,0,2056.64965498593,3543.24240130797
28,104,3,369,0.5,-0.5,-0.5,1,1,0.4,1,557,1,1,557,0,0,0.6,NaN,-0.537988577430951,-0.537988577430951,750,1,0,congruent,0,1413.04535956169,1182.90726779247
28,104,3,370,0.5,-0.5,0,4,NaN,0.4,4,576,1,1,576,1,0,0.4,NaN,-0.413672304945109,-0.413672304945109,750,0,0,neutral,1,3067.65883689017,1847.21817959887
28,104,3,371,-0.5,0.5,-0.5,3,3,0.4,3,526,1,1,526,1,0,0.4,0.4,-0.740820390434168,-0.740820390434168,750,1,0,congruent,0.1,4462.37111538216,1809.39349655141
28,104,3,372,-0.5,0.5,0.5,1,2,0.6,1,631,1,1,631,1,0,0.6,0.6,-0.0538094109071431,-0.0538094109071431,750,0,0,incongruent,0.1,1582.51506798384,5344.02608262075
28,104,3,373,-0.5,-0.5,-0.5,4,4,0.8,4,609,1,1,609,1,0,0.8,0.2,-0.197754568522329,-0.197754568522329,750,1,0,congruent,0.1,540.542408889285,1654.99264243675
28,104,3,374,-0.5,-0.5,0.5,3,1,0.8,3,956,1,0,956,1,0,1,0.4,2.07265314477174,2.07265314477174,750,0,0,incongruent,0.1,1403.45990536404,847.575854154946
28,104,3,375,-0.5,-0.5,0.5,1,4,0.8,2,834,0,0,NaN,1,0,1.2,0.6,1.27441181617844,NaN,750,0,1,incongruent,0.1,1805.73532514173,3127.33963407032
28,104,3,376,-0.5,-0.5,0.5,2,3,0.8,2,874,1,0,874,1,0,1,0.8,1.53613028456969,1.53613028456969,750,0,0,incongruent,0.1,1401.93027410566,1751.70492505015
28,104,3,377,0.5,-0.5,-0.5,4,4,0.8,4,496,1,1,496,0,0,1,NaN,-0.937109241727604,-0.937109241727604,750,1,0,congruent,0,5082.08117974781,2948.31220288719
28,104,3,378,-0.5,0.5,0,2,NaN,0.8,2,437,1,1,437,1,0,0.8,0.6,-1.32314398260469,-1.32314398260469,750,0,0,neutral,0.1,1667.40617555008,987.745139667706
28,104,3,379,0.5,-0.5,0.5,4,2,0.8,4,601,1,1,601,1,0,0.8,NaN,-0.250098262200579,-0.250098262200579,750,0,0,incongruent,1,3572.16606624596,3707.07580813298
28,104,3,380,0.5,0.5,0,1,NaN,0.8,1,550,1,1,550,1,0,1,NaN,-0.58378930939942,-0.58378930939942,750,0,0,neutral,1,1306.39853125726,1833.13219281055
28,104,3,381,-0.5,0.5,0.5,3,2,1,2,755,0,0,NaN,0,0,1.2,0.8,0.757517841105725,NaN,750,1,0,incongruent,0,409.318965466717,2664.58394286733
28,104,3,382,0.5,0.5,0.5,2,1,0.8,2,906,1,0,906,0,0,1,NaN,1.74550505928268,1.74550505928268,750,0,0,incongruent,0,11288.2485331192,1012.40918715095
28,104,3,383,0.5,-0.5,0,1,NaN,0.6,1,537,1,1,537,1,0,1,NaN,-0.668847811626575,-0.668847811626575,750,0,0,neutral,1,2646.37749684888,2392.60231607481
28,104,3,384,0.5,0.5,-0.5,2,2,0.6,2,604,1,1,604,1,0,1.2,NaN,-0.230469377071235,-0.230469377071235,750,1,0,congruent,1,752.097486325109,3913.75238264808
28,104,3,385,-0.5,-0.5,0.5,4,3,0.6,4,547,1,1,547,1,0,1.2,0.8,-0.603418194528763,-0.603418194528763,750,0,0,incongruent,0.1,4418.06163444121,4186.96940880074
28,104,3,386,0.5,0.5,0.5,2,4,0.6,2,842,1,0,842,0,0,1,NaN,1.32675550985669,1.32675550985669,750,0,0,incongruent,0,2801.27591933563,6358.2914988772
28,104,3,387,0.5,0.5,0.5,4,1,0.4,4,703,1,1,703,1,0,1,NaN,0.417283832197103,0.417283832197103,750,0,0,incongruent,1,816.716916770908,675.391262366885
28,104,3,389,-0.5,0.5,0,4,NaN,0.4,4,546,1,1,546,1,0,1,0.8,-0.609961156238544,-0.609961156238544,750,0,0,neutral,0.1,4033.49076609101,1415.14781682071
28,104,3,390,-0.5,-0.5,-0.5,2,2,0.6,2,574,1,1,574,1,0,0.8,0.8,-0.426758228364671,-0.426758228364671,750,1,0,congruent,0.1,1264.06525443373,877.727166251355
28,104,3,391,0.5,0.5,0,3,NaN,0.6,3,662,1,1,662,1,0,0.8,NaN,0.149022402096074,0.149022402096074,750,0,0,neutral,1,1625.80391248326,1394.46933946708
28,104,3,392,-0.5,0.5,-0.5,2,2,0.8,2,829,1,0,829,0,0,1.2,0.8,1.24169700762953,1.24169700762953,750,1,0,congruent,0,8538.90117428018,693.391647384079
28,104,3,393,0.5,0.5,0,4,NaN,0.6,4,553,1,1,553,1,0,0.8,NaN,-0.564160424270076,-0.564160424270076,750,0,0,neutral,1,4156.15579615175,2598.10942798005
28,104,3,394,-0.5,-0.5,-0.5,1,1,0.8,1,636,1,1,636,1,0,1.2,0.8,-0.0210946023582371,-0.0210946023582371,750,1,0,congruent,0.1,4836.99346479172,5221.12893645979
28,104,3,395,0.5,0.5,0.5,4,2,0.8,4,809,1,0,809,0,0,1.2,NaN,1.11083777343391,1.11083777343391,750,0,0,incongruent,0,1272.31534459959,2399.42914439384
28,104,3,396,0.5,-0.5,0.5,3,4,0.6,3,767,1,0,767,0,0,1,NaN,0.836033381623099,0.836033381623099,750,0,0,incongruent,0,2269.93005768708,1926.90017945882
28,104,3,397,-0.5,0.5,0,4,NaN,0.6,4,630,1,1,630,1,0,0.6,0.6,-0.0603523726169243,-0.0603523726169243,750,0,0,neutral,0.1,1987.9080545519,2092.48848335489
28,104,3,398,-0.5,-0.5,-0.5,1,1,0.6,1,499,1,1,499,1,0,0.8,0.8,-0.91748035659826,-0.91748035659826,750,1,0,congruent,0.1,1443.58751771599,4383.97508049709
28,104,3,399,-0.5,-0.5,-0.5,2,2,0.6,2,899,1,0,899,1,0,0.6,0.8,1.69970432731422,1.69970432731422,750,1,0,congruent,0.1,7268.52091684814,3941.0010871207
28,104,3,400,0.5,0.5,0,1,NaN,0.6,1,595,1,1,595,1,0,0.6,NaN,-0.289356032459266,-0.289356032459266,750,0,0,neutral,1,989.091229200134,3879.34197270149
28,104,3,401,0.5,0.5,-0.5,4,4,0.6,4,504,1,1,504,1,0,1,NaN,-0.884765548049354,-0.884765548049354,750,1,0,congruent,1,1797.8466635353,2602.96029883776
28,104,3,402,-0.5,0.5,-0.5,3,3,0.8,3,847,1,0,847,0,0,1.4,0.6,1.35947031840559,1.35947031840559,750,1,0,congruent,0,1915.63615871411,861.329946834571
28,104,3,403,-0.5,-0.5,0,4,NaN,0.6,4,564,1,1,564,0,0,1.2,0.8,-0.492187845462483,-0.492187845462483,750,0,0,neutral,0,7429.27381034217,4615.40173467685
28,104,3,404,-0.5,0.5,-0.5,2,2,0.6,2,665,1,1,665,1,0,1,0.4,0.168651287225417,0.168651287225417,750,1,0,congruent,0.1,1969.72017329446,6919.88009267349
28,104,3,405,-0.5,0.5,-0.5,4,4,0.8,4,910,1,0,910,0,0,1,0.6,1.77167690612181,1.77167690612181,750,1,0,congruent,0,2223.51213490984,3263.71167622147
28,104,3,406,0.5,-0.5,0,3,NaN,0.6,3,860,1,0,860,0,0,0.6,NaN,1.44452882063275,1.44452882063275,750,0,0,neutral,0,1001.41457448346,2399.46699118844
28,104,3,407,-0.5,0.5,-0.5,1,1,0.6,1,538,1,1,538,1,0,0.2,0.4,-0.662304849916794,-0.662304849916794,750,1,0,congruent,0.1,1668.22637476942,1067.90052048864
28,104,3,408,-0.5,-0.5,0.5,2,4,0.6,2,604,1,1,604,0,0,0.4,0.8,-0.230469377071235,-0.230469377071235,750,0,0,incongruent,0,1008.06926747654,685.036904307732
28,104,3,410,-0.5,0.5,-0.5,1,1,0.4,1,516,1,1,516,1,0,0.2,0.6,-0.80625000753198,-0.80625000753198,750,1,0,congruent,0.1,2708.30107315677,2878.49669410939
28,104,3,411,0.5,0.5,0,2,NaN,0.6,4,846,0,0,NaN,0,0,0.4,NaN,1.35292735669581,NaN,750,0,1,neutral,0,2846.40024559885,4988.97559930638
28,104,3,412,0.5,-0.5,-0.5,3,3,0.4,3,576,1,1,576,0,0,0.4,NaN,-0.413672304945109,-0.413672304945109,750,1,0,congruent,0,1087.67533330971,494.728926774384
28,104,3,413,0.5,-0.5,0.5,1,4,0.4,4,589,0,1,NaN,0,0,0.2,NaN,-0.328613802717953,NaN,750,1,0,incongruent,0,4203.60674719674,1979.02160775647
28,104,3,415,0.5,-0.5,0.5,1,4,0.4,1,463,1,1,463,0,0,0.2,NaN,-1.15302697815038,-1.15302697815038,750,0,0,incongruent,0,5755.96938998441,1127.62905441656
28,104,3,416,0.5,-0.5,-0.5,2,2,0.4,2,682,1,1,682,0,0,0,NaN,0.279881636291698,0.279881636291698,750,1,0,congruent,0,7032.32721500059,2724.49758399257
28,104,3,417,-0.5,-0.5,0.5,1,3,0.4,1,703,1,1,703,0,0,0,0.6,0.417283832197103,0.417283832197103,750,0,0,incongruent,0,4154.89721289322,1458.66573472619
28,104,3,418,-0.5,0.5,0,2,NaN,0.4,2,629,1,1,629,1,0,0,0.6,-0.0668953343267055,-0.0668953343267055,750,0,0,neutral,0.1,5084.54920918688,1924.23198552673
28,104,3,419,-0.5,-0.5,0.5,3,1,0.4,2,872,0,0,NaN,0,0,0.2,0.4,1.52304436115012,NaN,750,0,1,incongruent,0,4063.15527108849,1416.55395368908
28,104,3,420,-0.5,0.5,0,2,NaN,0.4,2,802,1,0,802,0,0,0.2,0.8,1.06503704146544,1.06503704146544,750,0,0,neutral,0,2004.53061071995,479.454597323994
28,104,3,421,0.5,0.5,-0.5,1,1,0.4,1,572,1,1,572,1,0,0.2,NaN,-0.439844151784233,-0.439844151784233,750,1,0,congruent,1,948.220107209687,1641.63541520392
28,104,3,422,-0.5,-0.5,0,2,NaN,0.4,2,919,1,0,919,0,0,0.6,0.2,1.83056356150984,1.83056356150984,750,0,0,neutral,0,723.534682696287,5030.35729966686
28,104,3,423,0.5,-0.5,-0.5,3,3,0.4,3,515,1,1,515,0,0,0.6,NaN,-0.812792969241761,-0.812792969241761,750,1,0,congruent,0,3324.30590131639,4529.82156949673
28,104,3,424,0.5,0.5,0,4,NaN,0.4,4,695,1,1,695,1,0,0.4,NaN,0.364940138518853,0.364940138518853,750,0,0,neutral,1,627.095773954006,2216.70834155755
28,104,3,425,-0.5,0.5,-0.5,1,1,0.6,1,530,1,1,530,1,0,0.8,0.6,-0.714648543595043,-0.714648543595043,750,1,0,congruent,0.1,1967.22598197595,959.13923353391
28,104,3,426,-0.5,-0.5,-0.5,3,3,0.8,2,734,0,1,NaN,0,0,1,0,0.62011564520032,NaN,750,0,1,congruent,0,3848.05129854821,1882.71904770268
28,104,3,427,-0.5,-0.5,0,1,NaN,0.8,1,545,1,1,545,1,0,0.6,0,-0.616504117948326,-0.616504117948326,750,0,0,neutral,0.1,2945.3427935642,2019.20066571522
28,104,3,429,-0.5,-0.5,0,1,NaN,0.6,1,538,1,1,538,1,0,0.8,0.2,-0.662304849916794,-0.662304849916794,750,0,0,neutral,0.1,975.88846065996,550.656121605697
28,104,3,430,0.5,-0.5,0.5,2,3,0.6,2,821,1,0,821,1,0,0.6,NaN,1.18935331395128,1.18935331395128,750,0,0,incongruent,1,7144.22583601655,6009.71127790464
28,104,3,431,0.5,0.5,0,1,NaN,0.6,1,586,1,1,586,1,0,0.8,NaN,-0.348242687847297,-0.348242687847297,750,0,0,neutral,1,2305.88195257096,2309.26939485079
28,104,3,432,-0.5,0.5,-0.5,4,4,0.8,4,546,1,1,546,1,0,1.2,0.8,-0.609961156238544,-0.609961156238544,750,1,0,congruent,0.1,891.829767605672,2588.35308787104
28,104,3,433,-0.5,-0.5,0.5,1,3,0.8,1,623,1,1,623,1,0,1.2,0.4,-0.106153104585393,-0.106153104585393,750,0,0,incongruent,0.1,2538.01429049585,2293.89507914658
28,104,3,434,-0.5,0.5,0,4,NaN,0.8,4,647,1,1,647,1,0,1.4,0.8,0.050877976449356,0.050877976449356,750,0,0,neutral,0.1,1031.66022861176,1569.83657520257
28,104,3,435,0.5,0.5,-0.5,3,3,0.8,3,615,1,1,615,1,0,1.4,NaN,-0.158496798263642,-0.158496798263642,750,1,0,congruent,1,1290.18777801943,2594.88733272892
28,104,3,436,0.5,-0.5,-0.5,2,2,0.8,2,704,1,1,704,0,0,1.4,NaN,0.423826793906884,0.423826793906884,750,1,0,congruent,0,1402.20996391369,4119.83025628907
28,104,3,437,0.5,0.5,0,3,NaN,0.8,2,757,0,0,NaN,0,0,1,NaN,0.770603764525287,NaN,750,0,1,neutral,0,2880.89034329941,2258.64230678998
28,104,3,438,-0.5,-0.5,-0.5,4,4,0.8,4,718,1,1,718,1,0,0.8,0.6,0.515428257843821,0.515428257843821,750,1,0,congruent,0.1,4527.2557825557,6714.27464509232
28,104,3,439,-0.5,-0.5,-0.5,2,2,0.8,2,737,1,1,737,1,0,0.8,0.8,0.639744530329663,0.639744530329663,750,1,0,congruent,0.1,746.472616573629,3578.346897333
28,104,3,440,0.5,0.5,0.5,1,4,0.8,1,953,1,0,953,0,0,0.8,NaN,2.0530242596424,2.0530242596424,750,0,0,incongruent,0,1142.53389624751,4016.9377578777
28,104,3,441,-0.5,-0.5,0,4,NaN,0.6,4,641,1,1,641,1,0,0.4,1,0.0116202061906688,0.0116202061906688,750,0,0,neutral,0.1,3697.58235763675,1481.36765820709
28,104,3,443,-0.5,-0.5,-0.5,4,4,0.6,4,513,1,1,513,1,0,1,1,-0.825878892661324,-0.825878892661324,750,1,0,congruent,0.1,1464.13956197292,2232.22351631682
28,104,3,444,0.5,-0.5,0.5,1,3,0.6,1,703,1,1,703,0,0,1,NaN,0.417283832197103,0.417283832197103,750,0,0,incongruent,0,3707.42825982275,1295.57988712262
28,104,3,445,-0.5,0.5,0,3,NaN,0.6,2,944,0,0,NaN,0,0,0.8,0.8,1.99413760425437,NaN,750,0,1,neutral,0,7572.48885352288,3436.61611196074
28,104,3,446,0.5,0.5,0.5,2,1,0.4,2,795,1,0,795,0,0,0.8,NaN,1.01923630949697,1.01923630949697,750,0,0,incongruent,0,3953.78305846317,3786.06330169864
28,104,3,447,-0.5,0.5,-0.5,4,4,0.2,4,551,1,1,551,1,0,0.6,0.6,-0.577246347689638,-0.577246347689638,750,1,0,congruent,0.1,3208.19982269056,2566.28768939733
28,104,3,448,-0.5,0.5,-0.5,1,1,0.2,1,547,1,1,547,1,0,0.4,0.8,-0.603418194528763,-0.603418194528763,750,1,0,congruent,0.1,1166.99125313657,2080.48790904641
28,104,3,449,-0.5,-0.5,-0.5,2,2,0.4,2,884,1,0,884,0,0,0.4,1,1.6015599016675,1.6015599016675,750,1,0,congruent,0,1254.23930088623,3274.78348349472
28,104,3,450,0.5,-0.5,0,3,NaN,0.4,4,734,0,1,NaN,0,0,0.4,NaN,0.62011564520032,NaN,750,0,1,neutral,0,4141.94436822753,554.363035961984
28,104,4,451,0.5,0.5,-0.5,1,1,0.4,1,678,1,1,678,1,0,0.4,NaN,0.253709789452573,0.253709789452573,750,1,0,congruent,1,2620.52222324098,2671.60800317086
28,104,4,452,-0.5,-0.5,-0.5,4,4,0.6,4,513,1,1,513,1,0,0.8,0.8,-0.825878892661324,-0.825878892661324,750,1,0,congruent,0.1,1508.82345353223,1762.87332254594
28,104,4,453,-0.5,0.5,0.5,1,3,0.6,1,569,1,1,569,1,0,0.8,0.8,-0.459473036913577,-0.459473036913577,750,0,0,incongruent,0.1,2783.95875498784,1623.87803181327
28,104,4,454,0.5,0.5,-0.5,4,4,0.8,4,528,1,1,528,1,0,0.8,NaN,-0.727734467014606,-0.727734467014606,750,1,0,congruent,1,920.860319052156,1332.99374028779
28,104,4,455,0.5,0.5,0,2,NaN,1,2,704,1,1,704,1,0,1.2,NaN,0.423826793906884,0.423826793906884,750,0,0,neutral,1,1445.41338620543,1571.27058971895
28,104,4,456,-0.5,0.5,-0.5,1,1,1,1,485,1,1,485,1,0,1.6,0.8,-1.0090818205352,-1.0090818205352,750,1,0,congruent,0.1,3604.39192736638,3067.20096729518
28,104,4,457,0.5,0.5,0,2,NaN,1,2,673,1,1,673,1,0,1.4,NaN,0.220994980903667,0.220994980903667,750,0,0,neutral,1,8782.67929369096,4654.36038244122
28,104,4,458,0.5,0.5,-0.5,3,3,1,3,592,1,1,592,1,0,1.6,NaN,-0.30898491758861,-0.30898491758861,750,1,0,congruent,1,3494.16748134312,812.669407372854
28,104,4,459,0.5,-0.5,0.5,1,2,1,2,579,0,1,NaN,1,0,1.8,NaN,-0.394043419815765,NaN,750,1,0,incongruent,1,4771.1261289986,1678.92200417578
28,104,4,460,-0.5,-0.5,0.5,2,3,1,3,757,0,0,NaN,1,0,1.8,0.8,0.770603764525287,NaN,750,1,0,incongruent,0.1,1537.7184507484,6403.54135989922
28,104,4,461,-0.5,-0.5,0.5,1,4,1,4,668,0,1,NaN,1,0,1.6,0.8,0.188280172354761,NaN,750,1,0,incongruent,0.1,3028.40008343989,2611.5225755548
28,104,4,462,-0.5,-0.5,-0.5,3,3,1,3,683,1,1,683,1,0,1.6,0.8,0.286424598001479,0.286424598001479,750,1,0,congruent,0.1,5036.43953766973,6187.58722171555
28,104,4,464,0.5,-0.5,0,1,NaN,1,1,655,1,1,655,1,0,1.4,NaN,0.103221670127606,0.103221670127606,750,0,0,neutral,1,1563.72775207098,1614.26534611379
28,104,4,466,0.5,0.5,0.5,4,1,1,3,819,0,0,NaN,0,0,1.4,NaN,1.17626739053172,NaN,750,0,1,incongruent,0,937.002684984891,2894.59818908087
28,104,4,467,0.5,-0.5,0.5,1,4,0.8,1,994,1,0,994,1,0,1.2,NaN,2.32128568974343,2.32128568974343,750,0,0,incongruent,1,463.128107068759,940.741851781485
28,104,4,468,0.5,0.5,0.5,4,1,0.8,3,796,0,0,NaN,0,0,1.4,NaN,1.02577927120675,NaN,750,0,1,incongruent,0,1594.50768808774,2323.00158390576
28,104,4,469,0.5,0.5,-0.5,2,2,0.6,2,574,1,1,574,1,0,1,NaN,-0.426758228364671,-0.426758228364671,750,1,0,congruent,1,1253.64397425206,2417.63639534269
28,104,4,471,-0.5,0.5,0.5,1,3,0.4,1,635,1,1,635,1,0,0.8,0.8,-0.0276375640680183,-0.0276375640680183,750,0,0,incongruent,0.1,1843.07094184705,4175.66025607788
28,104,4,472,0.5,-0.5,0.5,4,1,0.4,3,661,0,1,NaN,0,0,1,NaN,0.142479440386293,NaN,750,0,1,incongruent,0,1815.41429775209,3503.2267941585
28,104,4,475,-0.5,-0.5,0.5,1,4,0.4,1,878,1,0,878,1,0,0.2,1,1.56230213140881,1.56230213140881,750,0,0,incongruent,0.1,2982.95258384081,4580.94874057065
28,104,4,476,0.5,0.5,-0.5,2,2,0.4,2,604,1,1,604,1,0,0.4,NaN,-0.230469377071235,-0.230469377071235,750,1,0,congruent,1,1968.68818003141,1688.94799815285
28,104,4,478,-0.5,0.5,0.5,4,1,0.4,3,610,0,1,NaN,0,0,0.6,0.2,-0.191211606812548,NaN,750,0,1,incongruent,0,2365.27908741791,6414.74258029154
28,104,4,479,0.5,0.5,0.5,1,3,0.2,2,711,0,1,NaN,0,0,0.6,NaN,0.469627525875352,NaN,750,0,1,incongruent,0,2423.11644792204,2314.13645583449
28,104,4,480,0.5,-0.5,0,4,NaN,0.2,3,537,0,1,NaN,0,0,0.6,NaN,-0.668847811626575,NaN,750,0,1,neutral,0,4300.37454878362,402.176903102118
28,104,4,481,-0.5,0.5,-0.5,1,1,0.2,1,590,1,1,590,1,0,0.4,0.2,-0.322070841008172,-0.322070841008172,750,1,0,congruent,0.1,4908.12071094057,2838.78202096803
28,104,4,482,-0.5,0.5,0.5,4,2,0.4,3,817,0,0,NaN,0,0,0.2,0.2,1.16318146711216,NaN,750,0,1,incongruent,0,593.195307144767,3394.00535655817
28,104,4,483,0.5,-0.5,-0.5,3,3,0.2,2,693,0,1,NaN,0,0,0.2,NaN,0.351854215099291,NaN,750,0,1,congruent,0,2592.0327541929,3950.20755887319
28,104,4,484,0.5,-0.5,0.5,2,1,0.2,1,497,0,1,NaN,1,0,0.2,NaN,-0.930566280017823,NaN,750,1,0,incongruent,1,4356.64591296194,756.057580827713
28,104,4,485,0.5,-0.5,0,1,NaN,0.2,1,511,1,1,511,0,0,0.6,NaN,-0.838964816080886,-0.838964816080886,750,0,0,neutral,0,255.667400877312,4423.95001612705
28,104,4,486,-0.5,0.5,0.5,2,4,0.2,2,915,1,0,915,0,0,0.6,0.2,1.80439171467072,1.80439171467072,750,0,0,incongruent,0,1328.84004582604,3523.12457557978
28,104,4,487,-0.5,-0.5,0.5,4,1,0.2,1,553,0,1,NaN,0,0,0.4,1,-0.564160424270076,NaN,750,1,0,incongruent,0,6739.884812517,1844.43353160076
28,104,4,488,0.5,0.5,0.5,3,4,0.2,2,861,0,0,NaN,0,0,0.4,NaN,1.45107178234253,NaN,750,0,1,incongruent,0,7108.12534388296,4220.81828385749
28,104,4,489,0.5,0.5,-0.5,2,2,0.2,2,755,1,0,755,0,0,0.4,NaN,0.757517841105725,0.757517841105725,750,1,0,congruent,0,1331.92646065538,780.949330333632
28,104,4,490,-0.5,-0.5,0,1,NaN,0.2,1,620,1,1,620,0,0,0,0.8,-0.125781989714736,-0.125781989714736,750,0,0,neutral,0,545.418424931427,3220.85137494449
28,104,4,492,-0.5,0.5,-0.5,4,4,0,3,705,0,1,NaN,0,0,0,0.2,0.430369755616665,NaN,750,0,1,congruent,0,2888.64748707599,5004.16739495479
28,104,4,493,0.5,-0.5,0,1,NaN,0,1,568,1,1,568,0,0,0,NaN,-0.466015998623358,-0.466015998623358,750,0,0,neutral,0,4218.72546892169,901.8108106696
28,104,4,494,0.5,0.5,0.5,4,3,0,3,696,0,1,NaN,0,0,0,NaN,0.371483100228634,NaN,750,1,0,incongruent,0,3175.41047719368,1643.95472633231
28,104,4,495,0.5,-0.5,-0.5,2,2,0,2,695,1,1,695,0,0,0,NaN,0.364940138518853,0.364940138518853,750,1,0,congruent,0,2245.55670755075,3407.68310217949
28,104,4,499,0.5,0.5,0.5,2,1,0,2,995,1,0,995,0,0,0,NaN,2.32782865145321,2.32782865145321,750,0,0,incongruent,0,962.117490761912,1805.32497784423
28,104,4,500,0.5,-0.5,-0.5,4,4,0,3,563,0,1,NaN,0,0,0,NaN,-0.498730807172264,NaN,750,0,1,congruent,0,1440.56506777112,2516.38668345503
28,104,4,501,-0.5,0.5,0,1,NaN,0,1,595,1,1,595,1,0,0,0.2,-0.289356032459266,-0.289356032459266,750,0,0,neutral,0.1,2048.60389118281,3213.71840604812
28,104,4,502,-0.5,-0.5,0.5,2,1,0.2,2,772,1,0,772,0,0,0.2,0.4,0.868748190172005,0.868748190172005,750,0,0,incongruent,0,341.91235759832,3408.02987818469
28,104,4,504,-0.5,-0.5,-0.5,1,1,0.2,1,675,1,1,675,0,0,0.2,0.2,0.234080904323229,0.234080904323229,750,1,0,congruent,0,1157.77364553391,2932.30600108896
28,104,4,506,0.5,0.5,0.5,1,4,0.2,3,573,0,1,NaN,0,0,0.2,NaN,-0.433301190074452,NaN,750,0,1,incongruent,0,7311.60865872899,1560.48830041854
28,104,4,509,0.5,0.5,-0.5,2,2,0.2,2,693,1,1,693,1,0,0,NaN,0.351854215099291,0.351854215099291,750,1,0,congruent,1,1336.94672701456,3013.66043576037
28,104,4,510,-0.5,-0.5,0.5,1,3,0.4,1,809,1,0,809,0,0,0.4,0,1.11083777343391,1.11083777343391,750,0,0,incongruent,0,2407.63495701558,2735.55014198796
28,104,4,511,-0.5,0.5,0.5,3,4,0.4,3,556,1,1,556,1,0,0.4,0.4,-0.544531539140732,-0.544531539140732,750,0,0,incongruent,0.1,7851.30042326066,840.433030039442
28,104,4,512,0.5,-0.5,-0.5,2,2,0.4,1,680,0,1,NaN,0,0,0.6,NaN,0.266795712872135,NaN,750,0,1,congruent,0,2116.4670349957,1376.0866662241
28,104,4,513,-0.5,-0.5,-0.5,4,4,0.4,3,575,0,1,NaN,1,0,0.6,0,-0.42021526665489,NaN,750,0,1,congruent,0.1,3296.67976715613,1932.66068464629
28,104,4,514,0.5,0.5,0.5,2,1,0.4,2,792,1,0,792,0,0,0.8,NaN,0.999607424367629,0.999607424367629,750,0,0,incongruent,0,858.854562338169,4994.59304279826
28,104,4,517,0.5,-0.5,0.5,1,4,0.4,2,758,0,0,NaN,0,0,0.2,NaN,0.777146726235068,NaN,750,0,1,incongruent,0,2398.57323420564,2694.71633769782
28,104,4,519,0.5,-0.5,-0.5,1,1,0.4,1,579,1,1,579,0,0,0,NaN,-0.394043419815765,-0.394043419815765,750,1,0,congruent,0,1836.14618366931,988.517873952133
28,104,4,520,-0.5,0.5,-0.5,4,4,0.4,3,829,0,0,NaN,0,0,0,0.4,1.24169700762953,NaN,750,0,1,congruent,0,538.875616521325,2486.24188976452
28,104,4,521,0.5,0.5,0.5,1,2,0.4,1,710,1,1,710,1,0,0,NaN,0.463084564165571,0.463084564165571,750,0,0,incongruent,1,2696.10408838735,2179.69186796736
28,104,4,523,0.5,-0.5,0.5,1,2,0.4,1,676,1,1,676,0,0,0.4,NaN,0.240623866033011,0.240623866033011,750,0,0,incongruent,0,3182.75737316645,4440.90856855035
28,104,4,525,-0.5,0.5,0.5,2,1,0.4,2,877,1,0,877,0,0,0.4,0.4,1.55575916969903,1.55575916969903,750,0,0,incongruent,0,1849.70602526245,3356.79347928748
28,104,4,526,0.5,-0.5,-0.5,3,3,0.2,3,794,1,0,794,0,0,0.4,NaN,1.01269334778719,1.01269334778719,750,1,0,congruent,0,372.065460589852,3493.37030187261
28,104,4,527,0.5,-0.5,0,4,NaN,0.2,4,648,1,1,648,0,0,0,NaN,0.0574209381591372,0.0574209381591372,750,0,0,neutral,0,660.699594742996,4024.55207474004
28,104,4,528,0.5,0.5,-0.5,3,3,0.2,3,511,1,1,511,1,0,0,NaN,-0.838964816080886,-0.838964816080886,750,1,0,congruent,1,948.539699851354,826.62336454417
28,104,4,529,-0.5,-0.5,-0.5,1,1,0.4,1,492,1,1,492,0,0,0.4,0.2,-0.963281088566729,-0.963281088566729,750,1,0,congruent,0,2811.32282214112,1463.64556603661
28,104,4,530,-0.5,0.5,-0.5,4,4,0.4,4,590,1,1,590,1,0,0.4,0.4,-0.322070841008172,-0.322070841008172,750,1,0,congruent,0.1,635.822891258755,2212.68187887219
28,104,4,531,0.5,-0.5,0,3,NaN,0.6,3,730,1,1,730,1,0,0.6,NaN,0.593943798361195,0.593943798361195,750,0,0,neutral,1,3622.67975725685,1568.53122734658
28,104,4,532,0.5,0.5,-0.5,1,1,0.6,1,535,1,1,535,1,0,1,NaN,-0.681933735046138,-0.681933735046138,750,1,0,congruent,1,1906.07844071081,1258.00708672823
28,104,4,533,-0.5,0.5,-0.5,3,3,0.6,3,551,1,1,551,1,0,1.4,0.4,-0.577246347689638,-0.577246347689638,750,1,0,congruent,0.1,1501.97618414276,1262.89330213616
28,104,4,534,-0.5,0.5,0.5,2,1,0.8,2,823,1,0,823,0,0,1.2,0.4,1.20243923737085,1.20243923737085,750,0,0,incongruent,0,1755.70243989478,4425.08071223418
28,104,4,535,-0.5,0.5,0,1,NaN,0.8,1,489,1,1,489,1,0,1.2,0.4,-0.982909973696072,-0.982909973696072,750,0,0,neutral,0.1,1572.0727921253,3356.11567450562
28,104,4,536,-0.5,-0.5,-0.5,4,4,0.8,4,642,1,1,642,1,0,1.2,0.2,0.01816316790045,0.01816316790045,750,1,0,congruent,0.1,2834.91173711458,2229.32644507685
28,104,4,537,0.5,0.5,0,3,NaN,0.8,3,799,1,0,799,0,0,1,NaN,1.0454081563361,1.0454081563361,750,0,0,neutral,0,4125.72869174967,1495.78197531776
28,104,4,538,0.5,-0.5,-0.5,2,2,0.6,2,705,1,1,705,1,0,0.6,NaN,0.430369755616665,0.430369755616665,750,1,0,congruent,1,2639.73501588566,1028.55661582612
28,104,4,540,-0.5,-0.5,-0.5,1,1,0.4,1,219,1,1,219,0,0,0.8,0.4,-2.74950963533699,-2.74950963533699,750,1,0,congruent,0,4158.55230455522,1652.05746071065
28,104,4,541,-0.5,0.5,-0.5,2,2,0.4,2,752,1,0,752,0,0,0.6,0.6,0.737888955976381,0.737888955976381,750,1,0,congruent,0,1437.59947308891,1979.95637288963
28,104,4,542,0.5,0.5,0,1,NaN,0.2,1,530,1,1,530,1,0,0.4,NaN,-0.714648543595043,-0.714648543595043,750,0,0,neutral,1,5040.27881974551,2565.96105151992
28,104,4,543,-0.5,-0.5,-0.5,2,2,0.4,2,720,1,1,720,0,0,0.8,0.4,0.528514181263383,0.528514181263383,750,1,0,congruent,0,2022.08612317784,4441.37782171785
28,104,4,544,-0.5,0.5,-0.5,3,3,0.4,3,356,1,1,356,1,0,0.4,0.6,-1.85312388109697,-1.85312388109697,750,1,0,congruent,0.1,4785.1806980237,3416.1734244847
28,104,4,545,-0.5,0.5,0,4,NaN,0.4,4,799,1,0,799,0,0,0.6,0.6,1.0454081563361,1.0454081563361,750,0,0,neutral,0,974.849899412995,4079.03751214417
28,104,4,546,-0.5,-0.5,0.5,3,1,0.4,3,683,1,1,683,0,0,0.6,0.2,0.286424598001479,0.286424598001479,750,0,0,incongruent,0,3574.67133859864,1711.64410256461
28,104,4,547,-0.5,0.5,0,2,NaN,0.4,3,692,0,1,NaN,0,0,0.6,0.4,0.34531125338951,NaN,750,0,1,neutral,0,2740.61231326516,2330.93940644052
28,104,4,548,-0.5,-0.5,-0.5,3,3,0.4,3,529,1,1,529,1,0,0.2,0.2,-0.721191505304825,-0.721191505304825,750,1,0,congruent,0.1,2248.87235208822,1034.62504057487
28,104,4,549,-0.5,-0.5,0,2,NaN,0.4,3,620,0,1,NaN,0,0,0.4,0.4,-0.125781989714736,NaN,750,0,1,neutral,0,7478.3653642089,3611.94017638441
28,104,4,550,0.5,0.5,-0.5,3,3,0.4,2,488,0,1,NaN,0,0,0.2,NaN,-0.989452935405854,NaN,750,0,1,congruent,0,1605.12750535749,585.355201066456
28,104,4,551,0.5,0.5,-0.5,1,1,0.4,1,413,1,1,413,1,0,0.2,NaN,-1.48017506363944,-1.48017506363944,750,1,0,congruent,1,7929.45970833219,1829.17381352838
28,104,4,552,-0.5,0.5,0,2,NaN,0.4,2,639,1,1,639,1,0,0.6,0.4,-0.00146571722889354,-0.00146571722889354,750,0,0,neutral,0.1,2664.67306670658,504.839549539774
28,104,4,553,0.5,0.5,-0.5,3,3,0.4,3,590,1,1,590,1,0,0.8,NaN,-0.322070841008172,-0.322070841008172,750,1,0,congruent,1,4066.01872389397,760.325821137456
28,104,4,554,0.5,-0.5,0,2,NaN,0.6,2,486,1,1,486,1,0,1,NaN,-1.00253885882542,-1.00253885882542,750,0,0,neutral,1,3659.75059811182,1998.12508908812
28,104,4,555,-0.5,0.5,0.5,3,4,0.6,3,661,1,1,661,1,0,1.4,0.4,0.142479440386293,0.142479440386293,750,0,0,incongruent,0.1,2025.1151060205,3734.24363457295
28,104,4,556,0.5,0.5,0,2,NaN,0.8,2,688,1,1,688,1,0,1.6,NaN,0.319139406550385,0.319139406550385,750,0,0,neutral,1,3591.75399394901,1435.87568306344
28,104,4,557,0.5,0.5,-0.5,3,3,1,3,547,1,1,547,1,0,1.6,NaN,-0.603418194528763,-0.603418194528763,750,1,0,congruent,1,4326.23347475193,523.176803486802
28,104,4,558,-0.5,-0.5,-0.5,1,1,1,1,419,1,1,419,1,0,1.8,0.2,-1.44091729338076,-1.44091729338076,750,1,0,congruent,0.1,556.141690986868,507.328526996376
28,104,4,559,-0.5,-0.5,-0.5,4,4,1,4,647,1,1,647,1,0,1.6,0.4,0.050877976449356,0.050877976449356,750,1,0,congruent,0.1,1622.94703831907,1999.43753170991
28,104,4,560,-0.5,0.5,0,3,NaN,1,3,561,1,1,561,1,0,1.4,0.6,-0.511816730591827,-0.511816730591827,750,0,0,neutral,0.1,3157.62778811481,1267.63117480172
28,104,4,561,-0.5,-0.5,-0.5,2,2,1,2,577,1,1,577,1,0,1.4,0.6,-0.407129343235327,-0.407129343235327,750,1,0,congruent,0.1,1775.88196132611,1067.36136078858
28,104,4,562,-0.5,-0.5,0.5,3,4,1,4,735,0,1,NaN,1,0,1.2,0.8,0.626658606910101,NaN,750,1,0,incongruent,0.1,1689.58385748598,3747.84463940685
28,104,4,564,-0.5,-0.5,0.5,2,3,1,2,616,1,1,616,1,0,1.2,0.8,-0.151953836553861,-0.151953836553861,750,0,0,incongruent,0.1,4456.28921428814,1688.81315387137
28,104,4,565,0.5,0.5,0.5,3,1,1,1,488,0,1,NaN,0,0,1.2,NaN,-0.989452935405854,NaN,750,1,0,incongruent,0,1444.91665288368,905.811121604709
28,104,4,566,0.5,-0.5,0.5,4,2,0.8,3,604,0,1,NaN,1,0,1,NaN,-0.230469377071235,NaN,750,0,1,incongruent,1,1891.04640098334,1652.18199149844
28,104,4,567,-0.5,0.5,0,1,NaN,0.8,1,569,1,1,569,1,0,1.2,0.6,-0.459473036913577,-0.459473036913577,750,0,0,neutral,0.1,1166.11825241905,2535.5501196666
28,104,4,568,0.5,-0.5,-0.5,2,2,0.8,2,605,1,1,605,1,0,1.2,NaN,-0.223926415361454,-0.223926415361454,750,1,0,congruent,1,1048.77464223027,3092.84272107658
28,104,4,569,-0.5,0.5,0,3,NaN,0.8,3,709,1,1,709,1,0,1.2,0.8,0.45654160245579,0.45654160245579,750,0,0,neutral,0.1,3736.41581022825,3168.85714643405
28,104,4,570,0.5,-0.5,-0.5,4,4,0.8,4,509,1,1,509,0,0,1.2,NaN,-0.852050739500449,-0.852050739500449,750,1,0,congruent,0,1382.16385836817,1050.25773271004
28,104,4,571,0.5,-0.5,0.5,2,3,0.8,3,608,0,1,NaN,1,0,1.2,NaN,-0.204297530232111,NaN,750,1,0,incongruent,1,1037.03418530223,1921.05228427476
28,104,4,572,-0.5,0.5,0,4,NaN,0.8,4,694,1,1,694,1,0,1.2,1,0.358397176809072,0.358397176809072,750,0,0,neutral,0.1,1367.42739809491,3386.98922153098
28,104,4,573,-0.5,0.5,-0.5,2,2,0.8,2,506,1,1,506,1,0,1.2,1,-0.871679624629792,-0.871679624629792,750,1,0,congruent,0.1,8276.80644226735,1075.53062185295
28,104,4,574,0.5,0.5,0.5,4,3,0.8,4,612,1,1,612,1,0,1,NaN,-0.178125683392986,-0.178125683392986,750,0,0,incongruent,1,2100.69918616297,4122.1314681761
28,104,4,575,-0.5,0.5,0,1,NaN,1,1,559,1,1,559,1,0,1.2,1,-0.524902654011389,-0.524902654011389,750,0,0,neutral,0.1,3792.56516244086,1349.8019570999
28,104,4,576,0.5,-0.5,0.5,3,4,1,4,515,0,1,NaN,1,0,1.4,NaN,-0.812792969241761,NaN,750,1,0,incongruent,1,857.659684573747,1568.64036700167
28,104,4,577,-0.5,0.5,0,1,NaN,1,1,633,1,1,633,1,0,1.4,1,-0.0407234874875807,-0.0407234874875807,750,0,0,neutral,0.1,1040.54036154484,5172.33613635056
28,104,4,578,-0.5,0.5,-0.5,4,4,1,4,524,1,1,524,1,0,1.4,1,-0.753906313853731,-0.753906313853731,750,1,0,congruent,0.1,1714.25492889494,551.331700389455
28,104,4,579,0.5,0.5,0.5,1,2,1,1,614,1,1,614,1,0,1.4,NaN,-0.165039759973423,-0.165039759973423,750,0,0,incongruent,1,2085.02778376171,1268.23404127631
28,104,4,580,-0.5,0.5,0.5,3,4,1,4,570,0,1,NaN,0,0,1.4,1,-0.452930075203796,NaN,750,1,0,incongruent,0,480.053148088914,1596.66096789595
28,104,4,581,-0.5,0.5,0.5,4,1,0.8,1,544,0,1,NaN,0,0,1.2,0.8,-0.623047079658107,NaN,750,1,0,incongruent,0,3982.27559227791,1093.52787902633
28,104,4,582,0.5,0.5,-0.5,3,3,0.6,3,664,1,1,664,1,0,0.8,NaN,0.162108325515636,0.162108325515636,750,1,0,congruent,1,1765.01696595025,1967.6072806728
28,104,4,584,-0.5,-0.5,0,1,NaN,0.6,1,603,1,1,603,1,0,0.8,1,-0.237012338781016,-0.237012338781016,750,0,0,neutral,0.1,2085.81174013271,2807.94304800491
28,104,4,585,-0.5,-0.5,-0.5,4,4,0.6,4,483,1,1,483,0,0,0.6,1,-1.02216774395476,-1.02216774395476,750,1,0,congruent,0,723.195711346931,793.642000326337
28,104,4,586,-0.5,0.5,-0.5,3,3,0.6,3,549,1,1,549,1,0,0.6,0.6,-0.590332271109201,-0.590332271109201,750,1,0,congruent,0.1,5080.17944018997,976.683211549837
28,104,4,587,-0.5,-0.5,-0.5,2,2,0.6,2,829,1,0,829,0,0,0.8,0.8,1.24169700762953,1.24169700762953,750,1,0,congruent,0,4158.7621222488,2972.14806512157
28,104,4,589,-0.5,-0.5,-0.5,2,2,0.6,2,605,1,1,605,1,0,0.4,0.6,-0.223926415361454,-0.223926415361454,750,1,0,congruent,0.1,1837.18942347882,2892.69015465602
28,104,4,590,0.5,-0.5,-0.5,1,1,0.6,1,472,1,1,472,1,0,0.4,NaN,-1.09414032276235,-1.09414032276235,750,1,0,congruent,1,8071.72862061948,1206.98229316737
28,104,4,591,0.5,-0.5,0,3,NaN,0.6,3,697,1,1,697,0,0,0.8,NaN,0.378026061938416,0.378026061938416,750,0,0,neutral,0,2344.50657550168,3862.18181274534
28,104,4,592,-0.5,-0.5,0.5,2,1,0.6,2,668,1,1,668,1,0,0.6,0.6,0.188280172354761,0.188280172354761,750,0,0,incongruent,0.1,4411.16418750506,910.98983549039
28,104,4,593,0.5,0.5,0.5,3,2,0.6,3,734,1,1,734,1,0,0.8,NaN,0.62011564520032,0.62011564520032,750,0,0,incongruent,1,3834.58935530853,5806.8743440339
28,104,4,594,0.5,0.5,0.5,1,3,0.6,1,850,1,0,850,0,0,1.2,NaN,1.37909920353494,1.37909920353494,750,0,0,incongruent,0,2446.10952976149,3575.37089003005
28,104,4,595,0.5,-0.5,0.5,3,1,0.6,2,574,0,1,NaN,1,0,1,NaN,-0.426758228364671,NaN,750,0,1,incongruent,1,3267.64811965206,729.897457405768
28,104,4,596,-0.5,0.5,-0.5,2,2,0.6,2,636,1,1,636,1,0,1,0.6,-0.0210946023582371,-0.0210946023582371,750,1,0,congruent,0.1,2485.37327114767,5932.64131601914
28,104,4,597,-0.5,0.5,-0.5,4,4,0.8,1,904,0,0,NaN,0,0,1.2,0.6,1.73241913586312,NaN,750,0,1,congruent,0,5487.93479796941,2679.00558603225
28,104,4,598,-0.5,-0.5,-0.5,1,1,0.6,3,206,0,1,NaN,0,0,1,0.6,-2.83456813756415,NaN,750,0,1,congruent,0,3051.11867233472,4023.27285867895
28,104,4,599,-0.5,0.5,0.5,3,2,0.6,3,828,1,0,828,0,0,0.6,0.4,1.23515404591975,1.23515404591975,750,0,0,incongruent,0,4794.66167908394,2618.45449877657
28,104,4,600,0.5,0.5,0,1,NaN,0.4,1,592,1,1,592,1,0,0.6,NaN,-0.30898491758861,-0.30898491758861,750,0,0,neutral,1,5592.41369955841,2427.98910624445
