subid,vers,block,trial,rewlvl,efflvl,congruency,targetresp,distractorresp,rollingefflvl,resp,rt,acc,fast,accrt,isrewarded,ismiss,runavgrrgen,runavgrrcond,zrt,acczrt,rtthreshold,isdisterror,isranderror,congruence,feedback,fcz_resp_theta,fcz_resp_theta_baseline
29,104,1,1,-0.5,-0.5,0.5,1,4,0.7,1,944,1,0,944,1,0,0,0,1.14969157666139,1.14969157666139,750,0,0,incongruent,0.1,3081.1933065207,3456.1842056658
29,104,1,2,-0.5,-0.5,0.5,3,1,0.7,2,606,0,1,NaN,1,0,0.2,0.2,-1.08431625212413,NaN,750,0,1,incongruent,0.1,3851.95286274863,1091.03739736314
29,104,1,3,-0.5,0.5,-0.5,4,4,0.7,4,502,1,1,502,1,0,0.4,0,-1.77170327636583,-1.77170327636583,750,1,0,congruent,0.1,3387.46137900306,1997.27829143617
29,104,1,4,-0.5,-0.5,0.5,3,2,0.7,2,784,0,0,NaN,1,0,0.6,0.4,0.0921730778280054,NaN,750,1,0,incongruent,0.1,5417.14927459502,1757.25600658616
29,104,1,5,-0.5,0.5,0.5,2,1,0.7,2,794,1,0,794,0,0,0.8,0.2,0.158267984005092,0.158267984005092,750,0,0,incongruent,0,6340.74294709475,5994.76312774082
29,104,1,7,0.5,0.5,-0.5,2,2,0.5,2,812,1,0,812,0,0,0.6,NaN,0.277238815123848,0.277238815123848,750,1,0,congruent,0,1532.3535001112,6271.66726703518
29,104,1,8,-0.5,-0.5,-0.5,3,3,0.3,2,635,0,1,NaN,1,0,0.4,0.6,-0.892641024210583,NaN,750,0,1,congruent,0.1,1864.13593320211,1032.98357997942
29,104,1,9,0.5,-0.5,0,4,NaN,0.3,4,657,1,1,657,0,0,0.4,NaN,-0.747232230620993,-0.747232230620993,750,0,0,neutral,0,1221.2373528033,1373.56955389452
29,104,1,10,0.5,0.5,0.5,2,4,0.3,2,864,1,0,864,0,0,0.2,NaN,0.620932327244697,0.620932327244697,750,0,0,incongruent,0,2274.03741033649,7647.45103304149
29,104,1,11,0.5,-0.5,0,3,NaN,0.3,1,801,0,0,NaN,1,0,0.2,NaN,0.204534418329052,NaN,750,0,1,neutral,1,7209.50939460365,669.068299503804
29,104,1,12,-0.5,0.5,0.5,1,3,0.3,3,969,0,0,NaN,0,0,0.6,0.2,1.3149288421041,NaN,750,1,0,incongruent,0,1794.97295587312,2299.83581475185
29,104,1,13,-0.5,-0.5,-0.5,4,4,0.2,4,749,1,1,749,0,0,0.6,0.8,-0.139159093791797,-0.139159093791797,750,1,0,congruent,0,2869.87993478184,1615.4686113636
29,104,1,14,-0.5,0.5,-0.5,3,3,0.2,3,950,1,0,950,0,0,0.4,0.2,1.18934852036764,1.18934852036764,750,1,0,congruent,0,2646.95517799519,5066.23363289058
29,104,1,16,0.5,0.5,-0.5,3,3,0,3,796,1,0,796,0,0,0.4,NaN,0.171486965240509,0.171486965240509,750,1,0,congruent,0,7871.57892915956,1028.94424711566
29,104,1,17,-0.5,-0.5,-0.5,4,4,0,4,584,1,1,584,0,0,0,0.6,-1.22972504571372,-1.22972504571372,750,1,0,congruent,0,3351.18841973912,524.131924988285
29,104,1,18,-0.5,0.5,0.5,1,2,0,1,437,1,1,437,1,0,0,0.2,-2.20132016651689,-2.20132016651689,750,0,0,incongruent,0.1,1339.75502267074,2590.17754584492
29,104,1,19,0.5,0.5,0.5,2,3,0.2,2,790,1,0,790,0,0,0.2,NaN,0.131830021534257,0.131830021534257,750,0,0,incongruent,0,3470.39307927667,1860.41459510981
29,104,1,20,-0.5,0.5,0,3,NaN,0.2,1,730,0,1,NaN,0,0,0.2,0.4,-0.264739415528261,NaN,750,0,1,neutral,0,1154.18093171599,3038.93764835285
29,104,1,21,-0.5,-0.5,-0.5,2,2,0.2,2,958,1,0,958,0,0,0.2,0.4,1.24222444530931,1.24222444530931,750,1,0,congruent,0,289.251207715083,892.525877264234
29,104,1,22,-0.5,-0.5,0,4,NaN,0.2,4,652,1,1,652,1,0,0.2,0.2,-0.780279683709536,-0.780279683709536,750,0,0,neutral,0.1,1083.12471371627,3987.79082729385
29,104,1,24,0.5,-0.5,0,2,NaN,0.2,1,757,0,0,NaN,0,0,0.2,NaN,-0.086283168850128,NaN,750,0,1,neutral,0,2059.10640762739,1161.38223921667
29,104,1,25,0.5,-0.5,0.5,3,2,0.2,3,907,1,0,907,0,0,0.2,NaN,0.905140423806169,0.905140423806169,750,0,0,incongruent,0,1998.14045284118,1494.70925107625
29,104,1,26,-0.5,0.5,0.5,2,1,0.2,2,957,1,0,957,0,0,0.2,0.2,1.2356149546916,1.2356149546916,750,0,0,incongruent,0,1351.20465033513,2523.88310539638
29,104,1,27,0.5,0.5,0,4,NaN,0.2,4,778,1,0,778,0,0,0.2,NaN,0.0525161341217535,0.0525161341217535,750,0,0,neutral,0,3037.08541884013,1705.79429486368
29,104,1,29,0.5,-0.5,-0.5,1,1,0,2,916,0,0,NaN,0,0,0,NaN,0.964625839365547,NaN,750,0,1,congruent,0,3870.31505388614,4705.19976728904
29,104,1,31,-0.5,-0.5,0,4,NaN,0,4,688,1,1,688,0,0,0,0.2,-0.542338021472025,-0.542338021472025,750,0,0,neutral,0,760.171534304349,4005.44753331621
29,104,1,32,-0.5,-0.5,-0.5,2,2,0,3,954,0,0,NaN,0,0,0,0.2,1.21578648283848,NaN,750,0,1,congruent,0,3142.6322448451,2451.22279519078
29,104,1,33,-0.5,-0.5,-0.5,1,1,0,4,371,0,1,NaN,0,0,0,0.2,-2.63754654728567,NaN,750,0,1,congruent,0,1452.27067701784,3574.84297400971
29,104,1,34,0.5,0.5,0,4,NaN,0,4,549,1,1,549,1,0,0,NaN,-1.46105721733353,-1.46105721733353,750,0,0,neutral,1,2757.4867843286,3054.53094851051
29,104,1,35,0.5,0.5,0.5,1,3,0.2,1,972,1,0,972,0,0,0.4,NaN,1.33475731395723,1.33475731395723,750,0,0,incongruent,0,10808.0214542938,4952.79589819009
29,104,1,36,0.5,-0.5,0.5,4,2,0.2,4,684,1,1,684,0,0,0.4,NaN,-0.568775983942859,-0.568775983942859,750,0,0,incongruent,0,1444.55624950595,2903.58536056508
29,104,1,38,0.5,0.5,-0.5,3,3,0.2,2,947,0,0,NaN,0,0,0.4,NaN,1.16952004851451,NaN,750,0,1,congruent,0,3665.5248370797,1908.70158270408
29,104,1,41,-0.5,0.5,-0.5,1,1,0.2,2,863,0,0,NaN,0,0,0,0.2,0.614322836626988,NaN,750,0,1,congruent,0,9098.12121706222,6768.6204407139
29,104,1,42,-0.5,-0.5,-0.5,3,3,0,2,780,0,0,NaN,0,0,0,0.2,0.0657351153571708,NaN,750,0,1,congruent,0,5142.11863018044,1791.44350857987
29,104,1,43,-0.5,-0.5,-0.5,1,1,0,4,593,0,1,NaN,0,0,0,0.2,-1.17023963015435,NaN,750,0,1,congruent,0,12204.3232708879,2946.86865507318
29,104,1,44,0.5,0.5,0.5,2,4,0,4,652,0,1,NaN,0,0,0,NaN,-0.780279683709536,NaN,750,1,0,incongruent,0,1044.64315724434,1617.46761071354
29,104,1,49,0.5,0.5,0,1,NaN,0,1,898,1,0,898,0,0,0,NaN,0.845655008246791,0.845655008246791,750,0,0,neutral,0,3690.83185976627,1678.10912912055
29,104,1,50,-0.5,-0.5,-0.5,4,4,0,4,788,1,0,788,0,0,0,0,0.11861104029884,0.11861104029884,750,1,0,congruent,0,2095.63394804008,2036.76497335376
29,104,1,52,-0.5,0.5,-0.5,1,1,0,1,842,1,0,842,0,0,0,0,0.475523533655107,0.475523533655107,750,1,0,congruent,0,5181.13604961755,4015.89040109478
29,104,1,54,-0.5,-0.5,0,1,NaN,0,1,910,1,0,910,0,0,0,0,0.924968895659295,0.924968895659295,750,0,0,neutral,0,2466.0479929068,733.253619468642
29,104,1,56,-0.5,0.5,0,1,NaN,0,1,931,1,0,931,0,0,0,0,1.06376819863118,1.06376819863118,750,0,0,neutral,0,1058.64044816426,1046.25247055308
29,104,1,58,-0.5,0.5,0.5,4,1,0,4,883,1,0,883,0,0,0,0,0.746512648981161,0.746512648981161,750,0,0,incongruent,0,2237.37083852459,3304.5051792473
29,104,1,61,0.5,0.5,0.5,1,3,0,1,997,1,0,997,0,0,0,NaN,1.49999457939995,1.49999457939995,750,0,0,incongruent,0,2476.29021524601,2480.61696408442
29,104,1,63,-0.5,-0.5,0.5,4,3,0,4,393,1,1,393,0,0,0,0,-2.49213775369608,-2.49213775369608,750,0,0,incongruent,0,2765.2418425384,1618.49183945187
29,104,1,66,-0.5,-0.5,0.5,1,2,0,1,790,1,0,790,0,0,0,0,0.131830021534257,0.131830021534257,750,0,0,incongruent,0,2429.17078541964,478.76138075098
29,104,1,68,-0.5,-0.5,0.5,3,1,0,2,931,0,0,NaN,0,0,0,0,1.06376819863118,NaN,750,0,1,incongruent,0,3288.83896141699,1335.10600963902
29,104,1,69,-0.5,0.5,0,2,NaN,0,2,894,1,0,894,0,0,0,0,0.819217045775956,0.819217045775956,750,0,0,neutral,0,2128.9054583839,3340.20107752348
29,104,1,70,0.5,0.5,0.5,4,2,0,4,785,1,0,785,0,0,0,NaN,0.0987825684457141,0.0987825684457141,750,0,0,incongruent,0,2881.90018532759,2041.70081738619
29,104,1,71,-0.5,-0.5,0,1,NaN,0,2,617,0,1,NaN,0,0,0,0,-1.01161185532934,NaN,750,0,1,neutral,0,4476.38289724517,1111.95759372062
29,104,1,72,-0.5,0.5,0.5,3,4,0,1,887,0,0,NaN,0,0,0,0,0.772950611451996,NaN,750,0,1,incongruent,0,1300.80187946065,1997.86648208401
29,104,1,74,0.5,0.5,-0.5,1,1,0,4,645,0,1,NaN,0,0,0,NaN,-0.826546118033496,NaN,750,0,1,congruent,0,1534.93844719438,5042.64304351301
29,104,1,75,0.5,-0.5,0.5,4,3,0,4,724,1,1,724,0,0,0,NaN,-0.304396359234513,-0.304396359234513,750,0,0,incongruent,0,3547.43429999429,4765.10031289263
29,104,1,76,-0.5,-0.5,0,2,NaN,0,2,840,1,0,840,0,0,0,0,0.46230455241969,0.46230455241969,750,0,0,neutral,0,1524.85837434268,1477.30158606737
29,104,1,77,-0.5,-0.5,-0.5,3,3,0,3,996,1,0,996,0,0,0,0,1.49338508878224,1.49338508878224,750,1,0,congruent,0,1867.03626615995,2533.91807109814
29,104,1,78,0.5,-0.5,0.5,4,1,0,4,760,1,0,760,0,0,0,NaN,-0.0664546969970021,-0.0664546969970021,750,0,0,incongruent,0,1161.79248143214,950.203316861384
29,104,1,79,-0.5,0.5,0.5,1,3,0,2,969,0,0,NaN,0,0,0,0,1.3149288421041,NaN,750,0,1,incongruent,0,1768.0441490443,1167.60601238425
29,104,1,81,0.5,0.5,0.5,4,3,0,4,639,1,1,639,1,0,0,NaN,-0.866203061739748,-0.866203061739748,750,0,0,incongruent,1,4674.19623628093,3075.12183168634
29,104,1,82,0.5,-0.5,0.5,2,4,0.2,2,738,1,1,738,0,0,0.4,NaN,-0.211863490586592,-0.211863490586592,750,0,0,incongruent,0,10498.0449258273,1345.22189001257
29,104,1,83,-0.5,-0.5,-0.5,3,3,0.2,3,888,1,0,888,0,0,0.4,0,0.779560102069705,0.779560102069705,750,1,0,congruent,0,3918.98212456549,5544.87971672342
29,104,1,85,0.5,0.5,-0.5,4,4,0.2,4,623,1,1,623,1,0,0.6,NaN,-0.971954911623087,-0.971954911623087,750,1,0,congruent,1,830.102014861517,710.706604655374
29,104,1,86,0.5,0.5,0,3,NaN,0.4,1,844,0,0,NaN,0,0,1,NaN,0.488742514890524,NaN,750,0,1,neutral,0,819.149933695939,4793.68636945924
29,104,1,87,0.5,-0.5,0.5,2,4,0.4,2,983,1,0,983,1,0,0.6,NaN,1.40746171075203,1.40746171075203,750,0,0,incongruent,1,4288.45984090466,3717.76121288273
29,104,1,88,0.5,-0.5,0,1,NaN,0.4,1,977,1,0,977,0,0,1,NaN,1.36780476704577,1.36780476704577,750,0,0,neutral,0,2891.41234743211,3306.03207396528
29,104,1,89,0.5,0.5,-0.5,4,4,0.4,4,688,1,1,688,1,0,1,NaN,-0.542338021472025,-0.542338021472025,750,1,0,congruent,1,1503.36968041539,2512.15072071678
29,104,1,92,-0.5,0.5,-0.5,4,4,0.6,4,596,1,1,596,1,0,1,0,-1.15041115830122,-1.15041115830122,750,1,0,congruent,0.1,1807.24878362715,2939.77375530294
29,104,1,96,-0.5,-0.5,-0.5,1,1,0.6,1,841,1,0,841,1,0,1,0.6,0.468914043037398,0.468914043037398,750,1,0,congruent,0.1,1326.28131812171,3776.58261607575
29,104,1,97,-0.5,0.5,-0.5,4,4,0.6,4,541,1,1,541,1,0,1,0.2,-1.5139331422752,-1.5139331422752,750,1,0,congruent,0.1,2078.56517904612,1185.82755163405
29,104,1,98,0.5,-0.5,0.5,3,1,0.8,2,810,0,0,NaN,1,0,1,NaN,0.26401983388843,NaN,750,0,1,incongruent,1,12186.4532569886,3490.159754716
29,104,1,99,0.5,-0.5,0.5,2,4,0.8,2,833,1,0,833,1,0,1.4,NaN,0.416038118095729,0.416038118095729,750,0,0,incongruent,1,2496.22407755482,1368.50200142027
29,104,1,100,-0.5,-0.5,0,4,NaN,0.8,4,462,1,1,462,1,0,1.4,0.8,-2.03608290107418,-2.03608290107418,750,0,0,neutral,0.1,1730.17202799258,2349.91515925545
29,104,1,102,0.5,0.5,-0.5,2,2,0.6,2,853,1,0,853,0,0,1.2,NaN,0.548227930449902,0.548227930449902,750,1,0,congruent,0,4102.48124081141,1560.88901383609
29,104,1,103,0.5,-0.5,-0.5,1,1,0.6,1,980,1,0,980,0,0,1,NaN,1.3876332388989,1.3876332388989,750,1,0,congruent,0,1229.39738122004,4779.99374229196
29,104,1,104,0.5,-0.5,0.5,2,3,0.6,2,912,1,0,912,0,0,0.6,NaN,0.938187876894712,0.938187876894712,750,0,0,incongruent,0,1097.24584566693,625.442407394513
29,104,1,105,-0.5,0.5,-0.5,4,4,0.6,4,413,1,1,413,1,0,0.2,0.4,-2.3599479413419,-2.3599479413419,750,1,0,congruent,0.1,4333.06818408237,1619.63668923278
29,104,1,108,0.5,0.5,0,1,NaN,0.2,4,618,0,1,NaN,0,0,0.2,NaN,-1.00500236471163,NaN,750,0,1,neutral,0,8835.05914005784,4988.03629514552
29,104,1,109,0.5,-0.5,-0.5,2,2,0.2,2,877,1,0,877,1,0,0.2,NaN,0.706855705274909,0.706855705274909,750,1,0,congruent,1,3709.62531460672,1112.0095760802
29,104,1,110,-0.5,0.5,0,1,NaN,0.2,4,772,0,0,NaN,0,0,0.6,0.6,0.0128591904155017,NaN,750,0,1,neutral,0,1592.14564920628,1529.89694123454
29,104,1,111,0.5,-0.5,-0.5,2,2,0.2,2,754,1,0,754,0,0,0.4,NaN,-0.106111640703254,-0.106111640703254,750,1,0,congruent,0,2906.83274844935,1055.54082676351
29,104,1,112,0.5,-0.5,0.5,4,1,0.2,4,361,1,1,361,0,0,0.4,NaN,-2.70364145346275,-2.70364145346275,750,0,0,incongruent,0,5001.26967957761,717.841191261796
29,104,1,113,-0.5,0.5,0.5,3,2,0.2,2,837,0,0,NaN,0,0,0.4,0.6,0.442476080566564,NaN,750,1,0,incongruent,0,9536.34604097967,887.001707694247
29,104,1,114,-0.5,0.5,-0.5,4,4,0,4,628,1,1,628,1,0,0.4,0.4,-0.938907458534543,-0.938907458534543,750,1,0,congruent,0.1,2150.1258374186,703.612400908658
29,104,1,115,0.5,0.5,0.5,2,3,0.2,2,877,1,0,877,0,0,0.2,NaN,0.706855705274909,0.706855705274909,750,0,0,incongruent,0,2324.73341546891,3106.83274300487
29,104,1,117,-0.5,-0.5,-0.5,4,4,0.2,4,522,1,1,522,0,0,0.2,0.8,-1.63951346401166,-1.63951346401166,750,1,0,congruent,0,1570.30122632221,594.200042102536
29,104,1,118,-0.5,-0.5,0.5,3,2,0.2,2,807,0,0,NaN,1,0,0.2,0.6,0.244191362035304,NaN,750,1,0,incongruent,0.1,7473.66677857148,2578.82609789094
29,104,1,119,0.5,0.5,0.5,4,1,0.2,3,904,0,0,NaN,0,0,0.4,NaN,0.885311951953043,NaN,750,0,1,incongruent,0,3073.71558104281,6316.89686658044
29,104,1,120,-0.5,-0.5,0.5,2,3,0.2,2,898,1,0,898,0,0,0.2,0.8,0.845655008246791,0.845655008246791,750,0,0,incongruent,0,3778.78018296796,1696.77784883242
29,104,1,122,-0.5,-0.5,0,1,NaN,0.4,1,949,1,0,949,0,0,0.6,0.6,1.18273902974993,1.18273902974993,750,0,0,neutral,0,1791.83256974998,973.894454065164
29,104,1,123,-0.5,0.5,-0.5,3,3,0.4,2,835,0,0,NaN,0,0,0.6,0.2,0.429257099331146,NaN,750,0,1,congruent,0,8318.24193205181,2571.99061448631
29,104,1,124,-0.5,0.5,0.5,2,1,0.2,2,865,1,0,865,0,0,0.4,0.2,0.627541817862406,0.627541817862406,750,0,0,incongruent,0,1114.56584937343,1037.2184931949
29,104,1,125,-0.5,0.5,-0.5,4,4,0.2,4,481,1,1,481,1,0,0.4,0.2,-1.91050257933771,-1.91050257933771,750,1,0,congruent,0.1,5076.49407201064,987.186779079841
29,104,1,126,-0.5,-0.5,-0.5,1,1,0.4,1,895,1,0,895,0,0,0.6,0.4,0.825826536393665,0.825826536393665,750,1,0,congruent,0,2108.28796065852,1803.94804293112
29,104,1,127,-0.5,0.5,0.5,3,2,0.4,3,487,1,1,487,1,0,0.2,0.4,-1.87084563563146,-1.87084563563146,750,0,0,incongruent,0.1,2206.6135944251,1037.42785000824
29,104,1,129,0.5,-0.5,-0.5,2,2,0.4,2,788,1,0,788,0,0,0.4,NaN,0.11861104029884,0.11861104029884,750,1,0,congruent,0,2860.1347723408,1237.74054164466
29,104,1,130,-0.5,-0.5,0.5,1,3,0.4,1,934,1,0,934,1,0,0.4,0.2,1.0835966704843,1.0835966704843,750,0,0,incongruent,0.1,2710.4864841671,934.930827850179
29,104,1,132,-0.5,-0.5,-0.5,4,4,0.4,4,480,1,1,480,0,0,0.4,0.4,-1.91711206995542,-1.91711206995542,750,1,0,congruent,0,1085.75551635704,1506.63404549437
29,104,1,133,-0.5,0.5,0.5,2,1,0.4,1,925,0,0,NaN,0,0,0.2,0.4,1.02411125492492,NaN,750,1,0,incongruent,0,1185.60456019286,2078.14624512994
29,104,1,134,0.5,0.5,0.5,4,2,0.4,4,864,1,0,864,0,0,0.2,NaN,0.620932327244697,0.620932327244697,750,0,0,incongruent,0,8020.94155309341,764.305924804186
29,104,1,135,0.5,-0.5,0,3,NaN,0.2,3,968,1,0,968,0,0,0.2,NaN,1.3083193514864,1.3083193514864,750,0,0,neutral,0,9505.25103357494,3390.55696939069
29,104,1,136,-0.5,0.5,-0.5,1,1,0.2,2,931,0,0,NaN,0,0,0,0.4,1.06376819863118,NaN,750,0,1,congruent,0,1880.37655584742,860.803811130936
29,104,1,138,-0.5,0.5,-0.5,1,1,0,1,988,1,0,988,0,0,0,0.2,1.44050916384057,1.44050916384057,750,1,0,congruent,0,823.030503961322,2628.7356764022
29,104,1,139,0.5,0.5,-0.5,3,3,0,2,801,0,0,NaN,0,0,0,NaN,0.204534418329052,NaN,750,0,1,congruent,0,3970.79323373405,1442.45368229712
29,104,1,140,0.5,-0.5,0,2,NaN,0,2,751,1,0,751,0,0,0,NaN,-0.12594011255638,-0.12594011255638,750,0,0,neutral,0,1244.82456854022,7338.50926466174
29,104,1,141,0.5,-0.5,-0.5,1,1,0,1,882,1,0,882,0,0,0,NaN,0.739903158363453,0.739903158363453,750,1,0,congruent,0,4039.23530842058,657.369949181337
29,104,1,142,-0.5,0.5,-0.5,4,4,0,4,624,1,1,624,1,0,0,0,-0.965345421005378,-0.965345421005378,750,1,0,congruent,0.1,6496.58777350185,1010.63966709193
29,104,1,143,0.5,0.5,0,1,NaN,0.2,1,911,1,0,911,0,0,0.2,NaN,0.931578386277003,0.931578386277003,750,0,0,neutral,0,2672.86382406239,2102.77218655395
29,104,1,144,-0.5,-0.5,-0.5,2,2,0.2,2,918,1,0,918,0,0,0.2,0.2,0.977844820600964,0.977844820600964,750,1,0,congruent,0,3082.21011892406,2320.71971443956
29,104,1,145,0.5,-0.5,0,4,NaN,0.2,4,656,1,1,656,0,0,0.2,NaN,-0.753841721238701,-0.753841721238701,750,0,0,neutral,0,7255.8488564673,2323.68842443483
29,104,1,146,0.5,0.5,0.5,3,2,0.2,2,839,0,0,NaN,0,0,0.2,NaN,0.455695061801981,NaN,750,1,0,incongruent,0,4632.36454060724,3748.58633063402
29,104,1,148,0.5,0.5,0.5,3,2,0.2,3,962,1,0,962,0,0,0,NaN,1.26866240778014,1.26866240778014,750,0,0,incongruent,0,3392.72736507984,4849.01681304544
29,104,1,150,0.5,0.5,-0.5,2,2,0.2,2,789,1,0,789,0,0,0,NaN,0.125220530916549,0.125220530916549,750,1,0,congruent,0,1679.98068306596,1823.75407043078
29,104,2,151,0.5,0.5,-0.5,1,1,0,1,805,1,0,805,0,0,0,NaN,0.230972380799887,0.230972380799887,750,1,0,congruent,0,2253.84038572012,1452.08831026285
29,104,2,153,-0.5,-0.5,-0.5,4,4,0,4,530,1,1,530,0,0,0,0.2,-1.58663753906999,-1.58663753906999,750,1,0,congruent,0,3626.07703113348,3083.02880110656
29,104,2,154,-0.5,-0.5,-0.5,1,1,0,4,691,0,1,NaN,0,0,0,0.2,-0.522509549618899,NaN,750,0,1,congruent,0,1845.9192165997,1271.467787029
29,104,2,156,-0.5,-0.5,-0.5,4,4,0,4,540,1,1,540,0,0,0,0,-1.5205426328929,-1.5205426328929,750,1,0,congruent,0,1155.77053920962,4102.54150631378
29,104,2,157,-0.5,0.5,0,3,NaN,0,3,988,1,0,988,0,0,0,0.2,1.44050916384057,1.44050916384057,750,0,0,neutral,0,2691.37152595741,2353.43167513277
29,104,2,159,-0.5,0.5,0,1,NaN,0,1,944,1,0,944,0,0,0,0.2,1.14969157666139,1.14969157666139,750,0,0,neutral,0,239.924231355375,403.593368997485
29,104,2,160,-0.5,-0.5,0.5,4,2,0,4,519,1,1,519,0,0,0,0,-1.65934193586479,-1.65934193586479,750,0,0,incongruent,0,3038.00143696896,1539.2176335637
29,104,2,162,0.5,-0.5,-0.5,4,4,0,4,649,1,1,649,0,0,0,NaN,-0.800108155562662,-0.800108155562662,750,1,0,congruent,0,2037.76427520591,2441.54980414493
29,104,2,164,0.5,-0.5,-0.5,2,2,0,2,981,1,0,981,0,0,0,NaN,1.39424272951661,1.39424272951661,750,1,0,congruent,0,4313.24500957436,3711.96887719826
29,104,2,165,0.5,0.5,-0.5,1,1,0,1,847,1,0,847,0,0,0,NaN,0.50857098674365,0.50857098674365,750,1,0,congruent,0,4425.41653989851,860.538020533081
29,104,2,166,0.5,0.5,0,2,NaN,0,2,780,1,0,780,0,0,0,NaN,0.0657351153571708,0.0657351153571708,750,0,0,neutral,0,3428.05566843884,3338.37926305666
29,104,2,167,-0.5,0.5,-0.5,3,3,0,3,803,1,0,803,0,0,0,0,0.21775339956447,0.21775339956447,750,1,0,congruent,0,3435.47362536693,1783.85670890806
29,104,2,169,-0.5,-0.5,-0.5,1,1,0,2,729,0,1,NaN,0,0,0,0,-0.27134890614597,NaN,750,0,1,congruent,0,3669.28531320363,577.734086517241
29,104,2,171,-0.5,0.5,0.5,1,4,0,1,936,1,0,936,0,0,0,0,1.09681565171972,1.09681565171972,750,0,0,incongruent,0,4332.68795646556,6091.10015541347
29,104,2,173,0.5,-0.5,0.5,4,2,0,4,766,1,0,766,0,0,0,NaN,-0.0267977532907502,-0.0267977532907502,750,0,0,incongruent,0,2044.00610907442,5651.53742248569
29,104,2,175,0.5,-0.5,0.5,1,2,0,1,993,1,0,993,0,0,0,NaN,1.47355661692911,1.47355661692911,750,0,0,incongruent,0,4930.43612396911,2216.73003611807
29,104,2,176,0.5,-0.5,0.5,2,4,0,2,799,1,0,799,0,0,0,NaN,0.191315437093635,0.191315437093635,750,0,0,incongruent,0,2606.41839603333,1925.09796985507
29,104,2,177,-0.5,0.5,0.5,4,3,0,4,739,1,1,739,1,0,0,0,-0.205253999968884,-0.205253999968884,750,0,0,incongruent,0.1,2122.26245705227,3828.88305291457
29,104,2,179,-0.5,0.5,0.5,4,3,0.2,4,674,1,1,674,1,0,0.2,0.2,-0.634870890119946,-0.634870890119946,750,0,0,incongruent,0.1,2452.55185259442,1549.3891237941
29,104,2,181,-0.5,0.5,0.5,3,2,0.6,1,893,0,0,NaN,0,0,0.6,0.6,0.812607555158248,NaN,750,0,1,incongruent,0,5308.72763236292,706.733519170606
29,104,2,182,-0.5,-0.5,0.5,2,1,0.6,2,923,1,0,923,1,0,0.6,0,1.01089227368951,1.01089227368951,750,0,0,incongruent,0.1,504.693728712904,977.678196051158
29,104,2,183,-0.5,-0.5,0,4,NaN,0.6,4,577,1,1,577,0,0,0.6,0.2,-1.27599148003768,-1.27599148003768,750,0,0,neutral,0,725.16796747185,1156.2765020549
29,104,2,186,0.5,0.5,-0.5,4,4,0.4,4,556,1,1,556,1,0,0.2,NaN,-1.41479078300957,-1.41479078300957,750,1,0,congruent,1,2049.65391407765,4195.47125861345
29,104,2,187,-0.5,0.5,0,3,NaN,0.6,3,909,1,0,909,0,0,0.6,0.6,0.918359405041586,0.918359405041586,750,0,0,neutral,0,1484.07895539865,967.747240081247
29,104,2,188,0.5,-0.5,0.5,2,3,0.4,2,883,1,0,883,1,0,0.4,NaN,0.746512648981161,0.746512648981161,750,0,0,incongruent,1,1988.95882632819,718.75922410001
29,104,2,189,0.5,-0.5,0,3,NaN,0.4,2,698,0,1,NaN,0,0,0.8,NaN,-0.476243115294938,NaN,750,0,1,neutral,0,6087.72266542179,1697.65859674554
29,104,2,190,0.5,0.5,0.5,1,3,0.4,1,923,1,0,923,0,0,0.8,NaN,1.01089227368951,1.01089227368951,750,0,0,incongruent,0,2664.310395147,1559.22504702678
29,104,2,191,-0.5,0.5,0.5,3,4,0.2,3,818,1,0,818,0,0,0.8,0.4,0.316895758830099,0.316895758830099,750,0,0,incongruent,0,3035.78497668083,6326.0563824725
29,104,2,192,0.5,-0.5,-0.5,2,2,0.2,2,813,1,0,813,1,0,0.4,NaN,0.283848305741556,0.283848305741556,750,1,0,congruent,1,2867.6395800299,852.785185850563
29,104,2,193,0.5,-0.5,0,1,NaN,0.2,4,510,0,1,NaN,0,0,0.8,NaN,-1.71882735142416,NaN,750,0,1,neutral,0,6539.61917483233,1390.31957538513
29,104,2,194,-0.5,0.5,-0.5,4,4,0.2,4,381,1,1,381,1,0,0.4,0.4,-2.57145164110858,-2.57145164110858,750,1,0,congruent,0.1,2574.71493877148,2850.6616501823
29,104,2,196,0.5,-0.5,-0.5,2,2,0.2,2,950,1,0,950,1,0,0.6,NaN,1.18934852036764,1.18934852036764,750,1,0,congruent,1,1059.93791596387,5422.42224609852
29,104,2,197,0.5,0.5,0,4,NaN,0.2,4,661,1,1,661,1,0,1,NaN,-0.720794268150158,-0.720794268150158,750,0,0,neutral,1,2382.20636027731,1037.81882796017
29,104,2,200,0.5,-0.5,-0.5,4,4,0.4,4,544,1,1,544,0,0,1.2,NaN,-1.49410467042207,-1.49410467042207,750,1,0,congruent,0,1730.32028574968,1122.26808905314
29,104,2,201,0.5,0.5,0.5,2,3,0.4,2,937,1,0,937,0,0,1.2,NaN,1.10342514233743,1.10342514233743,750,0,0,incongruent,0,850.292485827374,848.445430226938
29,104,2,202,-0.5,-0.5,-0.5,4,4,0.4,4,357,1,1,357,1,0,0.8,0.2,-2.73007941593359,-2.73007941593359,750,1,0,congruent,0.1,1805.24123585294,1292.28666038702
29,104,2,203,0.5,0.5,-0.5,2,2,0.4,2,844,1,0,844,0,0,0.6,NaN,0.488742514890524,0.488742514890524,750,1,0,congruent,0,4757.10283539287,1246.37563627219
29,104,2,204,-0.5,0.5,0,1,NaN,0.4,1,892,1,0,892,0,0,0.2,0.2,0.805998064540539,0.805998064540539,750,0,0,neutral,0,2765.65964338172,1113.18344418937
29,104,2,206,-0.5,-0.5,-0.5,1,1,0.2,1,748,1,1,748,0,0,0.2,0.4,-0.145768584409506,-0.145768584409506,750,1,0,congruent,0,1631.17283011319,1509.8723647423
29,104,2,207,0.5,-0.5,0,2,NaN,0.2,2,844,1,0,844,0,0,0.2,NaN,0.488742514890524,0.488742514890524,750,0,0,neutral,0,5447.16408202476,2331.61965570689
29,104,2,208,-0.5,0.5,0.5,3,1,0.2,2,865,0,0,NaN,0,0,0,0.2,0.627541817862406,NaN,750,0,1,incongruent,0,8100.99457191166,1702.84964444979
29,104,2,209,0.5,-0.5,-0.5,4,4,0,4,548,1,1,548,0,0,0,NaN,-1.46766670795124,-1.46766670795124,750,1,0,congruent,0,3396.44913344462,656.282667513438
29,104,2,211,0.5,-0.5,-0.5,1,1,0,2,853,0,0,NaN,0,0,0,NaN,0.548227930449902,NaN,750,0,1,congruent,0,3536.65993932004,2101.81494392962
29,104,2,212,0.5,0.5,0,2,NaN,0,2,860,1,0,860,0,0,0,NaN,0.594494364773863,0.594494364773863,750,0,0,neutral,0,11474.5547770719,2756.74790470918
29,104,2,213,0.5,-0.5,0.5,4,2,0,4,785,1,0,785,0,0,0,NaN,0.0987825684457141,0.0987825684457141,750,0,0,incongruent,0,2174.7690255366,2811.10316334248
29,104,2,214,0.5,-0.5,0.5,1,4,0,1,769,1,0,769,0,0,0,NaN,-0.00696928143762429,-0.00696928143762429,750,0,0,incongruent,0,3283.55109330901,1029.69845331129
29,104,2,215,-0.5,0.5,0.5,4,1,0,4,795,1,0,795,0,0,0,0.2,0.164877474622801,0.164877474622801,750,0,0,incongruent,0,5553.82449761603,8190.50641978935
29,104,2,216,-0.5,0.5,-0.5,2,2,0,3,784,0,0,NaN,0,0,0,0.2,0.0921730778280054,NaN,750,0,1,congruent,0,2756.83069688229,2717.77621404485
29,104,2,217,0.5,-0.5,0.5,4,3,0,4,732,1,1,732,0,0,0,NaN,-0.251520434292844,-0.251520434292844,750,0,0,incongruent,0,1885.09021734688,1602.37413071128
29,104,2,218,0.5,-0.5,-0.5,2,2,0,2,947,1,0,947,0,0,0,NaN,1.16952004851451,1.16952004851451,750,1,0,congruent,0,497.816552659618,689.03836122088
29,104,2,220,0.5,-0.5,-0.5,4,4,0,4,524,1,1,524,0,0,0,NaN,-1.62629448277624,-1.62629448277624,750,1,0,congruent,0,1446.79124603871,1585.61528236019
29,104,2,221,-0.5,0.5,-0.5,3,3,0,3,435,1,1,435,1,0,0,0,-2.21453914775231,-2.21453914775231,750,1,0,congruent,0.1,6652.73506936272,3426.1730546065
29,104,2,222,-0.5,-0.5,0.5,1,2,0.2,2,865,0,0,NaN,1,0,0.2,0.4,0.627541817862406,NaN,750,1,0,incongruent,0.1,5714.53679802752,2246.21261192885
29,104,2,223,-0.5,0.5,0.5,4,3,0.2,4,585,1,1,585,1,0,0.4,0.2,-1.22311555509602,-1.22311555509602,750,0,0,incongruent,0.1,1403.84537044437,910.583028132266
29,104,2,224,-0.5,0.5,-0.5,2,2,0.4,2,881,1,0,881,0,0,0.6,0.4,0.733293667745744,0.733293667745744,750,1,0,congruent,0,7798.82499699142,1436.14299197928
29,104,2,225,0.5,0.5,0,3,NaN,0.4,3,823,1,0,823,0,0,0.6,NaN,0.349943211918643,0.349943211918643,750,0,0,neutral,0,12252.3002385091,1724.20909852796
29,104,2,226,0.5,-0.5,-0.5,1,1,0.4,1,958,1,0,958,1,0,0.6,NaN,1.24222444530931,1.24222444530931,750,1,0,congruent,1,1938.53583804322,1023.42195471905
29,104,2,227,-0.5,0.5,0,2,NaN,0.4,2,718,1,1,718,1,0,0.8,0.4,-0.344053302940765,-0.344053302940765,750,0,0,neutral,0.1,1132.33612095584,2093.03952655132
29,104,2,228,0.5,-0.5,-0.5,4,4,0.6,4,392,1,1,392,0,0,0.8,NaN,-2.49874724431378,-2.49874724431378,750,1,0,congruent,0,1050.59049352022,1040.36580935093
29,104,2,230,0.5,-0.5,-0.5,2,2,0.4,2,833,1,0,833,0,0,0.6,NaN,0.416038118095729,0.416038118095729,750,1,0,congruent,0,1438.62648404964,5895.00681960294
29,104,2,231,-0.5,0.5,0.5,1,3,0.4,1,854,1,0,854,0,0,0.6,0.6,0.554837421067611,0.554837421067611,750,0,0,incongruent,0,2694.45180971446,1590.95418853626
29,104,2,232,0.5,-0.5,-0.5,2,2,0.2,2,833,1,0,833,0,0,0.2,NaN,0.416038118095729,0.416038118095729,750,1,0,congruent,0,995.406683915771,2942.1547098129
29,104,2,233,-0.5,0.5,0.5,1,3,0.2,1,763,1,0,763,0,0,0,0.4,-0.0466262251438762,-0.0466262251438762,750,0,0,incongruent,0,6755.99498402369,1003.2198504804
29,104,2,234,0.5,0.5,-0.5,4,4,0.2,4,537,1,1,537,1,0,0,NaN,-1.54037110474603,-1.54037110474603,750,1,0,congruent,1,1014.37469157318,3637.78551870266
29,104,2,235,0.5,0.5,-0.5,3,3,0.4,3,482,1,1,482,1,0,0.4,NaN,-1.90389308872001,-1.90389308872001,750,1,0,congruent,1,4045.74192079146,4003.6383758482
29,104,2,236,-0.5,-0.5,0.5,4,1,0.4,4,940,1,0,940,1,0,0.8,0.4,1.12325361419055,1.12325361419055,750,0,0,incongruent,0.1,2962.8079448314,2705.94520607724
29,104,2,237,0.5,-0.5,0,3,NaN,0.4,3,902,1,0,902,0,0,1,NaN,0.872092970717626,0.872092970717626,750,0,0,neutral,0,5063.48797681598,2723.74988243505
29,104,2,238,0.5,-0.5,0.5,2,4,0.4,2,884,1,0,884,1,0,1,NaN,0.75312213959887,0.75312213959887,750,0,0,incongruent,1,6458.78873440179,3158.922993694
29,104,2,239,-0.5,0.5,-0.5,1,1,0.4,1,744,1,1,744,1,0,1.4,0.2,-0.17220654688034,-0.17220654688034,750,1,0,congruent,0.1,6503.23838442149,2094.67357825847
29,104,2,240,0.5,0.5,0,2,NaN,0.6,2,817,1,0,817,0,0,1.2,NaN,0.310286268212391,0.310286268212391,750,0,0,neutral,0,748.278958552965,1676.87784386811
29,104,2,241,0.5,0.5,-0.5,4,4,0.6,4,450,1,1,450,1,0,0.8,NaN,-2.11539678848668,-2.11539678848668,750,1,0,congruent,1,1331.05035086382,4786.28123462561
29,104,2,242,-0.5,0.5,-0.5,1,1,0.8,1,966,1,0,966,0,0,1,0.4,1.29510037025098,1.29510037025098,750,1,0,congruent,0,2192.69991004779,2904.15437479118
29,104,2,243,0.5,-0.5,0.5,3,2,0.6,3,638,1,1,638,1,0,1,NaN,-0.872812552357457,-0.872812552357457,750,0,0,incongruent,1,711.74466552692,2879.84862086811
29,104,2,245,-0.5,0.5,-0.5,2,2,0.6,2,779,1,0,779,0,0,0.8,0.2,0.0591256247394622,0.0591256247394622,750,1,0,congruent,0,6115.58581554628,5035.05480209742
29,104,2,246,0.5,0.5,0,4,NaN,0.4,4,630,1,1,630,1,0,0.8,NaN,-0.925688477299126,-0.925688477299126,750,0,0,neutral,1,1310.33342313214,343.453123477458
29,104,2,247,-0.5,-0.5,-0.5,3,3,0.4,3,860,1,0,860,0,0,0.8,0.4,0.594494364773863,0.594494364773863,750,1,0,congruent,0,2558.86019805593,363.298981212611
29,104,2,248,0.5,0.5,-0.5,1,1,0.4,1,828,1,0,828,0,0,0.8,NaN,0.382990665007186,0.382990665007186,750,1,0,congruent,0,2995.40764623518,3116.44670199758
29,104,2,249,-0.5,-0.5,0.5,3,2,0.4,3,576,1,1,576,1,0,0.4,0.4,-1.28260097065539,-1.28260097065539,750,0,0,incongruent,0.1,595.356902213659,921.953799983728
29,104,2,250,-0.5,-0.5,-0.5,4,4,0.4,4,533,1,1,533,0,0,0.6,0.6,-1.56680906721686,-1.56680906721686,750,1,0,congruent,0,2058.63372972547,2554.24007855421
29,104,2,251,-0.5,-0.5,-0.5,2,2,0.4,2,917,1,0,917,1,0,0.6,0.4,0.971235329983255,0.971235329983255,750,1,0,congruent,0.1,4810.76986204529,627.167670725763
29,104,2,252,0.5,-0.5,0,1,NaN,0.4,1,935,1,0,935,0,0,0.4,NaN,1.09020616110201,1.09020616110201,750,0,0,neutral,0,7430.53121665504,2332.93973240121
29,104,2,253,-0.5,-0.5,-0.5,4,4,0.4,4,650,1,1,650,0,0,0.4,0.4,-0.793498664944953,-0.793498664944953,750,1,0,congruent,0,624.750521245057,2000.08749310984
29,104,2,254,0.5,0.5,-0.5,3,3,0.4,3,856,1,0,856,0,0,0.4,NaN,0.568056402303028,0.568056402303028,750,1,0,congruent,0,2248.22817865365,2659.66559901852
29,104,2,255,0.5,0.5,0,2,NaN,0.2,2,840,1,0,840,0,0,0.2,NaN,0.46230455241969,0.46230455241969,750,0,0,neutral,0,2843.26095863709,4000.83287024722
29,104,2,256,-0.5,0.5,0.5,4,3,0.2,4,467,1,1,467,1,0,0.2,0.2,-2.00303544798564,-2.00303544798564,750,0,0,incongruent,0.1,3449.31139806097,938.430899697792
29,104,2,257,0.5,0.5,0,1,NaN,0.4,2,807,0,0,NaN,0,0,0.2,NaN,0.244191362035304,NaN,750,0,1,neutral,0,1632.10750262089,2445.13098093451
29,104,2,258,-0.5,0.5,-0.5,3,3,0.2,3,988,1,0,988,0,0,0.2,0.4,1.44050916384057,1.44050916384057,750,1,0,congruent,0,2800.80192709003,6192.88115149677
29,104,2,259,0.5,0.5,0.5,1,4,0.2,3,957,0,0,NaN,0,0,0.2,NaN,1.2356149546916,NaN,750,0,1,incongruent,0,2664.46641880711,4752.75176420925
29,104,2,260,-0.5,-0.5,0.5,4,1,0.2,4,609,1,1,609,0,0,0.2,0.4,-1.06448778027101,-1.06448778027101,750,0,0,incongruent,0,2486.37432722856,4502.96530976401
29,104,2,261,-0.5,0.5,0.5,1,4,0.2,3,900,0,0,NaN,0,0,0.2,0.4,0.858873989482208,NaN,750,0,1,incongruent,0,2204.44713323453,1264.08625376904
29,104,2,262,0.5,0.5,0.5,2,1,0.2,2,899,1,0,899,0,0,0,NaN,0.8522644988645,0.8522644988645,750,0,0,incongruent,0,4010.06674944843,537.068599437524
29,104,2,263,-0.5,0.5,-0.5,3,3,0,4,807,0,0,NaN,0,0,0,0.2,0.244191362035304,NaN,750,0,1,congruent,0,5390.74204865584,1779.27198747442
29,104,2,264,0.5,0.5,0.5,4,2,0,4,760,1,0,760,0,0,0,NaN,-0.0664546969970021,-0.0664546969970021,750,0,0,incongruent,0,3890.1064302394,961.388365389701
29,104,2,265,0.5,-0.5,0,2,NaN,0,2,785,1,0,785,0,0,0,NaN,0.0987825684457141,0.0987825684457141,750,0,0,neutral,0,1634.8444829946,3117.3656293355
29,104,2,266,0.5,-0.5,-0.5,1,1,0,2,894,0,0,NaN,0,0,0,NaN,0.819217045775956,NaN,750,0,1,congruent,0,1683.74814203506,3027.72032974719
29,104,2,267,0.5,0.5,0.5,3,4,0,4,972,0,0,NaN,0,0,0,NaN,1.33475731395723,NaN,750,1,0,incongruent,0,3769.18486544259,3917.82623831898
29,104,2,268,0.5,-0.5,-0.5,1,1,0,1,952,1,0,952,0,0,0,NaN,1.20256750160306,1.20256750160306,750,1,0,congruent,0,4435.84983067522,2863.71761183057
29,104,2,269,0.5,-0.5,0,3,NaN,0,3,828,1,0,828,0,0,0,NaN,0.382990665007186,0.382990665007186,750,0,0,neutral,0,6380.51446958695,1096.20256921156
29,104,2,272,-0.5,-0.5,0.5,1,4,0.2,1,943,1,0,943,1,0,0.4,0.4,1.14308208604368,1.14308208604368,750,0,0,incongruent,0.1,1797.60382210776,2243.14355771935
29,104,2,273,-0.5,-0.5,-0.5,3,3,0.2,1,919,0,0,NaN,1,0,0.6,0.4,0.984454311218673,NaN,750,0,1,congruent,0.1,725.591993178877,1300.90579122148
29,104,2,274,-0.5,0.5,-0.5,1,1,0.2,1,869,1,0,869,0,0,0.8,0.2,0.65397978033324,0.65397978033324,750,1,0,congruent,0,5771.3801055229,1776.0368547582
29,104,2,275,0.5,-0.5,-0.5,2,2,0.2,2,803,1,0,803,0,0,0.8,NaN,0.21775339956447,0.21775339956447,750,1,0,congruent,0,7208.8503434065,13790.8995145108
29,104,2,276,-0.5,0.5,0,3,NaN,0.2,3,885,1,0,885,0,0,0.8,0.2,0.759731630216579,0.759731630216579,750,0,0,neutral,0,2422.06439776395,4879.92181026274
29,104,2,277,-0.5,-0.5,0.5,4,2,0.2,4,398,1,1,398,1,0,0.4,0.6,-2.45909030060753,-2.45909030060753,750,0,0,incongruent,0.1,4037.14330091592,1212.47805642822
29,104,2,278,0.5,-0.5,0,3,NaN,0.2,3,775,1,0,775,1,0,0.4,NaN,0.0326876622686276,0.0326876622686276,750,0,0,neutral,1,2164.2092577167,1837.23834602348
29,104,2,279,0.5,-0.5,0.5,2,4,0.2,2,961,1,0,961,1,0,0.6,NaN,1.26205291716244,1.26205291716244,750,0,0,incongruent,1,478.393882650624,1183.6035611725
29,104,2,280,0.5,-0.5,0.5,1,2,0.2,1,862,1,0,862,0,0,1,NaN,0.60771334600928,0.60771334600928,750,0,0,incongruent,0,1699.9745602119,1617.88037959647
29,104,2,283,0.5,0.5,0.5,3,1,0.2,3,803,1,0,803,0,0,0.8,NaN,0.21775339956447,0.21775339956447,750,0,0,incongruent,0,1023.28096454856,1554.83080023156
29,104,2,284,-0.5,-0.5,0,1,NaN,0.2,4,532,0,1,NaN,0,0,0.4,0.6,-1.57341855783457,NaN,750,0,1,neutral,0,2863.17346532838,1820.34727264632
29,104,2,285,0.5,-0.5,-0.5,3,3,0.2,3,858,1,0,858,0,0,0,NaN,0.581275383538445,0.581275383538445,750,1,0,congruent,0,1439.15752359144,4908.64917415595
29,104,2,286,-0.5,-0.5,0.5,4,2,0.2,4,605,1,1,605,0,0,0,0.6,-1.09092574274184,-1.09092574274184,750,0,0,incongruent,0,1274.5332976993,1204.47806033728
29,104,2,288,-0.5,0.5,-0.5,4,4,0,4,873,1,0,873,0,0,0,0,0.680417742804075,0.680417742804075,750,1,0,congruent,0,1351.05249129006,1108.13225720099
29,104,2,290,-0.5,0.5,0.5,3,4,0,2,945,0,0,NaN,0,0,0,0,1.1563010672791,NaN,750,0,1,incongruent,0,14140.0235883221,372.678197971915
29,104,2,291,0.5,-0.5,-0.5,1,1,0,1,955,1,0,955,0,0,0,NaN,1.22239597345618,1.22239597345618,750,1,0,congruent,0,2705.51240524156,2883.64493637364
29,104,2,293,0.5,0.5,0.5,4,1,0.2,4,904,1,0,904,0,0,0.4,NaN,0.885311951953043,0.885311951953043,750,0,0,incongruent,0,603.586824325057,462.796300666724
29,104,2,294,-0.5,0.5,-0.5,2,2,0.2,3,872,0,0,NaN,0,0,0.4,0,0.673808252186366,NaN,750,0,1,congruent,0,7506.34164340684,2285.15767618835
29,104,2,295,-0.5,-0.5,0,4,NaN,0.2,4,583,1,1,583,1,0,0.4,0.4,-1.23633453633143,-1.23633453633143,750,0,0,neutral,0.1,4981.96731379474,1037.99417464353
29,104,2,296,0.5,0.5,0.5,3,2,0.2,2,928,0,0,NaN,0,0,0.6,NaN,1.04393972677805,NaN,750,1,0,incongruent,0,2719.65350611029,2249.66731554701
29,104,2,297,0.5,0.5,0,4,NaN,0.2,4,549,1,1,549,1,0,0.6,NaN,-1.46105721733353,-1.46105721733353,750,0,0,neutral,1,2995.91573280081,837.233186472508
29,104,2,298,-0.5,-0.5,-0.5,2,2,0.4,2,775,1,0,775,1,0,0.6,0.4,0.0326876622686276,0.0326876622686276,750,1,0,congruent,0.1,703.853634653733,1164.92286801212
29,104,2,299,-0.5,-0.5,0.5,3,1,0.4,3,792,1,0,792,0,0,0.8,0.4,0.145049002769675,0.145049002769675,750,0,0,incongruent,0,3959.15720181163,1657.11184407297
29,104,2,300,-0.5,0.5,0,4,NaN,0.4,4,667,1,1,667,1,0,0.8,0,-0.681137324443906,-0.681137324443906,750,0,0,neutral,0.1,1284.17629283475,2995.31808705108
29,104,3,302,0.5,-0.5,0.5,3,4,0.4,3,680,1,1,680,0,0,1,NaN,-0.595213946413694,-0.595213946413694,750,0,0,incongruent,0,10798.3056688439,2613.77889458358
29,104,3,303,0.5,-0.5,0,4,NaN,0.4,4,361,1,1,361,0,0,0.6,NaN,-2.70364145346275,-2.70364145346275,750,0,0,neutral,0,10688.6460900189,2253.32737342309
29,104,3,304,0.5,-0.5,0.5,3,2,0.4,3,814,1,0,814,0,0,0.4,NaN,0.290457796359265,0.290457796359265,750,0,0,incongruent,0,1740.17336160814,2549.34925190046
29,104,3,306,0.5,-0.5,0,4,NaN,0.4,4,510,1,1,510,0,0,0.2,NaN,-1.71882735142416,-1.71882735142416,750,0,0,neutral,0,2722.32315301151,3894.62316208759
29,104,3,307,0.5,-0.5,-0.5,3,3,0.4,3,840,1,0,840,1,0,0,NaN,0.46230455241969,0.46230455241969,750,1,0,congruent,1,4133.73473609365,1001.74445216965
29,104,3,308,0.5,0.5,-0.5,2,2,0.4,2,822,1,0,822,0,0,0.4,NaN,0.343333721300934,0.343333721300934,750,1,0,congruent,0,2392.57704715536,2971.99505691536
29,104,3,309,0.5,-0.5,0.5,3,1,0.4,3,756,1,0,756,0,0,0.4,NaN,-0.0928926594678367,-0.0928926594678367,750,0,0,incongruent,0,4591.21076912318,457.526451975328
29,104,3,310,0.5,-0.5,-0.5,2,2,0.4,2,752,1,0,752,0,0,0.4,NaN,-0.119330621938671,-0.119330621938671,750,1,0,congruent,0,9533.64051206702,1625.35939603821
29,104,3,311,-0.5,0.5,0.5,4,3,0.4,4,614,1,1,614,1,0,0.4,0.2,-1.03144032718246,-1.03144032718246,750,0,0,incongruent,0.1,2445.17798671913,2345.92102525755
29,104,3,312,0.5,0.5,0.5,1,4,0.6,2,789,0,0,NaN,0,0,0.6,NaN,0.125220530916549,NaN,750,0,1,incongruent,0,2637.45004645707,578.759312680349
29,104,3,313,0.5,0.5,0.5,4,3,0.4,4,582,1,1,582,1,0,0.2,NaN,-1.24294402694914,-1.24294402694914,750,0,0,incongruent,1,6670.58540699385,1578.47824639987
29,104,3,314,-0.5,-0.5,0.5,1,4,0.4,1,830,1,0,830,1,0,0.6,0.6,0.396209646242603,0.396209646242603,750,0,0,incongruent,0.1,2587.25799107818,1768.00545484327
29,104,3,315,0.5,0.5,0,2,NaN,0.4,2,868,1,0,868,0,0,0.8,NaN,0.647370289715532,0.647370289715532,750,0,0,neutral,0,4936.05809865797,4595.40338452996
29,104,3,316,-0.5,-0.5,-0.5,4,4,0.4,4,521,1,1,521,0,0,0.8,0.8,-1.64612295462937,-1.64612295462937,750,1,0,congruent,0,407.292300462839,2131.10626453833
29,104,3,318,0.5,0.5,0,3,NaN,0.4,3,797,1,0,797,0,0,0.8,NaN,0.178096455858218,0.178096455858218,750,0,0,neutral,0,8213.73796531426,2878.1058821492
29,104,3,319,0.5,-0.5,-0.5,4,4,0.4,4,497,1,1,497,0,0,0.4,NaN,-1.80475072945438,-1.80475072945438,750,1,0,congruent,0,2370.95876216367,817.741514356313
29,104,3,320,0.5,-0.5,0,3,NaN,0.4,3,612,1,1,612,0,0,0.2,NaN,-1.04465930841788,-1.04465930841788,750,0,0,neutral,0,2412.72178681721,1572.50741515687
29,104,3,321,-0.5,0.5,-0.5,4,4,0.4,4,532,1,1,532,1,0,0.2,0.4,-1.57341855783457,-1.57341855783457,750,1,0,congruent,0.1,7408.55825787329,907.162362486262
29,104,3,322,-0.5,-0.5,-0.5,1,1,0.4,3,753,0,0,NaN,0,0,0.4,0.6,-0.112721131320963,NaN,750,0,1,congruent,0,832.471772641832,1075.79254830465
29,104,3,323,0.5,0.5,-0.5,2,2,0.4,3,832,0,0,NaN,0,0,0.2,NaN,0.40942862747802,NaN,750,0,1,congruent,0,20427.7210873602,3737.86004398067
29,104,3,324,-0.5,-0.5,-0.5,1,1,0.4,1,925,1,0,925,1,0,0.2,0.6,1.02411125492492,1.02411125492492,750,1,0,congruent,0.1,4123.09898443348,754.45980164742
29,104,3,325,0.5,-0.5,-0.5,3,3,0.4,2,772,0,0,NaN,1,0,0.4,NaN,0.0128591904155017,NaN,750,0,1,congruent,1,7879.83329565712,4880.90112037002
29,104,3,326,-0.5,0.5,0,2,NaN,0.4,2,940,1,0,940,0,0,0.8,0.6,1.12325361419055,1.12325361419055,750,0,0,neutral,0,2629.08975205264,2526.48472164587
29,104,3,327,-0.5,-0.5,-0.5,1,1,0.2,4,771,0,0,NaN,1,0,0.6,0.6,0.00624969979779301,NaN,750,0,1,congruent,0.1,19970.7435378019,1582.30544214938
29,104,3,328,-0.5,-0.5,-0.5,4,4,0.2,4,611,1,1,611,0,0,0.8,0.6,-1.05126879903559,-1.05126879903559,750,1,0,congruent,0,1553.38707560109,6512.15811597246
29,104,3,330,0.5,0.5,-0.5,4,4,0.2,4,522,1,1,522,1,0,0.6,NaN,-1.63951346401166,-1.63951346401166,750,1,0,congruent,1,635.865360767033,1243.57590991616
29,104,3,331,0.5,-0.5,-0.5,1,1,0.4,1,804,1,0,804,0,0,0.6,NaN,0.224362890182178,0.224362890182178,750,1,0,congruent,0,1771.96583504675,2505.17498003422
29,104,3,332,-0.5,-0.5,-0.5,4,4,0.4,4,477,1,1,477,1,0,0.6,0.6,-1.93694054180855,-1.93694054180855,750,1,0,congruent,0.1,2180.99429352916,1100.45590241744
29,104,3,333,-0.5,-0.5,0,3,NaN,0.4,3,769,1,0,769,0,0,0.6,0.6,-0.00696928143762429,-0.00696928143762429,750,0,0,neutral,0,2956.2290506163,5227.64397241482
29,104,3,334,-0.5,-0.5,-0.5,4,4,0.4,4,681,1,1,681,1,0,0.6,0.6,-0.588604455795985,-0.588604455795985,750,1,0,congruent,0.1,1531.8063399638,4611.17305779386
29,104,3,335,0.5,-0.5,-0.5,1,1,0.4,1,741,1,1,741,1,0,0.8,NaN,-0.192035018733466,-0.192035018733466,750,1,0,congruent,1,2014.30943498142,1665.53741770657
29,104,3,336,0.5,-0.5,0,3,NaN,0.4,3,837,1,0,837,1,0,0.8,NaN,0.442476080566564,0.442476080566564,750,0,0,neutral,1,4259.9244901066,2386.27973866141
29,104,3,337,-0.5,0.5,0.5,2,3,0.4,2,815,1,0,815,0,0,1.2,0.6,0.297067286976973,0.297067286976973,750,0,0,incongruent,0,866.395553315239,1447.98029099175
29,104,3,338,0.5,-0.5,0,3,NaN,0.4,3,593,1,1,593,0,0,1,NaN,-1.17023963015435,-1.17023963015435,750,0,0,neutral,0,1741.34035495496,1042.56937279706
29,104,3,340,-0.5,-0.5,-0.5,4,4,0.4,4,590,1,1,590,1,0,1.2,0.6,-1.19006810200747,-1.19006810200747,750,1,0,congruent,0.1,4312.03502443902,533.832047636863
29,104,3,341,-0.5,-0.5,-0.5,2,2,0.4,3,726,0,1,NaN,1,0,1,0.6,-0.291177377999096,NaN,750,0,1,congruent,0.1,2475.44616350487,1769.26731242892
29,104,3,342,-0.5,-0.5,-0.5,4,4,0.4,4,610,1,1,610,0,0,0.8,0.8,-1.0578782896533,-1.0578782896533,750,1,0,congruent,0,1186.99146065158,2038.12004810447
29,104,3,343,-0.5,-0.5,0.5,3,2,0.4,3,932,1,0,932,1,0,0.8,0.6,1.07037768924888,1.07037768924888,750,0,0,incongruent,0.1,511.640780292167,3857.80932979485
29,104,3,344,-0.5,0.5,0,2,NaN,0.4,2,789,1,0,789,0,0,1,0.4,0.125220530916549,0.125220530916549,750,0,0,neutral,0,848.292757282032,2270.9965268177
29,104,3,345,0.5,-0.5,-0.5,1,1,0.2,4,697,0,1,NaN,0,0,0.6,NaN,-0.482852605912647,NaN,750,0,1,congruent,0,7702.52725939447,1836.21244728114
29,104,3,346,-0.5,-0.5,0,4,NaN,0.2,4,382,1,1,382,0,0,0.4,0.8,-2.56484215049087,-2.56484215049087,750,0,0,neutral,0,991.393917441034,2710.67633848978
29,104,3,349,0.5,-0.5,0.5,2,4,0.2,2,941,1,0,941,0,0,0,NaN,1.12986310480826,1.12986310480826,750,0,0,incongruent,0,1233.00807635627,2725.93743415993
29,104,3,351,0.5,-0.5,-0.5,4,4,0.2,4,536,1,1,536,0,0,0,NaN,-1.54698059536374,-1.54698059536374,750,1,0,congruent,0,2907.4675852151,2388.82693332391
29,104,3,352,-0.5,-0.5,0.5,3,1,0.2,2,878,0,0,NaN,0,0,0,0.2,0.713465195892618,NaN,750,0,1,incongruent,0,1136.91661882068,1843.90245744995
29,104,3,353,0.5,-0.5,0.5,4,2,0.2,4,482,1,1,482,0,0,0,NaN,-1.90389308872001,-1.90389308872001,750,0,0,incongruent,0,2148.51300037552,2844.31749076161
29,104,3,355,0.5,0.5,0.5,4,1,0.2,4,858,1,0,858,0,0,0.2,NaN,0.581275383538445,0.581275383538445,750,0,0,incongruent,0,1591.18323099435,3075.44061478987
29,104,3,356,0.5,0.5,0,1,NaN,0.2,1,889,1,0,889,0,0,0.2,NaN,0.786169592687413,0.786169592687413,750,0,0,neutral,0,2991.82693745311,1893.49219553642
29,104,3,358,0.5,0.5,0.5,4,2,0,4,763,1,0,763,0,0,0.2,NaN,-0.0466262251438762,-0.0466262251438762,750,0,0,incongruent,0,14199.4963689799,1927.81523430875
29,104,3,359,-0.5,0.5,-0.5,1,1,0,1,879,1,0,879,0,0,0.2,0,0.720074686510327,0.720074686510327,750,1,0,congruent,0,2881.50651360141,5503.31712719161
29,104,3,360,0.5,0.5,0,4,NaN,0,4,662,1,1,662,1,0,0,NaN,-0.714184777532449,-0.714184777532449,750,0,0,neutral,1,536.853675172425,399.868715911076
29,104,3,362,0.5,-0.5,0,1,NaN,0.2,1,871,1,0,871,0,0,0.4,NaN,0.667198761568658,0.667198761568658,750,0,0,neutral,0,3299.94869686427,3677.65320383507
29,104,3,363,-0.5,-0.5,0.5,2,4,0.2,3,790,0,0,NaN,0,0,0.4,0.2,0.131830021534257,NaN,750,0,1,incongruent,0,3570.30390328069,2852.42329528434
29,104,3,364,-0.5,0.5,0,3,NaN,0.2,3,946,1,0,946,0,0,0.4,0,1.16291055789681,1.16291055789681,750,0,0,neutral,0,2566.06531179163,865.491325964544
29,104,3,365,-0.5,0.5,-0.5,4,4,0.2,4,701,1,1,701,1,0,0.4,0,-0.456414643441812,-0.456414643441812,750,1,0,congruent,0.1,3796.22825795115,3649.00625811779
29,104,3,366,-0.5,-0.5,-0.5,2,2,0.4,3,827,0,0,NaN,1,0,0.2,0.2,0.376381174389477,NaN,750,0,1,congruent,0.1,2088.68329569191,3315.23096219229
29,104,3,368,0.5,0.5,0.5,4,2,0.4,4,523,1,1,523,1,0,0.4,NaN,-1.63290397339395,-1.63290397339395,750,0,0,incongruent,1,7014.91126503501,3295.42507901432
29,104,3,369,-0.5,0.5,-0.5,3,3,0.4,3,774,1,0,774,0,0,0.8,0.2,0.0260781716509189,0.0260781716509189,750,1,0,congruent,0,1796.94584813949,1544.67374967746
29,104,3,370,0.5,0.5,0.5,2,4,0.4,2,850,1,0,850,0,0,0.8,NaN,0.528399458596776,0.528399458596776,750,0,0,incongruent,0,6273.63899000554,3554.63469628247
29,104,3,371,-0.5,0.5,-0.5,1,1,0.4,4,704,0,1,NaN,0,0,0.6,0.2,-0.436586171588686,NaN,750,0,1,congruent,0,5038.00451101596,746.38520948516
29,104,3,372,-0.5,0.5,-0.5,2,2,0.2,3,795,0,0,NaN,0,0,0.4,0.2,0.164877474622801,NaN,750,0,1,congruent,0,1449.39298895324,941.120364261215
29,104,3,374,0.5,-0.5,0.5,4,2,0.2,4,671,1,1,671,0,0,0.2,NaN,-0.654699361973072,-0.654699361973072,750,0,0,incongruent,0,1342.27437467873,2266.8858161229
29,104,3,375,-0.5,0.5,-0.5,3,3,0.2,3,844,1,0,844,0,0,0.2,0.2,0.488742514890524,0.488742514890524,750,1,0,congruent,0,1469.11438390677,8891.60308548262
29,104,3,376,-0.5,-0.5,0.5,2,1,0,3,899,0,0,NaN,0,0,0.2,0.6,0.8522644988645,NaN,750,0,1,incongruent,0,3314.47897631131,1514.22993426924
29,104,3,377,-0.5,-0.5,0.5,1,4,0,1,748,1,1,748,0,0,0.2,0.6,-0.145768584409506,-0.145768584409506,750,0,0,incongruent,0,1987.34000920404,2326.84874924609
29,104,3,378,-0.5,0.5,0,3,NaN,0,3,871,1,0,871,0,0,0.2,0,0.667198761568658,0.667198761568658,750,0,0,neutral,0,6556.60913762978,1537.78884446494
29,104,3,379,0.5,0.5,0.5,4,2,0,4,580,1,1,580,1,0,0,NaN,-1.25616300818456,-1.25616300818456,750,0,0,incongruent,1,917.602965343774,3489.39503859922
29,104,3,380,-0.5,0.5,0,2,NaN,0.2,2,865,1,0,865,0,0,0.4,0,0.627541817862406,0.627541817862406,750,0,0,neutral,0,3063.41660198828,2344.10674824706
29,104,3,382,0.5,-0.5,0.5,2,3,0.2,2,935,1,0,935,0,0,0.4,NaN,1.09020616110201,1.09020616110201,750,0,0,incongruent,0,2168.51553124566,2391.03513279888
29,104,3,383,0.5,-0.5,-0.5,1,1,0.2,1,905,1,0,905,0,0,0.4,NaN,0.891921442570752,0.891921442570752,750,1,0,congruent,0,2624.89956346331,3703.69953790393
29,104,3,384,0.5,0.5,0,2,NaN,0.2,2,834,1,0,834,0,0,0.4,NaN,0.422647608713438,0.422647608713438,750,0,0,neutral,0,4566.59346618104,11209.9648838631
29,104,3,386,0.5,0.5,0.5,4,2,0.2,4,603,1,1,603,1,0,0,NaN,-1.10414472397726,-1.10414472397726,750,0,0,incongruent,1,2558.21418938132,2424.69275800038
29,104,3,387,-0.5,-0.5,-0.5,3,3,0.2,3,774,1,0,774,0,0,0.4,0.4,0.0260781716509189,0.0260781716509189,750,1,0,congruent,0,1243.81228537009,2614.81900442495
29,104,3,388,0.5,-0.5,0,1,NaN,0.2,1,968,1,0,968,0,0,0.4,NaN,1.3083193514864,1.3083193514864,750,0,0,neutral,0,1700.8355896012,6197.83677039731
29,104,3,390,-0.5,-0.5,0.5,4,1,0.2,4,645,1,1,645,0,0,0.4,0.4,-0.826546118033496,-0.826546118033496,750,0,0,incongruent,0,2115.82381098739,2104.92681140248
29,104,3,391,-0.5,-0.5,0.5,1,2,0.2,2,837,0,0,NaN,1,0,0.4,0.2,0.442476080566564,NaN,750,1,0,incongruent,0.1,2561.66890866814,1256.0538905963
29,104,3,393,0.5,0.5,-0.5,1,1,0.2,3,919,0,0,NaN,0,0,0.2,NaN,0.984454311218673,NaN,750,0,1,congruent,0,853.176335428215,1727.29662511485
29,104,3,394,0.5,-0.5,-0.5,4,4,0.2,4,561,1,1,561,0,0,0.2,NaN,-1.38174332992102,-1.38174332992102,750,1,0,congruent,0,644.671106854304,3121.13659017497
29,104,3,395,-0.5,0.5,-0.5,1,1,0.2,1,939,1,0,939,0,0,0.2,0,1.11664412357285,1.11664412357285,750,1,0,congruent,0,4122.98709582654,6307.5922427814
29,104,3,396,-0.5,0.5,0,4,NaN,0.2,4,547,1,1,547,1,0,0.2,0,-1.47427619856894,-1.47427619856894,750,0,0,neutral,0.1,3959.90392643742,1130.25698017321
29,104,3,397,-0.5,0.5,-0.5,1,1,0.4,1,755,1,0,755,0,0,0.2,0.2,-0.0995021500855453,-0.0995021500855453,750,1,0,congruent,0,1410.45692400908,1540.05144713095
29,104,3,398,0.5,0.5,-0.5,2,2,0.4,2,892,1,0,892,0,0,0.2,NaN,0.805998064540539,0.805998064540539,750,1,0,congruent,0,2814.1924838303,1298.63827182516
29,104,3,399,0.5,-0.5,-0.5,4,4,0.2,4,646,1,1,646,0,0,0.2,NaN,-0.819936627415788,-0.819936627415788,750,1,0,congruent,0,2919.04031420708,2683.6725276345
29,104,3,400,-0.5,0.5,0,1,NaN,0.2,1,864,1,0,864,0,0,0.2,0.2,0.620932327244697,0.620932327244697,750,0,0,neutral,0,1785.87699787301,1531.03401291962
29,104,3,402,0.5,0.5,0,1,NaN,0.2,2,858,0,0,NaN,0,0,0,NaN,0.581275383538445,NaN,750,0,1,neutral,0,1541.46323640746,1046.87795438203
29,104,3,403,0.5,0.5,0.5,4,1,0,4,601,1,1,601,1,0,0,NaN,-1.11736370521268,-1.11736370521268,750,0,0,incongruent,1,4038.79461731696,8278.07476096773
29,104,3,404,-0.5,-0.5,0,3,NaN,0.2,3,841,1,0,841,1,0,0.4,0.2,0.468914043037398,0.468914043037398,750,0,0,neutral,0.1,2477.51127980102,3226.18730343523
29,104,3,405,0.5,-0.5,0.5,1,2,0.2,1,794,1,0,794,1,0,0.6,NaN,0.158267984005092,0.158267984005092,750,0,0,incongruent,1,1614.76869067629,2492.8680237258
29,104,3,406,0.5,0.5,-0.5,4,4,0.2,4,460,1,1,460,1,0,1,NaN,-2.0493018823096,-2.0493018823096,750,1,0,congruent,1,4941.93286421392,1659.55156403183
29,104,3,407,-0.5,-0.5,0.5,1,2,0.4,1,845,1,0,845,0,0,1.4,0.4,0.495352005508233,0.495352005508233,750,0,0,incongruent,0,4008.44324378749,1998.78155377688
29,104,3,408,0.5,0.5,0.5,3,1,0.4,3,919,1,0,919,0,0,1.4,NaN,0.984454311218673,0.984454311218673,750,0,0,incongruent,0,1708.51796849738,890.484319961673
29,104,3,409,0.5,-0.5,-0.5,2,2,0.4,1,997,0,0,NaN,0,0,1,NaN,1.49999457939995,NaN,750,0,1,congruent,0,4260.60388875193,3147.97366417341
29,104,3,411,-0.5,-0.5,0,3,NaN,0.4,3,917,1,0,917,1,0,0.6,0.6,0.971235329983255,0.971235329983255,750,0,0,neutral,0.1,2582.64156472117,2580.06323949769
29,104,3,412,-0.5,-0.5,0.5,4,2,0.4,4,605,1,1,605,0,0,0.4,0.6,-1.09092574274184,-1.09092574274184,750,0,0,incongruent,0,8386.05385421756,711.711523071179
29,104,3,413,0.5,0.5,0.5,1,4,0.4,1,717,1,1,717,1,0,0.4,NaN,-0.350662793558474,-0.350662793558474,750,0,0,incongruent,1,1017.43032142906,2757.51229515904
29,104,3,414,0.5,-0.5,0,4,NaN,0.6,4,618,1,1,618,0,0,0.8,NaN,-1.00500236471163,-1.00500236471163,750,0,0,neutral,0,2091.31269063125,951.810407967672
29,104,3,416,0.5,0.5,0.5,4,2,0.6,4,470,1,1,470,1,0,1,NaN,-1.98320697613251,-1.98320697613251,750,0,0,incongruent,1,1564.19004721938,966.640585158856
29,104,3,417,0.5,-0.5,-0.5,3,3,0.8,3,704,1,1,704,1,0,1.2,NaN,-0.436586171588686,-0.436586171588686,750,1,0,congruent,1,991.532116372596,2086.34724027754
29,104,3,418,-0.5,0.5,0.5,2,4,0.8,2,984,1,0,984,0,0,1.6,0.2,1.41407120136973,1.41407120136973,750,0,0,incongruent,0,2270.60896623257,1276.9535142114
29,104,3,419,-0.5,-0.5,0,1,NaN,0.6,4,572,0,1,NaN,1,0,1.2,0.6,-1.30903893312623,NaN,750,0,1,neutral,0.1,4894.14387200534,1200.95191593109
29,104,3,421,0.5,-0.5,-0.5,4,4,0.6,4,760,1,0,760,0,0,1.4,NaN,-0.0664546969970021,-0.0664546969970021,750,1,0,congruent,0,842.497022508095,2890.25179400194
29,104,3,423,0.5,-0.5,0.5,3,4,0.6,3,744,1,1,744,1,0,0.8,NaN,-0.17220654688034,-0.17220654688034,750,0,0,incongruent,1,1963.40892539186,1276.42307812524
29,104,3,424,0.5,-0.5,0,4,NaN,0.6,4,679,1,1,679,1,0,1.2,NaN,-0.601823437031402,-0.601823437031402,750,0,0,neutral,1,4191.05998621155,1529.77346124663
29,104,3,425,-0.5,-0.5,-0.5,1,1,0.6,1,866,1,0,866,1,0,1.4,0.8,0.634151308480114,0.634151308480114,750,1,0,congruent,0.1,2964.15958663285,3530.15083619641
29,104,3,426,-0.5,-0.5,-0.5,2,2,0.6,2,817,1,0,817,1,0,1.2,0.8,0.310286268212391,0.310286268212391,750,1,0,congruent,0.1,7807.14065901265,2955.14808341362
29,104,3,427,0.5,-0.5,0.5,4,3,0.6,4,966,1,0,966,0,0,1.4,NaN,1.29510037025098,1.29510037025098,750,0,0,incongruent,0,4772.98047610596,1836.20581403551
29,104,3,428,-0.5,0.5,-0.5,1,1,0.6,1,901,1,0,901,0,0,1.2,0.2,0.865483480099917,0.865483480099917,750,1,0,congruent,0,821.519836762206,251.417050771119
29,104,3,429,-0.5,0.5,0,3,NaN,0.4,3,725,1,1,725,1,0,0.8,0.2,-0.297786868616805,-0.297786868616805,750,0,0,neutral,0.1,5735.62555887424,808.094458584364
29,104,3,431,0.5,-0.5,-0.5,4,4,0.6,4,527,1,1,527,1,0,0.4,NaN,-1.60646601092312,-1.60646601092312,750,1,0,congruent,1,1949.70027109718,3216.19911370569
29,104,3,432,0.5,0.5,-0.5,3,3,0.6,3,959,1,0,959,0,0,0.6,NaN,1.24883393592702,1.24883393592702,750,1,0,congruent,0,1022.79537371851,1163.60933196298
29,104,3,433,-0.5,0.5,0.5,1,2,0.4,1,893,1,0,893,0,0,0.6,0.2,0.812607555158248,0.812607555158248,750,0,0,incongruent,0,697.875584003787,427.23258966889
29,104,3,435,-0.5,0.5,-0.5,1,1,0.2,3,801,0,0,NaN,0,0,0.4,0.2,0.204534418329052,NaN,750,0,1,congruent,0,3367.08225045364,885.366997017242
29,104,3,436,-0.5,-0.5,0.5,4,2,0.2,4,733,1,1,733,1,0,0.4,0.8,-0.244910943675136,-0.244910943675136,750,0,0,incongruent,0.1,6571.64309794316,3212.12955121043
29,104,3,437,0.5,0.5,0.5,2,1,0.2,2,979,1,0,979,0,0,0.2,NaN,1.38102374828119,1.38102374828119,750,0,0,incongruent,0,2603.76866967975,776.714559294177
29,104,3,439,0.5,-0.5,0.5,1,4,0,1,821,1,0,821,0,0,0.2,NaN,0.336724230683225,0.336724230683225,750,0,0,incongruent,0,5161.75925991286,1229.50093289514
29,104,3,440,-0.5,-0.5,0.5,3,1,0,3,849,1,0,849,0,0,0.2,0.8,0.521789967979067,0.521789967979067,750,0,0,incongruent,0,606.186664841689,959.14813857637
29,104,3,441,-0.5,0.5,-0.5,4,4,0,4,699,1,1,699,1,0,0.2,0.2,-0.46963362467723,-0.46963362467723,750,1,0,congruent,0.1,1998.37564409955,2167.31473918596
29,104,3,443,-0.5,0.5,-0.5,3,3,0.2,3,786,1,0,786,0,0,0.2,0.4,0.105392059063423,0.105392059063423,750,1,0,congruent,0,4901.26468797165,1133.90229248522
29,104,3,445,0.5,-0.5,0,1,NaN,0.2,3,896,0,0,NaN,1,0,0.6,NaN,0.832436027011374,NaN,750,0,1,neutral,1,1512.22798571168,1912.03813954664
29,104,3,446,0.5,0.5,-0.5,4,4,0.2,4,676,1,1,676,1,0,1,NaN,-0.621651908884528,-0.621651908884528,750,1,0,congruent,1,1996.9627730184,4143.83791016543
29,104,3,447,-0.5,-0.5,-0.5,3,3,0.4,3,870,1,0,870,0,0,1.2,0.6,0.660589270950949,0.660589270950949,750,1,0,congruent,0,1409.90302466649,5042.46413777418
29,104,3,448,-0.5,0.5,0,4,NaN,0.4,4,756,1,0,756,0,0,1.2,0.2,-0.0928926594678367,-0.0928926594678367,750,0,0,neutral,0,3631.80547971082,2906.0445865199
29,104,3,449,0.5,0.5,0.5,2,4,0.4,2,905,1,0,905,0,0,1.2,NaN,0.891921442570752,0.891921442570752,750,0,0,incongruent,0,3439.98041797989,849.40069365821
29,104,3,450,-0.5,0.5,0,4,NaN,0.2,4,621,1,1,621,1,0,0.8,0.2,-0.985173892858504,-0.985173892858504,750,0,0,neutral,0.1,3070.41195539619,351.264674528614
29,104,4,452,-0.5,-0.5,0.5,4,1,0.4,4,628,1,1,628,1,0,0.2,0.4,-0.938907458534543,-0.938907458534543,750,0,0,incongruent,0.1,1807.59765265689,1520.47211233551
29,104,4,453,0.5,-0.5,0.5,3,4,0.4,3,985,1,0,985,1,0,0.4,NaN,1.42068069198744,1.42068069198744,750,0,0,incongruent,1,1322.38166353287,2776.75270726386
29,104,4,454,0.5,0.5,0.5,4,3,0.4,4,616,1,1,616,1,0,0.8,NaN,-1.01822134594705,-1.01822134594705,750,0,0,incongruent,1,1134.84061509764,1444.3869063519
29,104,4,455,-0.5,-0.5,0.5,3,4,0.4,3,771,1,0,771,0,0,1.2,0.4,0.00624969979779301,0.00624969979779301,750,0,0,incongruent,0,7135.3595288576,1554.78101779396
29,104,4,456,-0.5,0.5,0.5,4,3,0.4,4,655,1,1,655,1,0,1,0.2,-0.76045121185641,-0.76045121185641,750,0,0,incongruent,0.1,3083.5043108905,672.687709482035
29,104,4,458,-0.5,-0.5,-0.5,4,4,0.6,4,569,1,1,569,0,0,1,0.4,-1.32886740497935,-1.32886740497935,750,1,0,congruent,0,5706.02689215465,3524.63906593879
29,104,4,459,-0.5,-0.5,-0.5,2,2,0.6,3,847,0,0,NaN,0,0,0.6,0.2,0.50857098674365,NaN,750,0,1,congruent,0,6215.50461846348,878.810333556065
29,104,4,460,0.5,0.5,0,4,NaN,0.6,4,525,1,1,525,1,0,0.2,NaN,-1.61968499215853,-1.61968499215853,750,0,0,neutral,1,6702.78957783926,436.501010428112
29,104,4,461,-0.5,-0.5,-0.5,3,3,0.6,3,683,1,1,683,1,0,0.6,0.2,-0.575385474560568,-0.575385474560568,750,1,0,congruent,0.1,3692.33139817714,3079.24053334342
29,104,4,462,0.5,-0.5,0,1,NaN,0.6,2,871,0,0,NaN,0,0,0.6,NaN,0.667198761568658,NaN,750,0,1,neutral,0,1351.35563683515,1580.81576300404
29,104,4,464,-0.5,0.5,-0.5,4,4,0.6,4,609,1,1,609,1,0,0.6,0.4,-1.06448778027101,-1.06448778027101,750,1,0,congruent,0.1,2692.01547984222,2450.84616326941
29,104,4,465,0.5,0.5,0,2,NaN,0.6,3,766,0,0,NaN,0,0,0.8,NaN,-0.0267977532907502,NaN,750,0,1,neutral,0,1855.0158349689,2139.62830311503
29,104,4,466,-0.5,0.5,-0.5,1,1,0.4,1,964,1,0,964,0,0,0.4,0.6,1.28188138901556,1.28188138901556,750,1,0,congruent,0,1628.45595504213,2025.87361460989
29,104,4,467,0.5,0.5,0.5,3,4,0.4,3,676,1,1,676,1,0,0.2,NaN,-0.621651908884528,-0.621651908884528,750,0,0,incongruent,1,708.681016167859,2413.20536567505
29,104,4,468,0.5,0.5,-0.5,1,1,0.4,1,826,1,0,826,0,0,0.6,NaN,0.369771683771769,0.369771683771769,750,1,0,congruent,0,3542.87765284543,1794.38864564507
29,104,4,469,-0.5,0.5,-0.5,4,4,0.4,4,658,1,1,658,1,0,0.6,0.4,-0.740622740003284,-0.740622740003284,750,1,0,congruent,0.1,3750.66129968543,3238.34998424381
29,104,4,470,-0.5,0.5,-0.5,3,3,0.4,3,825,1,0,825,0,0,0.6,0.6,0.36316219315406,0.36316219315406,750,1,0,congruent,0,719.569299988077,2659.58933720489
29,104,4,471,-0.5,-0.5,0.5,2,1,0.4,2,940,1,0,940,0,0,0.6,0.4,1.12325361419055,1.12325361419055,750,0,0,incongruent,0,2194.17939687164,5346.85945853305
29,104,4,472,0.5,-0.5,0.5,3,4,0.4,3,956,1,0,956,0,0,0.6,NaN,1.22900546407389,1.22900546407389,750,0,0,incongruent,0,6202.68199561462,2606.99239501856
29,104,4,473,0.5,0.5,0,4,NaN,0.4,4,501,1,1,501,1,0,0.2,NaN,-1.77831276698354,-1.77831276698354,750,0,0,neutral,1,1203.57697498735,1230.88796356065
29,104,4,474,0.5,-0.5,-0.5,1,1,0.6,1,974,1,0,974,1,0,0.6,NaN,1.34797629519265,1.34797629519265,750,1,0,congruent,1,3640.18124875358,1726.06014275847
29,104,4,475,0.5,-0.5,-0.5,2,2,0.6,3,746,0,1,NaN,0,0,0.8,NaN,-0.158987565644923,NaN,750,0,1,congruent,0,1013.51022067293,1327.8907415136
29,104,4,477,-0.5,-0.5,0.5,2,4,0.4,1,736,0,1,NaN,1,0,0.8,0.2,-0.22508247182201,NaN,750,0,1,incongruent,0.1,3527.59702745318,1331.64468431754
29,104,4,478,0.5,-0.5,-0.5,3,3,0.4,3,766,1,0,766,1,0,1,NaN,-0.0267977532907502,-0.0267977532907502,750,1,0,congruent,1,9655.62649297063,4131.217736808
29,104,4,480,-0.5,-0.5,0,2,NaN,0.4,2,829,1,0,829,0,0,0.6,0.4,0.389600155624894,0.389600155624894,750,0,0,neutral,0,2207.63594249439,5451.31560303979
29,104,4,482,0.5,0.5,0,1,NaN,0.4,1,671,1,1,671,1,0,0.6,NaN,-0.654699361973072,-0.654699361973072,750,0,0,neutral,1,1336.74436160584,1755.52326485307
29,104,4,483,0.5,-0.5,-0.5,4,4,0.4,4,733,1,1,733,1,0,0.8,NaN,-0.244910943675136,-0.244910943675136,750,1,0,congruent,1,1088.05083059443,1315.20823402036
29,104,4,484,0.5,0.5,0,1,NaN,0.4,1,659,1,1,659,1,0,0.8,NaN,-0.734013249385575,-0.734013249385575,750,0,0,neutral,1,406.472177180833,1852.8851522158
29,104,4,486,0.5,0.5,-0.5,3,3,0.6,3,768,1,0,768,0,0,1.6,NaN,-0.0135787720553329,-0.0135787720553329,750,1,0,congruent,0,10006.3019065903,1893.29456136
29,104,4,487,0.5,0.5,0,2,NaN,0.4,2,643,1,1,643,1,0,1.6,NaN,-0.839765099268914,-0.839765099268914,750,0,0,neutral,1,365.012899547468,6599.79747502381
29,104,4,488,-0.5,0.5,-0.5,3,3,0.6,3,905,1,0,905,0,0,1.6,0.4,0.891921442570752,0.891921442570752,750,1,0,congruent,0,985.861829192286,1285.93968290984
29,104,4,489,0.5,0.5,-0.5,4,4,0.6,4,563,1,1,563,1,0,1.2,NaN,-1.36852434868561,-1.36852434868561,750,1,0,congruent,1,4029.09600211825,1723.09293740781
29,104,4,490,0.5,0.5,-0.5,3,3,0.6,3,752,1,0,752,0,0,1.2,NaN,-0.119330621938671,-0.119330621938671,750,1,0,congruent,0,2153.37216162677,919.018215261456
29,104,4,491,-0.5,0.5,0.5,4,1,0.4,2,949,0,0,NaN,0,0,0.8,0.2,1.18273902974993,NaN,750,0,1,incongruent,0,10503.5543639067,506.647624076156
29,104,4,492,-0.5,-0.5,-0.5,2,2,0.4,2,883,1,0,883,0,0,0.8,0.4,0.746512648981161,0.746512648981161,750,1,0,congruent,0,3101.98023163097,3034.09900550334
29,104,4,493,-0.5,-0.5,0,4,NaN,0.4,4,737,1,1,737,0,0,0.4,0.4,-0.218472981204301,-0.218472981204301,750,0,0,neutral,0,1100.88349296593,6194.84576559279
29,104,4,494,-0.5,-0.5,-0.5,3,3,0.4,3,672,1,1,672,0,0,0.4,0.2,-0.648089871355363,-0.648089871355363,750,1,0,congruent,0,4736.9115154566,1419.46856198129
29,104,4,496,0.5,-0.5,-0.5,3,3,0.2,3,710,1,1,710,0,0,0,NaN,-0.396929227882434,-0.396929227882434,750,1,0,congruent,0,4216.50671565734,1652.55360121339
29,104,4,497,0.5,-0.5,0,1,NaN,0.2,1,897,1,0,897,0,0,0,NaN,0.839045517629082,0.839045517629082,750,0,0,neutral,0,802.421002066547,1838.66391859629
29,104,4,498,0.5,-0.5,-0.5,3,3,0.2,3,687,1,1,687,0,0,0,NaN,-0.548947512089733,-0.548947512089733,750,1,0,congruent,0,3500.54024462936,802.615199704708
29,104,4,499,-0.5,0.5,0,4,NaN,0.2,4,393,1,1,393,1,0,0,0.2,-2.49213775369608,-2.49213775369608,750,0,0,neutral,0.1,3713.87180426165,1447.5071760038
29,104,4,500,-0.5,0.5,-0.5,1,1,0.4,3,966,0,0,NaN,0,0,0.2,0.2,1.29510037025098,NaN,750,0,1,congruent,0,1416.32089605977,2385.72179796929
29,104,4,502,-0.5,-0.5,-0.5,4,4,0.2,4,497,1,1,497,0,0,0.2,0.2,-1.80475072945438,-1.80475072945438,750,1,0,congruent,0,2138.74913016586,3186.0044932118
29,104,4,503,0.5,-0.5,-0.5,1,1,0.2,1,915,1,0,915,0,0,0.2,NaN,0.958016348747838,0.958016348747838,750,1,0,congruent,0,2806.61557362032,7730.18142006421
29,104,4,504,-0.5,-0.5,0,3,NaN,0.2,3,792,1,0,792,0,0,0.2,0,0.145049002769675,0.145049002769675,750,0,0,neutral,0,3220.58232074591,3440.73632370711
29,104,4,505,-0.5,-0.5,0.5,4,2,0.2,4,914,1,0,914,0,0,0,0,0.951406858130129,0.951406858130129,750,0,0,incongruent,0,1082.28235568862,1556.79938214165
29,104,4,506,0.5,-0.5,-0.5,1,1,0.2,1,882,1,0,882,1,0,0,NaN,0.739903158363453,0.739903158363453,750,1,0,congruent,1,1960.31807919661,2169.67231270618
29,104,4,507,-0.5,0.5,-0.5,2,2,0.2,3,928,0,0,NaN,0,0,0.4,0.2,1.04393972677805,NaN,750,0,1,congruent,0,3693.36303279823,1294.46098521938
29,104,4,508,-0.5,0.5,0,4,NaN,0.2,4,666,1,1,666,1,0,0.4,0.2,-0.687746815061615,-0.687746815061615,750,0,0,neutral,0.1,1393.42069804065,3612.30457255623
29,104,4,510,-0.5,-0.5,0.5,3,4,0.4,3,725,1,1,725,1,0,0.6,0,-0.297786868616805,-0.297786868616805,750,0,0,incongruent,0.1,5683.00431827547,585.763379673814
29,104,4,511,-0.5,0.5,0,4,NaN,0.4,4,607,1,1,607,1,0,0.8,0.4,-1.07770676150642,-1.07770676150642,750,0,0,neutral,0.1,1748.93163980998,2700.67836031726
29,104,4,512,0.5,0.5,-0.5,3,3,0.4,3,708,1,1,708,1,0,0.6,NaN,-0.410148209117852,-0.410148209117852,750,1,0,congruent,1,968.909531982417,520.05192750081
29,104,4,513,-0.5,0.5,-0.5,1,1,0.6,4,688,0,1,NaN,0,0,1,0.4,-0.542338021472025,NaN,750,0,1,congruent,0,656.858824507087,2048.94182776984
29,104,4,514,-0.5,-0.5,-0.5,4,4,0.6,4,521,1,1,521,1,0,0.8,0.2,-1.64612295462937,-1.64612295462937,750,1,0,congruent,0.1,968.470777582708,1982.29812513835
29,104,4,515,0.5,-0.5,0,3,NaN,0.6,3,777,1,0,777,1,0,1,NaN,0.0459066435040449,0.0459066435040449,750,0,0,neutral,1,3760.63019830416,1982.93590701714
29,104,4,516,0.5,-0.5,-0.5,1,1,0.6,4,757,0,0,NaN,0,0,1.2,NaN,-0.086283168850128,NaN,750,0,1,congruent,0,1200.07044788134,787.473587164357
29,104,4,517,0.5,-0.5,0,4,NaN,0.6,4,652,1,1,652,0,0,1,NaN,-0.780279683709536,-0.780279683709536,750,0,0,neutral,0,3565.27918723049,2718.82191608862
29,104,4,519,-0.5,-0.5,-0.5,1,1,0.4,2,892,0,0,NaN,0,0,0.6,0.4,0.805998064540539,NaN,750,0,1,congruent,0,4480.92336575355,2632.45982094496
29,104,4,520,0.5,0.5,0,4,NaN,0.4,4,530,1,1,530,1,0,0.4,NaN,-1.58663753906999,-1.58663753906999,750,0,0,neutral,1,1998.42748370855,1109.63787551036
29,104,4,522,0.5,0.5,0,4,NaN,0.6,4,567,1,1,567,1,0,0.6,NaN,-1.34208638621477,-1.34208638621477,750,0,0,neutral,1,790.439465650685,4609.62101191138
29,104,4,524,0.5,-0.5,0.5,3,4,0.6,3,747,1,1,747,0,0,1.2,NaN,-0.152378075027215,-0.152378075027215,750,0,0,incongruent,0,2495.10620051212,3490.16271177323
29,104,4,525,0.5,0.5,-0.5,2,2,0.6,2,871,1,0,871,0,0,1.2,NaN,0.667198761568658,0.667198761568658,750,1,0,congruent,0,2171.19604814695,383.064896467475
29,104,4,527,-0.5,0.5,0.5,4,3,0.4,4,376,1,1,376,1,0,0.6,0.4,-2.60449909419712,-2.60449909419712,750,0,0,incongruent,0.1,569.580724399198,3039.70685307594
29,104,4,528,0.5,-0.5,0,3,NaN,0.6,3,658,1,1,658,0,0,0.4,NaN,-0.740622740003284,-0.740622740003284,750,0,0,neutral,0,2887.08148934612,8573.38989182546
29,104,4,529,0.5,0.5,0.5,2,4,0.6,2,918,1,0,918,0,0,0.2,NaN,0.977844820600964,0.977844820600964,750,0,0,incongruent,0,420.08590599096,1507.10942855232
29,104,4,532,0.5,0.5,0,4,NaN,0.4,4,683,1,1,683,1,0,0.2,NaN,-0.575385474560568,-0.575385474560568,750,0,0,neutral,1,5422.34605051978,1026.49814965743
29,104,4,534,0.5,0.5,0,4,NaN,0.4,4,615,1,1,615,1,0,0.4,NaN,-1.02483083656476,-1.02483083656476,750,0,0,neutral,1,1233.2736774719,413.385712445225
29,104,4,535,-0.5,0.5,0.5,1,3,0.6,2,940,0,0,NaN,0,0,0.8,0.6,1.12325361419055,NaN,750,0,1,incongruent,0,2656.29762290579,1694.63951359369
29,104,4,537,0.5,-0.5,0,3,NaN,0.4,3,935,1,0,935,0,0,0.8,NaN,1.09020616110201,1.09020616110201,750,0,0,neutral,0,4503.15447512205,2709.17425427773
29,104,4,541,0.5,0.5,-0.5,1,1,0.4,2,794,0,0,NaN,0,0,0.8,NaN,0.158267984005092,NaN,750,0,1,congruent,0,1877.00674939793,462.503611337632
29,104,4,542,-0.5,-0.5,-0.5,3,3,0.2,3,809,1,0,809,0,0,0.8,0.6,0.257410343270722,0.257410343270722,750,1,0,congruent,0,2050.09692126064,1471.50786572562
29,104,4,543,0.5,0.5,-0.5,2,2,0.2,2,843,1,0,843,0,0,0.8,NaN,0.482133024272816,0.482133024272816,750,1,0,congruent,0,1514.07070208289,1818.91487397029
29,104,4,545,-0.5,0.5,-0.5,2,2,0,3,654,0,1,NaN,0,0,0,0.2,-0.767060702474119,NaN,750,0,1,congruent,0,6145.67555979453,2774.3388714036
29,104,4,546,0.5,-0.5,0.5,1,3,0,1,912,1,0,912,0,0,0,NaN,0.938187876894712,0.938187876894712,750,0,0,incongruent,0,1263.81443735282,2330.48483577647
29,104,4,547,-0.5,0.5,0,3,NaN,0,3,759,1,0,759,0,0,0,0.2,-0.0730641876147107,-0.0730641876147107,750,0,0,neutral,0,1581.56992534348,1629.54791857808
29,104,4,548,0.5,-0.5,0.5,2,4,0,2,886,1,0,886,0,0,0,NaN,0.766341120834287,0.766341120834287,750,0,0,incongruent,0,1937.31301518029,3197.60778842175
29,104,4,549,0.5,-0.5,0.5,4,1,0,4,855,1,0,855,0,0,0,NaN,0.561446911685319,0.561446911685319,750,0,0,incongruent,0,2939.72684095658,2063.38398903805
29,104,4,550,0.5,-0.5,0.5,1,4,0,3,840,0,0,NaN,0,0,0,NaN,0.46230455241969,NaN,750,0,1,incongruent,0,1852.16523806955,2782.86540013494
29,104,4,551,-0.5,0.5,0.5,4,3,0,4,834,1,0,834,0,0,0,0,0.422647608713438,0.422647608713438,750,0,0,incongruent,0,3855.96418633767,2632.21436690585
29,104,4,553,0.5,-0.5,0,3,NaN,0,3,605,1,1,605,0,0,0,NaN,-1.09092574274184,-1.09092574274184,750,0,0,neutral,0,1450.0925675689,2022.91772965793
29,104,4,554,-0.5,0.5,-0.5,1,1,0,2,939,0,0,NaN,0,0,0,0,1.11664412357285,NaN,750,0,1,congruent,0,5312.37939227785,4941.23630054017
29,104,4,555,-0.5,0.5,0.5,4,2,0,4,587,1,1,587,1,0,0,0,-1.2098965738606,-1.2098965738606,750,0,0,incongruent,0.1,1927.67849978188,1578.89085370733
29,104,4,556,-0.5,-0.5,-0.5,1,1,0.2,3,767,0,0,NaN,0,0,0.2,0.4,-0.0201882626730416,NaN,750,0,1,congruent,0,1231.87880703245,1869.61311108768
29,104,4,557,-0.5,-0.5,-0.5,2,2,0.2,3,741,0,1,NaN,0,0,0.2,0.4,-0.192035018733466,NaN,750,0,1,congruent,0,1583.13828299584,696.010262705647
29,104,4,559,0.5,0.5,-0.5,1,1,0.2,2,973,0,0,NaN,0,0,0.6,NaN,1.34136680457494,NaN,750,0,1,congruent,0,3451.87014227062,2156.18288943259
29,104,4,561,-0.5,-0.5,0.5,4,1,0.2,4,817,1,0,817,0,0,0.4,0.2,0.310286268212391,0.310286268212391,750,0,0,incongruent,0,2161.61805858232,4054.89260339163
29,104,4,564,-0.5,-0.5,0,4,NaN,0.2,4,491,1,1,491,0,0,0,0,-1.84440767316063,-1.84440767316063,750,0,0,neutral,0,2150.76424077769,1517.48142414371
29,104,4,565,-0.5,0.5,-0.5,1,1,0.2,3,790,0,0,NaN,0,0,0,0.2,0.131830021534257,NaN,750,0,1,congruent,0,5384.1985227896,2739.47710986671
29,104,4,568,-0.5,0.5,0,2,NaN,0,3,872,0,0,NaN,0,0,0,0.2,0.673808252186366,NaN,750,0,1,neutral,0,2273.98070023585,578.928129876561
29,104,4,569,-0.5,-0.5,0.5,1,3,0,1,959,1,0,959,0,0,0,0,1.24883393592702,1.24883393592702,750,0,0,incongruent,0,745.275805902552,1913.67052860423
29,104,4,570,-0.5,0.5,-0.5,4,4,0,4,654,1,1,654,1,0,0,0,-0.767060702474119,-0.767060702474119,750,1,0,congruent,0.1,1396.74572115944,5663.39932249774
29,104,4,572,0.5,0.5,0.5,2,4,0.2,2,947,1,0,947,0,0,0.2,NaN,1.16952004851451,1.16952004851451,750,0,0,incongruent,0,2719.9531196261,4521.11801826169
29,104,4,573,0.5,-0.5,0.5,1,3,0.2,3,828,0,0,NaN,1,0,0.2,NaN,0.382990665007186,NaN,750,1,0,incongruent,1,698.02615024537,514.651386018826
29,104,4,574,-0.5,0.5,0,2,NaN,0.2,2,907,1,0,907,0,0,0.6,0.2,0.905140423806169,0.905140423806169,750,0,0,neutral,0,1071.77287953054,2276.18337007841
29,104,4,575,0.5,0.5,0.5,1,2,0.2,1,866,1,0,866,0,0,0.6,NaN,0.634151308480114,0.634151308480114,750,0,0,incongruent,0,2069.98751808671,2260.0985405847
29,104,4,576,-0.5,0.5,0,4,NaN,0.2,4,831,1,0,831,0,0,0.4,0.2,0.402819136860312,0.402819136860312,750,0,0,neutral,0,1280.65186118522,2335.10467269945
29,104,4,577,0.5,-0.5,-0.5,3,3,0.2,3,669,1,1,669,1,0,0.4,NaN,-0.667918343208489,-0.667918343208489,750,1,0,congruent,1,2835.33744059496,2666.59900049478
29,104,4,579,-0.5,-0.5,-0.5,3,3,0,3,687,1,1,687,0,0,0.4,0,-0.548947512089733,-0.548947512089733,750,1,0,congruent,0,845.173352220379,2996.56729920525
29,104,4,580,0.5,0.5,0.5,4,1,0,4,986,1,0,986,0,0,0.4,NaN,1.42729018260515,1.42729018260515,750,0,0,incongruent,0,6658.56553957077,2400.08173459032
29,104,4,581,0.5,0.5,0,1,NaN,0,1,982,1,0,982,0,0,0.4,NaN,1.40085222013432,1.40085222013432,750,0,0,neutral,0,4033.64476136103,1876.49367785773
29,104,4,582,0.5,0.5,0.5,4,2,0,4,909,1,0,909,0,0,0.4,NaN,0.918359405041586,0.918359405041586,750,0,0,incongruent,0,3942.91244138477,1654.8272277404
29,104,4,585,0.5,0.5,0,4,NaN,0,4,675,1,1,675,1,0,0,NaN,-0.628261399502237,-0.628261399502237,750,0,0,neutral,1,1646.33308772862,1486.79567445694
29,104,4,586,-0.5,-0.5,-0.5,3,3,0.2,3,693,1,1,693,1,0,0.4,0,-0.509290568383481,-0.509290568383481,750,1,0,congruent,0.1,2339.28097839296,1010.66202706138
29,104,4,587,0.5,0.5,0,1,NaN,0.2,1,852,1,0,852,0,0,0.6,NaN,0.541618439832193,0.541618439832193,750,0,0,neutral,0,1286.06453901727,3372.16262546543
29,104,4,588,0.5,0.5,0.5,4,2,0.2,4,697,1,1,697,1,0,0.6,NaN,-0.482852605912647,-0.482852605912647,750,0,0,incongruent,1,4619.03406077795,1840.4094559895
29,104,4,590,0.5,0.5,-0.5,3,3,0.4,3,691,1,1,691,1,0,1,NaN,-0.522509549618899,-0.522509549618899,750,1,0,congruent,1,2187.11522460267,1371.69114650736
29,104,4,591,-0.5,0.5,0,4,NaN,0.6,4,569,1,1,569,1,0,1,0.2,-1.32886740497935,-1.32886740497935,750,0,0,neutral,0.1,5419.54896792926,1587.39439746891
29,104,4,593,-0.5,0.5,-0.5,2,2,0.6,2,859,1,0,859,0,0,1,0.2,0.587884874156154,0.587884874156154,750,1,0,congruent,0,3258.56169498841,4205.0276800851
29,104,4,594,0.5,-0.5,-0.5,4,4,0.4,4,546,1,1,546,1,0,0.6,NaN,-1.48088568918665,-1.48088568918665,750,1,0,congruent,1,2490.72676292154,1608.32830603648
29,104,4,595,-0.5,0.5,0,2,NaN,0.4,2,905,1,0,905,0,0,1,0.2,0.891921442570752,0.891921442570752,750,0,0,neutral,0,4207.39112320984,4936.71236654815
29,104,4,596,-0.5,0.5,-0.5,1,1,0.4,3,897,0,0,NaN,0,0,0.6,0.2,0.839045517629082,NaN,750,0,1,congruent,0,717.121433903495,2723.02327380463
29,104,4,597,-0.5,0.5,0,2,NaN,0.2,3,774,0,0,NaN,0,0,0.4,0.2,0.0260781716509189,NaN,750,0,1,neutral,0,8003.52987318231,1503.92477051269
29,104,4,599,-0.5,0.5,0,1,NaN,0,1,930,1,0,930,0,0,0.4,0,1.05715870801347,1.05715870801347,750,0,0,neutral,0,10415.2375113987,4839.09908578603
29,104,4,600,-0.5,0.5,0.5,4,1,0,4,729,1,1,729,1,0,0,0,-0.27134890614597,-0.27134890614597,750,0,0,incongruent,0.1,3545.99726615778,855.552758075574
