subid,vers,block,trial,rewlvl,efflvl,congruency,targetresp,distractorresp,rollingefflvl,resp,rt,acc,fast,accrt,isrewarded,ismiss,runavgrrgen,runavgrrcond,zrt,acczrt,rtthreshold,isdisterror,isranderror,congruence,feedback,fcz_resp_theta,fcz_resp_theta_baseline
30,104,1,1,0.5,0.5,0,1,NaN,0.3,1,719,1,1,719,1,0,0,NaN,0.766008236535282,0.766008236535282,750,0,0,neutral,1,274.530047320559,5760.43590033758
30,104,1,2,-0.5,0.5,-0.5,4,4,0.5,4,569,1,1,569,1,0,0.4,0,-0.391093943767535,-0.391093943767535,750,1,0,congruent,0.1,2418.0754445233,3842.94114775095
30,104,1,3,0.5,-0.5,0.5,2,3,0.7,2,515,1,1,515,1,0,0.6,NaN,-0.807650728676549,-0.807650728676549,750,0,0,incongruent,1,907.904697513921,2376.36311260535
30,104,1,4,-0.5,0.5,0.5,4,1,0.7,4,582,1,1,582,1,0,1,0.2,-0.290811754807958,-0.290811754807958,750,0,0,incongruent,0.1,2668.80584106901,1389.25447544678
30,104,1,5,0.5,-0.5,0,1,NaN,0.9,1,618,1,1,618,1,0,1.2,NaN,-0.0131072315352816,-0.0131072315352816,750,0,0,neutral,1,1738.51562812202,3651.55999733167
30,104,1,6,-0.5,0.5,0.5,2,1,0.9,2,601,1,1,601,1,0,1.6,0.4,-0.144245478636268,-0.144245478636268,750,0,0,incongruent,0.1,6580.72269811104,1265.89449934274
30,104,1,7,0.5,-0.5,0,1,NaN,0.9,1,612,1,1,612,1,0,1.4,NaN,-0.0593913187473943,-0.0593913187473943,750,0,0,neutral,1,1081.4847601523,2089.91001344445
30,104,1,8,0.5,0.5,-0.5,2,2,0.9,2,893,1,0,893,0,0,1.6,NaN,2.10824676568655,2.10824676568655,750,1,0,congruent,0,3470.10218568221,1209.61680475242
30,104,1,9,0.5,-0.5,0,1,NaN,0.8,1,647,1,1,647,1,0,1.2,NaN,0.21059918998993,0.21059918998993,750,0,0,neutral,1,942.4706349136,1428.10505160261
30,104,1,10,-0.5,0.5,0.5,2,4,0.8,2,572,1,1,572,1,0,1.4,0.6,-0.367951900161479,-0.367951900161479,750,0,0,incongruent,0.1,2075.90170591805,2088.5476690273
30,104,1,11,-0.5,0.5,-0.5,1,1,0.8,1,569,1,1,569,1,0,1.2,0.8,-0.391093943767535,-0.391093943767535,750,1,0,congruent,0.1,2326.21890259416,1478.34849750587
30,104,1,12,-0.5,-0.5,0,2,NaN,0.8,2,604,1,1,604,1,0,1.2,0,-0.121103435030211,-0.121103435030211,750,0,0,neutral,0.1,3224.37283198508,624.200529007055
30,104,1,13,0.5,-0.5,0.5,1,4,0.8,1,766,1,0,766,0,0,1,NaN,1.12856691969683,1.12856691969683,750,0,0,incongruent,0,1125.55005652155,6702.55434738101
30,104,1,14,0.5,-0.5,0,4,NaN,0.8,4,785,1,0,785,1,0,1,NaN,1.27513319586852,1.27513319586852,750,0,0,neutral,1,2278.73841674565,1583.07330714593
30,104,1,15,0.5,0.5,-0.5,2,2,0.8,2,879,1,0,879,0,0,1,NaN,2.00025056219162,2.00025056219162,750,1,0,congruent,0,1236.67814140048,3363.70816026655
30,104,1,16,0.5,-0.5,0.5,4,3,0.6,4,468,1,1,468,1,0,0.8,NaN,-1.1702094118381,-1.1702094118381,750,0,0,incongruent,1,1583.54191858411,2308.28515367791
30,104,1,17,-0.5,0.5,0.5,1,4,0.6,1,754,1,0,754,0,0,1,1,1.03599874527261,1.03599874527261,750,0,0,incongruent,0,765.048933914756,1450.94532872436
30,104,1,18,0.5,-0.5,0.5,2,1,0.4,2,424,1,1,424,1,0,0.8,NaN,-1.50962605139359,-1.50962605139359,750,0,0,incongruent,1,1558.80161552252,1623.01285760362
30,104,1,19,0.5,0.5,-0.5,4,4,0.4,4,489,1,1,489,1,0,1.2,NaN,-1.0082151065957,-1.0082151065957,750,1,0,congruent,1,876.085482115905,4720.57210296467
30,104,1,20,-0.5,-0.5,0,2,NaN,0.6,2,787,1,0,787,1,0,1.2,0.2,1.29056122493923,1.29056122493923,750,0,0,neutral,0.1,5931.94979617551,7540.82597758336
30,104,1,21,-0.5,0.5,-0.5,4,4,0.6,3,640,0,1,NaN,0,0,1.4,0.8,0.156601088242465,NaN,750,0,1,congruent,0,11007.1543835826,1407.02796424608
30,104,1,22,-0.5,0.5,0.5,2,3,0.4,2,874,1,0,874,0,0,1,0.6,1.96168048951486,1.96168048951486,750,0,0,incongruent,0,3628.20808227473,1158.48338053922
30,104,1,23,-0.5,0.5,0.5,3,4,0.2,3,648,1,1,648,1,0,1,0.4,0.218313204525282,0.218313204525282,750,0,0,incongruent,0.1,3034.41049722192,598.525501405222
30,104,1,24,-0.5,0.5,0.5,4,2,0.4,4,735,1,1,735,1,0,0.8,0.4,0.889432469100915,0.889432469100915,750,0,0,incongruent,0.1,1332.12861781152,1138.86462767973
30,104,1,25,0.5,0.5,0.5,3,1,0.6,3,683,1,1,683,1,0,0.6,NaN,0.488303713262606,0.488303713262606,750,0,0,incongruent,1,3336.65322033137,8195.45495693584
30,104,1,26,-0.5,0.5,0.5,4,3,0.6,4,741,1,1,741,1,0,0.8,0.4,0.935716556313028,0.935716556313028,750,0,0,incongruent,0.1,2895.17683292489,2293.91977610084
30,104,1,27,0.5,0.5,-0.5,1,1,0.8,1,713,1,1,713,1,0,1,NaN,0.719724149323169,0.719724149323169,750,1,0,congruent,1,1212.13695318764,2022.56154699693
30,104,1,28,-0.5,-0.5,0,2,NaN,1,2,679,1,1,679,1,0,1.4,0.4,0.457447655121197,0.457447655121197,750,0,0,neutral,0.1,215.438821099819,3789.56839675994
30,104,1,29,-0.5,0.5,0.5,4,3,1,4,689,1,1,689,1,0,1.4,0.6,0.534587800474718,0.534587800474718,750,0,0,incongruent,0.1,1127.65646129104,1750.01681202638
30,104,1,30,0.5,0.5,0.5,3,4,1,3,506,1,1,506,1,0,1.4,NaN,-0.877076859494718,-0.877076859494718,750,0,0,incongruent,1,4641.92207660675,2859.01162265128
30,104,1,31,-0.5,-0.5,0.5,2,1,1,2,884,1,0,884,1,0,1.4,0.6,2.03882063486838,2.03882063486838,750,0,0,incongruent,0.1,1773.14034327745,2888.09040838022
30,104,1,32,-0.5,0.5,0.5,1,3,1,1,821,1,0,821,0,0,1.4,0.8,1.5528377191412,1.5528377191412,750,0,0,incongruent,0,2326.68010806909,4298.65722761326
30,104,1,33,-0.5,-0.5,0,4,NaN,0.8,4,714,1,1,714,1,0,1,0.8,0.727438163858521,0.727438163858521,750,0,0,neutral,0.1,913.213352937767,4704.19428891115
30,104,1,34,0.5,-0.5,-0.5,2,2,0.8,2,990,1,0,990,1,0,1,NaN,2.8565061756157,2.8565061756157,750,1,0,congruent,1,583.882549194737,941.021328675116
30,104,1,35,0.5,0.5,0,1,NaN,0.8,1,618,1,1,618,1,0,1.2,NaN,-0.0131072315352816,-0.0131072315352816,750,0,0,neutral,1,1927.75326261819,3182.70767814249
30,104,1,36,0.5,0.5,-0.5,2,2,0.8,2,680,1,1,680,1,0,1.2,NaN,0.465161669656549,0.465161669656549,750,1,0,congruent,1,2228.94261737503,3023.3114643306
30,104,1,39,0.5,0.5,0,3,NaN,0.6,3,548,1,1,548,1,0,1.6,NaN,-0.553088249009929,-0.553088249009929,750,0,0,neutral,1,1929.71082689327,1186.77868319105
30,104,1,40,-0.5,-0.5,0.5,1,4,0.8,1,733,1,1,733,1,0,1.6,1,0.874004440030211,0.874004440030211,750,0,0,incongruent,0.1,3131.52270545774,1957.68689792061
30,104,1,41,0.5,0.5,-0.5,3,3,0.8,3,691,1,1,691,1,0,1.4,NaN,0.550015829545422,0.550015829545422,750,1,0,congruent,1,1028.27130750283,2115.50056452356
30,104,1,42,-0.5,0.5,-0.5,4,4,0.8,4,594,1,1,594,1,0,1.4,0.8,-0.198243580383732,-0.198243580383732,750,1,0,congruent,0.1,186.881249813367,4354.0322048092
30,104,1,43,0.5,0.5,0,3,NaN,0.8,3,654,1,1,654,1,0,1.2,NaN,0.264597291737394,0.264597291737394,750,0,0,neutral,1,3471.86393537259,1186.27544726443
30,104,1,44,0.5,0.5,-0.5,2,2,0.8,2,875,1,0,875,0,0,1.6,NaN,1.96939450405021,1.96939450405021,750,1,0,congruent,0,4523.33635397257,4847.06838541723
30,104,1,45,-0.5,0.5,-0.5,1,1,0.8,1,670,1,1,670,1,0,1.2,0.8,0.388021524303028,0.388021524303028,750,1,0,congruent,0.1,457.270376890017,1698.38349238135
30,104,1,46,-0.5,-0.5,0,3,NaN,0.8,3,559,1,1,559,1,0,1.2,1,-0.468234089121056,-0.468234089121056,750,0,0,neutral,0.1,2991.79627867052,1324.89982750403
30,104,1,47,0.5,0.5,-0.5,2,2,0.8,2,835,1,0,835,0,0,1,NaN,1.66083392263613,1.66083392263613,750,1,0,congruent,0,1061.71195418493,588.611473015109
30,104,1,48,-0.5,0.5,-0.5,1,1,0.6,1,581,1,1,581,1,0,0.8,0.8,-0.29852576934331,-0.29852576934331,750,1,0,congruent,0.1,2430.38699936609,2393.75975207793
30,104,1,49,-0.5,-0.5,0.5,4,3,0.6,4,951,1,0,951,0,0,0.6,1,2.55565960873697,2.55565960873697,750,0,0,incongruent,0,3875.42113876985,2191.56267581957
30,104,1,50,0.5,-0.5,-0.5,2,2,0.6,1,924,0,0,NaN,1,0,0.6,NaN,2.34738121628246,NaN,750,0,1,congruent,1,1611.82949525174,2128.29482014436
30,104,1,51,0.5,0.5,0,1,NaN,0.6,1,884,1,0,884,0,0,0.8,NaN,2.03882063486838,2.03882063486838,750,0,0,neutral,0,2671.49369882949,4656.89193981427
30,104,1,52,-0.5,0.5,0.5,4,2,0.4,4,668,1,1,668,1,0,0.6,0.8,0.372593495232324,0.372593495232324,750,0,0,incongruent,0.1,1738.6855858179,1398.59563280884
30,104,1,54,0.5,-0.5,0.5,2,1,0.4,2,842,1,0,842,0,0,0.6,NaN,1.71483202438359,1.71483202438359,750,0,0,incongruent,0,1886.67473685006,1973.50899448726
30,104,1,55,-0.5,0.5,-0.5,3,3,0.4,3,490,1,1,490,1,0,0.6,0.8,-1.00050109206035,-1.00050109206035,750,1,0,congruent,0.1,3799.53003801258,2036.87389606089
30,104,1,57,-0.5,0.5,0.5,2,1,0.4,2,650,1,1,650,1,0,0.4,0.8,0.233741233595986,0.233741233595986,750,0,0,incongruent,0.1,2576.86440241539,1480.26340894861
30,104,1,58,-0.5,-0.5,0.5,4,3,0.6,4,701,1,1,701,0,0,0.4,0.8,0.627155974898944,0.627155974898944,750,0,0,incongruent,0,2813.0940395465,1966.63914266224
30,104,1,59,-0.5,-0.5,-0.5,2,2,0.6,2,704,1,1,704,1,0,0.4,0.6,0.650298018505,0.650298018505,750,1,0,congruent,0.1,1463.7267258552,2626.39731872756
30,104,1,60,-0.5,-0.5,-0.5,4,4,0.6,4,553,1,1,553,1,0,0.6,0.6,-0.514518176333169,-0.514518176333169,750,1,0,congruent,0.1,852.417477645486,283.934938214643
30,104,1,61,-0.5,-0.5,0.5,1,2,0.6,1,863,1,0,863,1,0,0.6,0.6,1.87682632962599,1.87682632962599,750,0,0,incongruent,0.1,2668.3811021377,1396.21174370965
30,104,1,62,0.5,0.5,0.5,4,3,0.6,4,677,1,1,677,1,0,0.8,NaN,0.442019626050493,0.442019626050493,750,0,0,incongruent,1,2203.48167528153,1834.36750648672
30,104,1,63,0.5,0.5,0.5,3,4,0.6,3,525,1,1,525,1,0,1,NaN,-0.730510583323028,-0.730510583323028,750,0,0,incongruent,1,371.767309624517,2130.89803131684
30,104,1,64,0.5,-0.5,-0.5,2,2,0.8,2,423,1,1,423,1,0,1.4,NaN,-1.51734006592894,-1.51734006592894,750,1,0,congruent,1,3190.58631883501,1807.52810834069
30,104,1,65,-0.5,0.5,0,3,NaN,0.8,3,706,1,1,706,1,0,1.6,0.8,0.665726047575704,0.665726047575704,750,0,0,neutral,0.1,2115.92715369697,1495.54170678268
30,104,1,66,0.5,-0.5,-0.5,4,4,0.8,4,604,1,1,604,1,0,1.6,NaN,-0.121103435030211,-0.121103435030211,750,1,0,congruent,1,2613.69481351593,4240.27343362755
30,104,1,67,0.5,-0.5,-0.5,2,2,0.8,2,663,1,1,663,1,0,1.8,NaN,0.334023422555563,0.334023422555563,750,1,0,congruent,1,2795.16337312441,3743.4441210331
30,104,1,68,-0.5,-0.5,0.5,1,4,0.8,1,998,1,0,998,1,0,1.8,0.6,2.91821829189852,2.91821829189852,750,0,0,incongruent,0.1,2826.94285270201,1498.60716941125
30,104,1,69,0.5,0.5,0,4,NaN,0.8,4,956,1,0,956,0,0,1.6,NaN,2.59422968141373,2.59422968141373,750,0,0,neutral,0,1700.2701212125,1368.83804276736
30,104,1,70,0.5,-0.5,-0.5,1,1,0.8,1,658,1,1,658,1,0,1.2,NaN,0.295453349878803,0.295453349878803,750,1,0,congruent,1,4208.98136241759,1776.74450849484
30,104,1,71,0.5,0.5,-0.5,3,3,0.8,3,792,1,0,792,0,0,1.4,NaN,1.32913129761599,1.32913129761599,750,1,0,congruent,0,2624.23907358556,3023.38276513298
30,104,1,72,-0.5,-0.5,0.5,2,4,0.6,2,862,1,0,862,1,0,1,0.8,1.86911231509063,1.86911231509063,750,0,0,incongruent,0.1,1358.05139168116,2765.41732007234
30,104,1,73,-0.5,-0.5,0.5,3,2,0.6,3,689,1,1,689,1,0,0.8,1,0.534587800474718,0.534587800474718,750,0,0,incongruent,0.1,2058.03991921339,5936.06390298691
30,104,1,74,0.5,0.5,0,4,NaN,0.6,4,817,1,0,817,0,0,0.8,NaN,1.52198166099979,1.52198166099979,750,0,0,neutral,0,3312.58567754121,4260.51307627602
30,104,1,75,-0.5,0.5,0.5,1,4,0.4,1,471,1,1,471,1,0,0.8,0.8,-1.14706736823204,-1.14706736823204,750,0,0,incongruent,0.1,968.915862926366,1217.52334723937
30,104,1,76,0.5,-0.5,0,3,NaN,0.4,3,790,1,0,790,1,0,0.6,NaN,1.31370326854528,1.31370326854528,750,0,0,neutral,1,1852.0944580161,969.142789870153
30,104,1,78,0.5,-0.5,0,3,NaN,0.4,3,554,1,1,554,0,0,0.8,NaN,-0.506804161797817,-0.506804161797817,750,0,0,neutral,0,4504.2685696203,2004.46820593307
30,104,1,79,-0.5,0.5,-0.5,2,2,0.4,2,379,1,1,379,1,0,0.6,0.8,-1.85675670548444,-1.85675670548444,750,1,0,congruent,0.1,1354.29888321069,854.38076095459
30,104,1,80,-0.5,-0.5,0.5,3,4,0.4,3,440,1,1,440,1,0,0.8,1,-1.38620181882796,-1.38620181882796,750,0,0,incongruent,0.1,2750.87599352823,3700.48606829136
30,104,1,81,-0.5,-0.5,0,4,NaN,0.4,4,524,1,1,524,0,0,0.8,1,-0.73822459785838,-0.73822459785838,750,0,0,neutral,0,1914.66045833333,351.162666364792
30,104,1,82,-0.5,0.5,0.5,2,1,0.4,2,555,1,1,555,1,0,0.4,1,-0.499090147262465,-0.499090147262465,750,0,0,incongruent,0.1,648.051906733695,824.610338133188
30,104,1,83,-0.5,0.5,0.5,1,3,0.6,1,677,1,1,677,1,0,0.6,1,0.442019626050493,0.442019626050493,750,0,0,incongruent,0.1,821.283602361332,3176.84298021382
30,104,1,84,0.5,0.5,-0.5,4,4,0.8,4,451,1,1,451,1,0,0.8,NaN,-1.30134765893908,-1.30134765893908,750,1,0,congruent,1,2133.8172550503,1715.71779492458
30,104,1,85,0.5,-0.5,0,3,NaN,1,3,532,1,1,532,1,0,1,NaN,-0.676512481575563,-0.676512481575563,750,0,0,neutral,1,2895.95966003941,1295.3696037189
30,104,1,86,0.5,-0.5,-0.5,4,4,1,4,592,1,1,592,1,0,1.2,NaN,-0.213671609454437,-0.213671609454437,750,1,0,congruent,1,2608.78030409252,2676.5511476742
30,104,1,87,-0.5,-0.5,-0.5,3,3,1,3,610,1,1,610,1,0,1.6,0.8,-0.0748193478180985,-0.0748193478180985,750,1,0,congruent,0.1,2285.98545218373,643.312261103962
30,104,1,88,0.5,-0.5,-0.5,4,4,1,4,834,1,0,834,1,0,1.6,NaN,1.65311990810077,1.65311990810077,750,1,0,congruent,1,1882.20076827276,972.970539316841
30,104,1,89,0.5,-0.5,0.5,3,1,1,3,611,1,1,611,1,0,1.8,NaN,-0.0671053332827464,-0.0671053332827464,750,0,0,incongruent,1,3642.40597848579,1995.93996118879
30,104,1,90,-0.5,0.5,0,4,NaN,1,4,614,1,1,614,1,0,1.8,1,-0.0439632896766901,-0.0439632896766901,750,0,0,neutral,0.1,1578.01242714836,1304.88778079057
30,104,1,91,-0.5,-0.5,-0.5,1,1,1,1,694,1,1,694,1,0,1.6,0.8,0.573157873151479,0.573157873151479,750,1,0,congruent,0.1,1158.02369569748,2076.50596358561
30,104,1,92,0.5,-0.5,0.5,3,2,1,3,934,1,0,934,1,0,1.4,NaN,2.42452136163599,2.42452136163599,750,0,0,incongruent,1,5356.68795531314,2162.94335108476
30,104,1,93,-0.5,-0.5,0.5,2,1,1,2,882,1,0,882,1,0,1.6,0.8,2.02339260579768,2.02339260579768,750,0,0,incongruent,0.1,2703.94097823582,2972.10237301826
30,104,1,94,-0.5,-0.5,0,3,NaN,1,3,605,1,1,605,1,0,1.4,0.8,-0.113389420494859,-0.113389420494859,750,0,0,neutral,0.1,3552.86783328172,1498.7652326122
30,104,1,95,0.5,0.5,-0.5,1,1,1,1,687,1,1,687,1,0,1.2,NaN,0.519159771404014,0.519159771404014,750,1,0,congruent,1,929.962653655761,574.919366977184
30,104,1,96,0.5,0.5,0.5,2,4,1,2,537,1,1,537,1,0,1.4,NaN,-0.637942408898803,-0.637942408898803,750,0,0,incongruent,1,7967.12080040293,2157.17345054726
30,104,1,97,0.5,-0.5,-0.5,1,1,1,1,777,1,0,777,1,0,1.6,NaN,1.2134210795857,1.2134210795857,750,1,0,congruent,1,4915.80606610076,855.577320992513
30,104,1,98,0.5,0.5,0.5,4,3,1,4,754,1,0,754,0,0,1.6,NaN,1.03599874527261,1.03599874527261,750,0,0,incongruent,0,1086.53286141143,1864.57447460949
30,104,1,99,0.5,-0.5,0.5,1,2,0.8,1,691,1,1,691,1,0,1.4,NaN,0.550015829545422,0.550015829545422,750,0,0,incongruent,1,1148.69019535815,2645.25063214072
30,104,1,100,-0.5,-0.5,0.5,2,1,0.8,2,539,1,1,539,1,0,1.6,0.8,-0.622514379828098,-0.622514379828098,750,0,0,incongruent,0.1,908.845735579942,1018.29827108577
30,104,1,101,0.5,0.5,0,1,NaN,0.8,1,646,1,1,646,1,0,1.4,NaN,0.202885175454578,0.202885175454578,750,0,0,neutral,1,6351.05186379919,1662.87579230907
30,104,1,102,0.5,-0.5,-0.5,3,3,0.8,3,769,1,0,769,1,0,1.4,NaN,1.15170896330289,1.15170896330289,750,1,0,congruent,1,599.604827385879,3430.67534349557
30,104,1,103,-0.5,-0.5,0.5,2,1,0.8,2,692,1,1,692,0,0,1.4,1,0.557729844080775,0.557729844080775,750,0,0,incongruent,0,2331.1690040435,1414.38668463719
30,104,1,104,-0.5,0.5,0.5,4,2,0.8,4,671,1,1,671,1,0,1.4,1,0.39573553883838,0.39573553883838,750,0,0,incongruent,0.1,13436.7666214066,3524.96607119231
30,104,1,105,-0.5,-0.5,-0.5,3,3,0.8,3,615,1,1,615,1,0,1.2,0.8,-0.036249275141338,-0.036249275141338,750,1,0,congruent,0.1,187.955611835505,1461.19150824428
30,104,1,106,-0.5,-0.5,0,4,NaN,0.8,4,565,1,1,565,1,0,1.2,0.8,-0.421950001908944,-0.421950001908944,750,0,0,neutral,0.1,1174.37130714634,1833.329744427
30,104,1,107,-0.5,-0.5,-0.5,1,1,0.8,1,698,1,1,698,1,0,1,0.8,0.604013931292887,0.604013931292887,750,1,0,congruent,0.1,1903.34568510683,2964.66235328878
30,104,1,108,0.5,-0.5,0,2,NaN,0.8,2,764,1,0,764,1,0,0.8,NaN,1.11313889062613,1.11313889062613,750,0,0,neutral,1,1605.14369148608,1161.2937364173
30,104,1,109,-0.5,-0.5,-0.5,1,1,0.8,1,739,1,1,739,0,0,1.2,0.8,0.920288527242324,0.920288527242324,750,1,0,congruent,0,762.656246253227,2754.56300181633
30,104,1,110,0.5,0.5,0.5,3,2,0.8,3,402,1,1,402,1,0,1,NaN,-1.67933437117134,-1.67933437117134,750,0,0,incongruent,1,2559.72235302751,1439.80666459924
30,104,1,111,-0.5,0.5,0.5,2,4,0.8,2,925,1,0,925,0,0,1.2,1,2.35509523081782,2.35509523081782,750,0,0,incongruent,0,578.325596069105,2559.2007014274
30,104,1,112,0.5,-0.5,0.5,3,1,0.6,3,435,1,1,435,1,0,1,NaN,-1.42477189150472,-1.42477189150472,750,0,0,incongruent,1,1166.8826181973,635.721812287366
30,104,1,113,0.5,-0.5,0.5,4,3,0.6,4,651,1,1,651,1,0,1.2,NaN,0.241455248131338,0.241455248131338,750,0,0,incongruent,1,1224.59293050453,1879.4392479506
30,104,1,115,-0.5,-0.5,0,3,NaN,0.6,3,585,1,1,585,0,0,1.2,0.6,-0.267669711201901,-0.267669711201901,750,0,0,neutral,0,2526.36070468171,473.350855997545
30,104,1,116,0.5,-0.5,0.5,2,3,0.6,2,615,1,1,615,0,0,0.8,NaN,-0.036249275141338,-0.036249275141338,750,0,0,incongruent,0,1449.67604906816,942.957351953922
30,104,1,117,0.5,-0.5,0,1,NaN,0.6,1,640,1,1,640,0,0,0.8,NaN,0.156601088242465,0.156601088242465,750,0,0,neutral,0,3949.79253677536,2057.04746443117
30,104,1,118,-0.5,0.5,-0.5,3,3,0.6,3,729,1,1,729,1,0,0.4,0.6,0.843148381888803,0.843148381888803,750,1,0,congruent,0.1,2353.68885246727,1123.78432813903
30,104,1,119,-0.5,-0.5,-0.5,2,2,0.6,2,557,1,1,557,0,0,0.2,0.6,-0.48366211819176,-0.48366211819176,750,1,0,congruent,0,498.061626794903,705.120475005413
30,104,1,120,0.5,0.5,0,3,NaN,0.6,3,503,1,1,503,1,0,0.2,NaN,-0.900218903100774,-0.900218903100774,750,0,0,neutral,1,1230.67595669823,1642.05734826367
30,104,1,121,-0.5,0.5,-0.5,2,2,0.6,2,758,1,0,758,0,0,0.6,0.6,1.06685480341401,1.06685480341401,750,1,0,congruent,0,2647.31203465543,2833.90465377176
30,104,1,122,-0.5,0.5,-0.5,4,4,0.4,4,630,1,1,630,1,0,0.6,0.4,0.0794609428889437,0.0794609428889437,750,1,0,congruent,0.1,1812.27553269068,1677.28067726263
30,104,1,124,-0.5,-0.5,0,1,NaN,0.6,1,486,1,1,486,0,0,0.8,0.4,-1.03135715020176,-1.03135715020176,750,0,0,neutral,0,841.142984917067,1835.27532325167
30,104,1,125,0.5,0.5,0.5,3,4,0.6,3,727,1,1,727,1,0,0.8,NaN,0.827720352818099,0.827720352818099,750,0,0,incongruent,1,2314.01594440179,3690.0812306193
30,104,1,126,0.5,0.5,-0.5,1,1,0.8,1,583,1,1,583,1,0,0.8,NaN,-0.283097740272606,-0.283097740272606,750,1,0,congruent,1,3144.9951375855,2754.07981378291
30,104,1,127,-0.5,-0.5,0.5,3,2,0.8,3,558,1,1,558,1,0,1.2,0.2,-0.475948103656408,-0.475948103656408,750,0,0,incongruent,0.1,1287.74539298967,3125.9797021484
30,104,1,128,0.5,-0.5,-0.5,1,1,0.8,1,928,1,0,928,1,0,1.2,NaN,2.37823727442387,2.37823727442387,750,1,0,congruent,1,2101.30192372772,4958.05388877778
30,104,1,129,0.5,-0.5,0,4,NaN,0.8,4,608,1,1,608,1,0,1.4,NaN,-0.0902473768888027,-0.0902473768888027,750,0,0,neutral,1,3094.24440706676,2583.84350469147
30,104,1,130,-0.5,-0.5,-0.5,1,1,0.8,1,965,1,0,965,1,0,1.8,0.4,2.6636558122319,2.6636558122319,750,1,0,congruent,0.1,1424.76376698805,1316.74574978436
30,104,1,132,-0.5,-0.5,-0.5,2,2,0.6,2,760,1,0,760,0,0,1.2,0.6,1.08228283248472,1.08228283248472,750,1,0,congruent,0,716.828066759959,3813.47138814738
30,104,1,133,-0.5,0.5,-0.5,1,1,0.6,1,876,1,0,876,0,0,1,0.4,1.97710851858556,1.97710851858556,750,1,0,congruent,0,3607.62616514119,1714.18695413286
30,104,1,134,0.5,0.5,0,4,NaN,0.6,4,624,1,1,624,1,0,0.6,NaN,0.033176855676831,0.033176855676831,750,0,0,neutral,1,3247.49289331666,1488.91383190476
30,104,1,135,0.5,-0.5,-0.5,2,2,0.6,2,828,1,0,828,0,0,0.6,NaN,1.60683582088866,1.60683582088866,750,1,0,congruent,0,1524.42947361563,1287.46618852984
30,104,1,136,0.5,-0.5,-0.5,1,1,0.6,1,616,1,1,616,1,0,0.4,NaN,-0.0285352606059858,-0.0285352606059858,750,1,0,congruent,1,1268.48909769218,1859.29483991402
30,104,1,137,-0.5,0.5,0.5,4,3,0.6,4,560,1,1,560,1,0,0.8,0.4,-0.460520074585704,-0.460520074585704,750,0,0,incongruent,0.1,1842.46326096284,1467.86674348319
30,104,1,138,0.5,-0.5,0,1,NaN,0.6,1,726,1,1,726,0,0,1,NaN,0.820006338282746,0.820006338282746,750,0,0,neutral,0,1984.34816838893,958.603124889506
30,104,1,140,0.5,-0.5,-0.5,3,3,0.4,3,561,1,1,561,0,0,0.6,NaN,-0.452806060050352,-0.452806060050352,750,1,0,congruent,0,1170.14706006728,3011.84840532538
30,104,1,141,-0.5,-0.5,-0.5,2,2,0.4,2,403,1,1,403,0,0,0.6,0.6,-1.67162035663599,-1.67162035663599,750,1,0,congruent,0,4702.42963238588,3117.91712186907
30,104,1,142,0.5,0.5,0,1,NaN,0.4,1,428,1,1,428,1,0,0.2,NaN,-1.47876999325218,-1.47876999325218,750,0,0,neutral,1,3404.16807107155,608.559763271474
30,104,1,143,-0.5,-0.5,0.5,3,4,0.6,3,785,1,0,785,0,0,0.4,0.4,1.27513319586852,1.27513319586852,750,0,0,incongruent,0,6149.11229749859,3140.6414288648
30,104,1,144,0.5,0.5,-0.5,1,1,0.6,1,628,1,1,628,1,0,0.4,NaN,0.0640329138182395,0.0640329138182395,750,1,0,congruent,1,3752.01161093136,7684.5447976892
30,104,1,145,-0.5,-0.5,0.5,4,2,0.8,4,817,1,0,817,1,0,0.8,0.4,1.52198166099979,1.52198166099979,750,0,0,incongruent,0.1,2121.47092415696,5197.56274982675
30,104,1,146,-0.5,0.5,-0.5,1,1,0.8,1,689,1,1,689,1,0,1,0.4,0.534587800474718,0.534587800474718,750,1,0,congruent,0.1,2532.19422367471,3479.59414871658
30,104,1,147,-0.5,0.5,-0.5,3,3,0.8,3,901,1,0,901,0,0,1.2,0.4,2.16995888196937,2.16995888196937,750,1,0,congruent,0,2170.82521391356,8090.96952052212
30,104,1,148,-0.5,-0.5,0,2,NaN,0.6,2,664,1,1,664,1,0,0.8,0.4,0.341737437090916,0.341737437090916,750,0,0,neutral,0.1,1309.27406948956,560.225552269382
30,104,1,149,0.5,-0.5,-0.5,4,4,0.6,4,424,1,1,424,1,0,1,NaN,-1.50962605139359,-1.50962605139359,750,1,0,congruent,1,3365.92425570911,4349.24687195973
30,104,1,150,0.5,-0.5,0.5,2,3,0.6,2,699,1,1,699,0,0,1,NaN,0.611727945828239,0.611727945828239,750,0,0,incongruent,0,1175.84210572596,1427.85972797956
30,104,2,151,-0.5,-0.5,-0.5,4,4,0.6,4,767,1,0,767,1,0,0.8,0.4,1.13628093423218,1.13628093423218,750,1,0,congruent,0.1,1284.84261176302,3692.43787918142
30,104,2,152,0.5,-0.5,0,1,NaN,0.6,1,560,1,1,560,0,0,0.8,NaN,-0.460520074585704,-0.460520074585704,750,0,0,neutral,0,1463.50989187678,1886.68122963635
30,104,2,153,0.5,0.5,-0.5,3,3,0.6,3,428,1,1,428,1,0,0.8,NaN,-1.47876999325218,-1.47876999325218,750,1,0,congruent,1,1787.31137311383,1766.52347660487
30,104,2,154,-0.5,-0.5,0,1,NaN,0.8,1,511,1,1,511,0,0,1,0.6,-0.838506786817958,-0.838506786817958,750,0,0,neutral,0,1217.81012492133,3972.72117372361
30,104,2,155,-0.5,0.5,-0.5,2,2,0.8,2,369,1,1,369,1,0,0.6,0.4,-1.93389685083796,-1.93389685083796,750,1,0,congruent,0.1,1699.11525432956,1279.72840608798
30,104,2,156,0.5,0.5,-0.5,4,4,0.8,4,423,1,1,423,1,0,0.8,NaN,-1.51734006592894,-1.51734006592894,750,1,0,congruent,1,2384.60192832975,3326.63577254246
30,104,2,157,0.5,-0.5,-0.5,3,3,0.8,3,428,1,1,428,1,0,1,NaN,-1.47876999325218,-1.47876999325218,750,1,0,congruent,1,3130.08701416393,677.171154465716
30,104,2,158,-0.5,-0.5,-0.5,1,1,0.8,1,503,1,1,503,1,0,1.4,0.6,-0.900218903100774,-0.900218903100774,750,1,0,congruent,0.1,1648.96877325575,1229.37740596168
30,104,2,159,-0.5,0.5,0.5,2,4,0.8,2,655,1,1,655,1,0,1.2,0.6,0.272311306272747,0.272311306272747,750,0,0,incongruent,0.1,1848.73500102992,1570.442536382
30,104,2,160,-0.5,0.5,-0.5,3,3,0.8,3,478,1,1,478,1,0,1.4,0.6,-1.09306926648458,-1.09306926648458,750,1,0,congruent,0.1,1600.51058670837,3949.20023838135
30,104,2,161,-0.5,0.5,0,2,NaN,1,1,531,0,1,NaN,0,0,1.4,0.8,-0.684226496110915,NaN,750,0,1,neutral,0,11249.147435471,1040.98323427505
30,104,2,162,0.5,-0.5,-0.5,1,1,0.8,1,699,1,1,699,1,0,1,NaN,0.611727945828239,0.611727945828239,750,1,0,congruent,1,2529.47929787344,6685.34663709106
30,104,2,163,0.5,0.5,0,4,NaN,0.8,4,680,1,1,680,1,0,1,NaN,0.465161669656549,0.465161669656549,750,0,0,neutral,1,1940.80725247422,1308.21907519626
30,104,2,164,0.5,0.5,-0.5,2,2,0.8,2,830,1,0,830,0,0,1.2,NaN,1.62226384995937,1.62226384995937,750,1,0,congruent,0,2341.30246131646,2651.70934854594
30,104,2,165,-0.5,0.5,0.5,3,1,0.6,3,538,1,1,538,1,0,1,0.6,-0.630228394363451,-0.630228394363451,750,0,0,incongruent,0.1,11779.7125677821,810.106334897868
30,104,2,166,0.5,-0.5,-0.5,2,2,0.6,2,526,1,1,526,1,0,1,NaN,-0.722796568787676,-0.722796568787676,750,1,0,congruent,1,1576.61314404606,3409.49904403819
30,104,2,167,-0.5,-0.5,0,4,NaN,0.6,4,547,1,1,547,1,0,1.4,0.8,-0.560802263545282,-0.560802263545282,750,0,0,neutral,0.1,2048.50570967666,2831.99518636597
30,104,2,169,0.5,-0.5,0.5,1,4,0.6,1,634,1,1,634,1,0,1,NaN,0.110317001030352,0.110317001030352,750,0,0,incongruent,1,775.090302826671,1434.14890782387
30,104,2,170,-0.5,0.5,0.5,2,1,0.6,2,392,1,1,392,1,0,1.4,0.8,-1.75647451652486,-1.75647451652486,750,0,0,incongruent,0.1,1371.9439872789,1760.50653906264
30,104,2,171,0.5,-0.5,-0.5,3,3,0.6,3,382,1,1,382,0,0,1.4,NaN,-1.83361466187838,-1.83361466187838,750,1,0,congruent,0,1360.46660560555,1421.51933945168
30,104,2,172,-0.5,0.5,0,1,NaN,0.6,1,637,1,1,637,1,0,1,0.8,0.133459044636409,0.133459044636409,750,0,0,neutral,0.1,1761.15586366855,1465.82985709279
30,104,2,173,0.5,0.5,-0.5,2,2,0.8,2,614,1,1,614,1,0,1,NaN,-0.0439632896766901,-0.0439632896766901,750,1,0,congruent,1,2324.1797375195,1145.6547877845
30,104,2,174,0.5,0.5,0,3,NaN,0.8,3,580,1,1,580,1,0,1.2,NaN,-0.306239783878662,-0.306239783878662,750,0,0,neutral,1,1091.34018948632,801.12329920334
30,104,2,175,0.5,0.5,-0.5,1,1,1,1,647,1,1,647,1,0,1.2,NaN,0.21059918998993,0.21059918998993,750,1,0,congruent,1,1337.2339245121,2320.95635340545
30,104,2,176,-0.5,-0.5,0.5,2,4,1,2,572,1,1,572,1,0,1.4,0.8,-0.367951900161479,-0.367951900161479,750,0,0,incongruent,0.1,3095.65510403955,1486.95198437602
30,104,2,177,0.5,0.5,0,3,NaN,1,3,486,1,1,486,1,0,1.6,NaN,-1.03135715020176,-1.03135715020176,750,0,0,neutral,1,5027.96435220706,1686.55774323357
30,104,2,178,0.5,0.5,-0.5,1,1,1,1,755,1,0,755,0,0,1.8,NaN,1.04371275980796,1.04371275980796,750,1,0,congruent,0,2983.50633469173,2149.14216485998
30,104,2,179,0.5,-0.5,-0.5,2,2,0.8,2,622,1,1,622,1,0,1.4,NaN,0.0177488266061268,0.0177488266061268,750,1,0,congruent,1,3339.42469670351,782.959344871475
30,104,2,180,0.5,0.5,0,4,NaN,0.8,4,477,1,1,477,1,0,1.4,NaN,-1.10078328101993,-1.10078328101993,750,0,0,neutral,1,1856.82512689328,3281.79913442703
30,104,2,181,0.5,-0.5,-0.5,3,3,0.8,3,557,1,1,557,1,0,1.4,NaN,-0.48366211819176,-0.48366211819176,750,1,0,congruent,1,4347.74143295465,2617.49863181897
30,104,2,182,0.5,0.5,0.5,1,2,0.8,1,981,1,0,981,0,0,1.6,NaN,2.78708004479754,2.78708004479754,750,0,0,incongruent,0,3299.33215145957,6136.46903439638
30,104,2,183,-0.5,-0.5,-0.5,3,3,0.6,3,666,1,1,666,0,0,1.2,0.8,0.35716546616162,0.35716546616162,750,1,0,congruent,0,1263.23464399961,5001.40192913005
30,104,2,184,-0.5,-0.5,0.5,4,1,0.6,4,620,1,1,620,1,0,1.2,0.8,0.0023207975354226,0.0023207975354226,750,0,0,incongruent,0.1,1810.36581112401,1763.46828041164
30,104,2,185,-0.5,0.5,-0.5,2,2,0.6,2,669,1,1,669,1,0,1,0.8,0.380307509767676,0.380307509767676,750,1,0,congruent,0.1,2860.25717361983,3462.72482192847
30,104,2,186,-0.5,-0.5,0,1,NaN,0.6,1,636,1,1,636,1,0,0.8,0.8,0.125745030101056,0.125745030101056,750,0,0,neutral,0.1,1484.94310421347,2121.77287121773
30,104,2,187,0.5,-0.5,0.5,4,2,0.6,4,442,1,1,442,1,0,0.6,NaN,-1.37077378975725,-1.37077378975725,750,0,0,incongruent,1,2186.40178124975,2229.17683629456
30,104,2,188,-0.5,-0.5,0.5,2,1,0.6,2,894,1,0,894,1,0,1,0.8,2.1159607802219,2.1159607802219,750,0,0,incongruent,0.1,1442.27671610777,4194.7407600289
30,104,2,189,0.5,-0.5,-0.5,3,3,0.6,3,481,1,1,481,1,0,1.2,NaN,-1.06992722287852,-1.06992722287852,750,1,0,congruent,1,2401.53007830529,1911.19522337103
30,104,2,190,0.5,0.5,0,2,NaN,0.6,2,633,1,1,633,1,0,1.4,NaN,0.102602986495,0.102602986495,750,0,0,neutral,1,3211.99855692284,1443.46000832451
30,104,2,191,0.5,-0.5,-0.5,3,3,0.6,3,560,1,1,560,0,0,1.6,NaN,-0.460520074585704,-0.460520074585704,750,1,0,congruent,0,696.02745603778,1999.93095570967
30,104,2,192,-0.5,-0.5,0,2,NaN,0.6,2,703,1,1,703,0,0,1.4,0.8,0.642584003969648,0.642584003969648,750,0,0,neutral,0,2296.16572756763,1108.18676639121
30,104,2,193,-0.5,-0.5,0.5,4,1,0.6,4,745,1,1,745,1,0,1,0.6,0.966572614454437,0.966572614454437,750,0,0,incongruent,0.1,994.270356043146,6082.97978270123
30,104,2,195,0.5,0.5,0,1,NaN,0.6,1,440,1,1,440,1,0,0.6,NaN,-1.38620181882796,-1.38620181882796,750,0,0,neutral,1,1855.74208243322,1924.86981681749
30,104,2,196,-0.5,0.5,-0.5,2,2,0.6,2,635,1,1,635,1,0,0.6,0.8,0.118031015565704,0.118031015565704,750,1,0,congruent,0.1,1461.45294282074,2643.57710174265
30,104,2,197,0.5,-0.5,0.5,1,3,0.8,1,615,1,1,615,1,0,0.8,NaN,-0.036249275141338,-0.036249275141338,750,0,0,incongruent,1,4037.48345401057,1578.9404323089
30,104,2,198,0.5,-0.5,0.5,2,4,0.8,2,623,1,1,623,1,0,1.2,NaN,0.0254628411414789,0.0254628411414789,750,0,0,incongruent,1,1508.43134013202,2762.31811983095
30,104,2,199,-0.5,-0.5,0,3,NaN,0.8,3,656,1,1,656,1,0,1.4,0.8,0.280025320808099,0.280025320808099,750,0,0,neutral,0.1,315.16685556036,527.922019176766
30,104,2,200,0.5,0.5,-0.5,2,2,0.8,2,419,1,1,419,1,0,1.6,NaN,-1.54819612407035,-1.54819612407035,750,1,0,congruent,1,3811.500268516,525.920042038478
30,104,2,201,0.5,-0.5,-0.5,1,1,0.8,1,489,1,1,489,0,0,1.6,NaN,-1.0082151065957,-1.0082151065957,750,1,0,congruent,0,1044.13838827465,3759.23955047394
30,104,2,202,0.5,-0.5,0,2,NaN,0.8,2,509,1,1,509,1,0,1.4,NaN,-0.853934815888662,-0.853934815888662,750,0,0,neutral,1,3271.46260140793,2033.75239261052
30,104,2,204,0.5,-0.5,0,3,NaN,0.8,3,509,1,1,509,1,0,1.2,NaN,-0.853934815888662,-0.853934815888662,750,0,0,neutral,1,2763.98203434484,2613.03259080238
30,104,2,205,-0.5,0.5,-0.5,4,4,0.8,4,476,1,1,476,1,0,1.4,1,-1.10849729555528,-1.10849729555528,750,1,0,congruent,0.1,4196.83064747078,903.104252607795
30,104,2,206,-0.5,-0.5,0,2,NaN,1,2,588,1,1,588,1,0,1.2,0.8,-0.244527667595845,-0.244527667595845,750,0,0,neutral,0.1,2564.72901767885,2150.341964162
30,104,2,207,-0.5,-0.5,0.5,4,3,1,4,668,1,1,668,1,0,1.4,0.8,0.372593495232324,0.372593495232324,750,0,0,incongruent,0.1,3450.63042632798,4532.98456464479
30,104,2,208,-0.5,-0.5,0.5,3,4,1,3,349,1,1,349,1,0,1.2,0.8,-2.088177141545,-2.088177141545,750,0,0,incongruent,0.1,1720.66539941757,2396.75350398212
30,104,2,209,-0.5,0.5,-0.5,1,1,1,2,809,0,0,NaN,0,0,1.2,1,1.46026954471697,NaN,750,0,1,congruent,0,5941.99055210134,3105.09705414034
30,104,2,210,-0.5,-0.5,-0.5,3,3,0.8,3,611,1,1,611,1,0,0.8,1,-0.0671053332827464,-0.0671053332827464,750,1,0,congruent,0.1,955.330912777178,7293.04511708964
30,104,2,211,-0.5,0.5,0,1,NaN,0.8,1,619,1,1,619,1,0,0.8,0.8,-0.00539321699992951,-0.00539321699992951,750,0,0,neutral,0.1,1354.65273160479,2154.03968381187
30,104,2,212,0.5,0.5,-0.5,2,2,0.8,2,588,1,1,588,1,0,0.8,NaN,-0.244527667595845,-0.244527667595845,750,1,0,congruent,1,2948.30329105477,1421.8019981675
30,104,2,213,-0.5,-0.5,0.5,4,3,0.8,4,751,1,0,751,1,0,1,1,1.01285670166655,1.01285670166655,750,0,0,incongruent,0.1,3536.48367417388,1273.99619167905
30,104,2,214,0.5,0.5,0.5,3,4,0.8,3,398,1,1,398,1,0,1,NaN,-1.71019042931275,-1.71019042931275,750,0,0,incongruent,1,2093.24554096728,739.194943253385
30,104,2,215,-0.5,0.5,0.5,2,3,0.8,2,940,1,0,940,0,0,1.4,0.8,2.4708054488481,2.4708054488481,750,0,0,incongruent,0,1954.63548496989,1989.87072144031
30,104,2,216,0.5,0.5,-0.5,1,1,0.6,1,570,1,1,570,1,0,1.2,NaN,-0.383379929232183,-0.383379929232183,750,1,0,congruent,1,1192.48265862533,744.410814821338
30,104,2,217,0.5,0.5,-0.5,4,4,0.8,4,524,1,1,524,1,0,1.4,NaN,-0.73822459785838,-0.73822459785838,750,1,0,congruent,1,1663.295742487,1108.95334906432
30,104,2,218,0.5,0.5,0,2,NaN,0.8,2,650,1,1,650,1,0,1.4,NaN,0.233741233595986,0.233741233595986,750,0,0,neutral,1,972.773262764479,984.29626677004
30,104,2,219,0.5,0.5,-0.5,4,4,0.8,4,519,1,1,519,1,0,1.6,NaN,-0.776794670535141,-0.776794670535141,750,1,0,congruent,1,576.160273895948,2559.54789970942
30,104,2,220,-0.5,0.5,-0.5,1,1,0.8,1,740,1,1,740,1,0,1.6,0.6,0.928002541777676,0.928002541777676,750,1,0,congruent,0.1,8751.24038054132,634.16705112953
30,104,2,221,0.5,-0.5,0,4,NaN,1,4,583,1,1,583,1,0,1.8,NaN,-0.283097740272606,-0.283097740272606,750,0,0,neutral,1,1529.69684473159,1656.31071489758
30,104,2,222,-0.5,0.5,-0.5,3,3,1,3,725,1,1,725,1,0,1.8,0.6,0.812292323747394,0.812292323747394,750,1,0,congruent,0.1,2032.47767008461,10325.8819185491
30,104,2,223,0.5,0.5,-0.5,2,2,1,2,432,1,1,432,1,0,1.6,NaN,-1.44791393511077,-1.44791393511077,750,1,0,congruent,1,4686.27685778352,852.936286485073
30,104,2,224,0.5,-0.5,0.5,1,4,1,1,688,1,1,688,1,0,1.6,NaN,0.526873785939366,0.526873785939366,750,0,0,incongruent,1,4474.76563592659,2971.69941415919
30,104,2,225,-0.5,-0.5,-0.5,2,2,1,2,458,1,1,458,1,0,1.6,1,-1.24734955719162,-1.24734955719162,750,1,0,congruent,0.1,2393.20782510289,2492.7285287755
30,104,2,226,-0.5,0.5,-0.5,1,1,1,1,582,1,1,582,1,0,1.6,0.6,-0.290811754807958,-0.290811754807958,750,1,0,congruent,0.1,3204.09184779365,2044.34177741113
30,104,2,227,0.5,0.5,0,3,NaN,1,3,418,1,1,418,1,0,1.4,NaN,-1.5559101386057,-1.5559101386057,750,0,0,neutral,1,1432.48544686519,415.136087106446
30,104,2,228,-0.5,-0.5,-0.5,4,4,1,4,522,1,1,522,1,0,1.6,1,-0.753652626929084,-0.753652626929084,750,1,0,congruent,0.1,938.385207111592,1712.45608067709
30,104,2,229,0.5,0.5,-0.5,2,2,1,2,338,1,1,338,1,0,1.4,NaN,-2.17303130143387,-2.17303130143387,750,1,0,congruent,1,3947.73565206979,1015.48742589431
30,104,2,231,-0.5,-0.5,0.5,4,2,0.8,4,632,1,1,632,1,0,1.2,1,0.0948889719596479,0.0948889719596479,750,0,0,incongruent,0.1,1552.23088596039,1661.12747526476
30,104,2,232,0.5,-0.5,-0.5,3,3,0.8,3,551,1,1,551,1,0,1.2,NaN,-0.529946205403873,-0.529946205403873,750,1,0,congruent,1,1634.69859919474,903.724819950636
30,104,2,233,-0.5,0.5,-0.5,2,2,0.8,2,548,1,1,548,1,0,1.2,0.6,-0.553088249009929,-0.553088249009929,750,1,0,congruent,0.1,2294.96352810382,2348.43670261984
30,104,2,234,-0.5,-0.5,0.5,4,3,0.8,4,730,1,1,730,1,0,1.2,1,0.850862396424155,0.850862396424155,750,0,0,incongruent,0.1,636.56948714962,2114.87308490547
30,104,2,235,-0.5,-0.5,-0.5,2,2,0.8,2,524,1,1,524,1,0,1,1,-0.73822459785838,-0.73822459785838,750,1,0,congruent,0.1,1736.5301427784,3368.7466692499
30,104,2,236,-0.5,-0.5,0.5,4,1,0.8,4,637,1,1,637,0,0,1.2,1,0.133459044636409,0.133459044636409,750,0,0,incongruent,0,3786.17665049185,2775.02445062112
30,104,2,237,0.5,0.5,-0.5,3,3,0.8,3,363,1,1,363,1,0,1,NaN,-1.98018093805007,-1.98018093805007,750,1,0,congruent,1,716.354189664998,1693.33818787555
30,104,2,238,0.5,-0.5,-0.5,2,2,0.8,2,519,1,1,519,1,0,1,NaN,-0.776794670535141,-0.776794670535141,750,1,0,congruent,1,2064.59964275856,2428.16778454155
30,104,2,239,-0.5,0.5,0,4,NaN,0.8,4,590,1,1,590,1,0,1.2,0.8,-0.229099638525141,-0.229099638525141,750,0,0,neutral,0.1,1302.70707261792,4037.24234075805
30,104,2,240,-0.5,0.5,-0.5,3,3,0.8,3,534,1,1,534,1,0,1.2,0.8,-0.661084452504859,-0.661084452504859,750,1,0,congruent,0.1,4027.53175487622,942.902234401958
30,104,2,241,0.5,0.5,0,2,NaN,0.8,2,578,1,1,578,1,0,1.2,NaN,-0.321667812949366,-0.321667812949366,750,0,0,neutral,1,1651.09848703352,2279.60777820047
30,104,2,242,-0.5,-0.5,-0.5,3,3,1,3,731,1,1,731,1,0,1.6,0.8,0.858576410959507,0.858576410959507,750,1,0,congruent,0.1,383.864453930743,1146.79325421529
30,104,2,243,0.5,0.5,0,2,NaN,1,2,633,1,1,633,1,0,1.4,NaN,0.102602986495,0.102602986495,750,0,0,neutral,1,984.923708410194,3177.33883307926
30,104,2,244,0.5,-0.5,-0.5,1,1,1,1,780,1,0,780,1,0,1.4,NaN,1.23656312319176,1.23656312319176,750,1,0,congruent,1,771.00745314748,4013.56708653402
30,104,2,245,-0.5,0.5,-0.5,3,3,1,3,410,1,1,410,1,0,1.6,0.8,-1.61762225488852,-1.61762225488852,750,1,0,congruent,0.1,2324.75084263664,2280.34434005833
30,104,2,246,-0.5,-0.5,0.5,4,2,1,4,782,1,0,782,1,0,1.6,0.8,1.25199115226246,1.25199115226246,750,0,0,incongruent,0.1,4154.92877829098,3958.45878938477
30,104,2,247,-0.5,-0.5,0,3,NaN,1,3,575,1,1,575,1,0,1.4,0.8,-0.344809856555422,-0.344809856555422,750,0,0,neutral,0.1,3636.70851361949,1854.55789477198
30,104,2,248,0.5,0.5,0.5,4,2,1,4,712,1,1,712,1,0,1.4,NaN,0.712010134787817,0.712010134787817,750,0,0,incongruent,1,2691.50534456404,3256.72310563777
30,104,2,249,-0.5,-0.5,0,3,NaN,1,3,574,1,1,574,1,0,1.4,0.8,-0.352523871090775,-0.352523871090775,750,0,0,neutral,0.1,1269.19248112303,1124.01087397614
30,104,2,250,-0.5,0.5,-0.5,1,1,1,1,733,1,1,733,1,0,1.2,0.8,0.874004440030211,0.874004440030211,750,1,0,congruent,0.1,320.577936184012,1450.82411835956
30,104,2,251,0.5,-0.5,0.5,4,2,1,4,633,1,1,633,1,0,1.2,NaN,0.102602986495,0.102602986495,750,0,0,incongruent,1,2244.78728107643,7703.64094189979
30,104,2,252,0.5,0.5,-0.5,3,3,1,3,372,1,1,372,1,0,1.4,NaN,-1.9107548072319,-1.9107548072319,750,1,0,congruent,1,2884.85934911108,1024.25498343263
30,104,2,253,-0.5,0.5,0,2,NaN,1,2,570,1,1,570,1,0,1.6,1,-0.383379929232183,-0.383379929232183,750,0,0,neutral,0.1,2275.29324009937,1592.75112306697
30,104,2,254,-0.5,0.5,-0.5,3,3,1,3,549,1,1,549,1,0,1.4,1,-0.545374234474577,-0.545374234474577,750,1,0,congruent,0.1,595.03896056653,4791.71782538119
30,104,2,256,-0.5,-0.5,0.5,3,4,1,3,621,1,1,621,1,0,1.6,0.8,0.0100348120707747,0.0100348120707747,750,0,0,incongruent,0.1,3450.54364503791,2835.00767954463
30,104,2,257,0.5,0.5,-0.5,1,1,1,1,566,1,1,566,1,0,1.4,NaN,-0.414235987373591,-0.414235987373591,750,1,0,congruent,1,948.187248083138,1069.70810189073
30,104,2,258,-0.5,-0.5,0.5,2,4,1,2,724,1,1,724,1,0,1.4,1,0.804578309212042,0.804578309212042,750,0,0,incongruent,0.1,1095.84386790434,852.221456261876
30,104,2,259,0.5,-0.5,0.5,1,2,1,1,715,1,1,715,1,0,1.4,NaN,0.735152178393873,0.735152178393873,750,0,0,incongruent,1,3820.05865406627,1262.63679627104
30,104,2,260,-0.5,0.5,0,3,NaN,1,3,634,1,1,634,1,0,1.6,1,0.110317001030352,0.110317001030352,750,0,0,neutral,0.1,2712.20676348259,1137.59673657593
30,104,2,261,0.5,-0.5,0.5,4,1,1,4,792,1,0,792,1,0,1.4,NaN,1.32913129761599,1.32913129761599,750,0,0,incongruent,1,4802.19547951669,1655.26389576473
30,104,2,262,0.5,-0.5,-0.5,2,2,1,2,514,1,1,514,1,0,1.6,NaN,-0.815364743211901,-0.815364743211901,750,1,0,congruent,1,2475.91731830181,737.73989862398
30,104,2,263,-0.5,-0.5,-0.5,3,3,1,3,752,1,0,752,1,0,1.6,1,1.0205707162019,1.0205707162019,750,1,0,congruent,0.1,3926.37234820804,2504.57059728623
30,104,2,264,-0.5,-0.5,-0.5,2,2,1,2,391,1,1,391,1,0,1.6,1,-1.76418853106021,-1.76418853106021,750,1,0,congruent,0.1,2479.29059627925,5060.80669659701
30,104,2,265,0.5,0.5,-0.5,4,4,1,4,534,1,1,534,1,0,1.4,NaN,-0.661084452504859,-0.661084452504859,750,1,0,congruent,1,2831.28529157895,835.98135285191
30,104,2,266,0.5,0.5,0.5,2,3,1,2,497,1,1,497,1,0,1.6,NaN,-0.946502990312887,-0.946502990312887,750,0,0,incongruent,1,3835.10101192107,2369.7535805536
30,104,2,267,0.5,0.5,-0.5,4,4,1,3,656,0,1,NaN,0,0,1.6,NaN,0.280025320808099,NaN,750,0,1,congruent,0,3510.44811688895,3901.52716095583
30,104,2,268,0.5,0.5,-0.5,3,3,0.8,3,412,1,1,412,1,0,1.2,NaN,-1.60219422581782,-1.60219422581782,750,1,0,congruent,1,588.947413704009,254.849140917124
30,104,2,269,-0.5,-0.5,0,2,NaN,0.8,2,587,1,1,587,1,0,1.4,1,-0.252241682131197,-0.252241682131197,750,0,0,neutral,0.1,4591.77779028266,2418.80404349964
30,104,2,270,0.5,0.5,0.5,1,3,0.8,1,473,1,1,473,1,0,1.4,NaN,-1.13163933916134,-1.13163933916134,750,0,0,incongruent,1,1502.63947267433,1640.88911871254
30,104,2,271,0.5,-0.5,-0.5,2,2,0.8,2,577,1,1,577,1,0,1.4,NaN,-0.329381827484718,-0.329381827484718,750,1,0,congruent,1,856.952729309113,1039.56867172149
30,104,2,272,-0.5,0.5,-0.5,3,3,0.8,3,646,1,1,646,1,0,1.4,1,0.202885175454578,0.202885175454578,750,1,0,congruent,0.1,3443.01916680819,1540.75386333433
30,104,2,273,0.5,0.5,0,4,NaN,0.8,4,609,1,1,609,1,0,1.6,NaN,-0.0825333623534506,-0.0825333623534506,750,0,0,neutral,1,502.704482454821,4810.2655711029
30,104,2,274,-0.5,0.5,0.5,3,2,0.8,3,695,1,1,695,1,0,1.6,1,0.580871887686831,0.580871887686831,750,0,0,incongruent,0.1,4059.52239034886,4589.09842704191
30,104,2,275,0.5,-0.5,0.5,1,3,1,1,762,1,0,762,1,0,1.6,NaN,1.09771086155542,1.09771086155542,750,0,0,incongruent,1,2377.92892145217,5284.1934054463
30,104,2,276,0.5,-0.5,-0.5,4,4,1,4,623,1,1,623,1,0,1.6,NaN,0.0254628411414789,0.0254628411414789,750,1,0,congruent,1,2157.1319615648,1224.73370979336
30,104,2,277,0.5,0.5,0.5,2,3,1,2,683,1,1,683,1,0,1.6,NaN,0.488303713262606,0.488303713262606,750,0,0,incongruent,1,737.378543462262,4151.25449051068
30,104,2,278,0.5,0.5,-0.5,1,1,1,1,511,1,1,511,1,0,1.8,NaN,-0.838506786817958,-0.838506786817958,750,1,0,congruent,1,2572.0261022256,2653.5015833699
30,104,2,280,0.5,-0.5,0,4,NaN,1,4,552,1,1,552,1,0,2,NaN,-0.522232190868521,-0.522232190868521,750,0,0,neutral,1,633.803001839033,3139.36378797228
30,104,2,281,0.5,-0.5,-0.5,2,2,1,2,597,1,1,597,1,0,2,NaN,-0.175101536777676,-0.175101536777676,750,1,0,congruent,1,2001.96106344159,4817.45012715686
30,104,2,282,0.5,-0.5,0,4,NaN,1,4,748,1,1,748,1,0,2,NaN,0.989714658060493,0.989714658060493,750,0,0,neutral,1,545.274501990262,1092.99981926865
30,104,2,283,0.5,-0.5,-0.5,2,2,1,2,682,1,1,682,1,0,2,NaN,0.480589698727253,0.480589698727253,750,1,0,congruent,1,1526.91119907134,1705.60535843938
30,104,2,284,0.5,-0.5,-0.5,3,3,1,3,403,1,1,403,1,0,2,NaN,-1.67162035663599,-1.67162035663599,750,1,0,congruent,1,2145.84994067281,1231.5347244684
30,104,2,285,0.5,0.5,0.5,4,1,1,4,876,1,0,876,0,0,2,NaN,1.97710851858556,1.97710851858556,750,0,0,incongruent,0,4379.96391648756,1427.42437535204
30,104,2,286,-0.5,-0.5,0.5,3,4,0.8,3,677,1,1,677,1,0,1.6,1,0.442019626050493,0.442019626050493,750,0,0,incongruent,0.1,1013.5587379332,2916.76498672585
30,104,2,287,-0.5,-0.5,0,4,NaN,0.8,4,714,1,1,714,1,0,1.4,1,0.727438163858521,0.727438163858521,750,0,0,neutral,0.1,4847.21247130426,3039.12046423724
30,104,2,288,0.5,0.5,0.5,3,4,0.8,4,587,0,1,NaN,0,0,1.2,NaN,-0.252241682131197,NaN,750,1,0,incongruent,0,10809.2967778666,1263.25805926499
30,104,2,289,0.5,0.5,0.5,1,3,0.6,1,608,1,1,608,1,0,0.8,NaN,-0.0902473768888027,-0.0902473768888027,750,0,0,incongruent,1,9293.68718025892,3200.22424979382
30,104,2,290,0.5,-0.5,0.5,2,1,0.6,2,606,1,1,606,1,0,0.8,NaN,-0.105675405959507,-0.105675405959507,750,0,0,incongruent,1,2110.34464796427,1660.97543064168
30,104,2,291,-0.5,0.5,-0.5,3,3,0.6,3,560,1,1,560,1,0,1.2,1,-0.460520074585704,-0.460520074585704,750,1,0,congruent,0.1,1518.85860435452,4847.28367506047
30,104,2,292,0.5,0.5,0.5,1,2,0.6,1,817,1,0,817,0,0,1.2,NaN,1.52198166099979,1.52198166099979,750,0,0,incongruent,0,1700.70662236364,856.859439751837
30,104,2,293,0.5,0.5,0.5,4,1,0.4,4,791,1,0,791,0,0,1,NaN,1.32141728308063,1.32141728308063,750,0,0,incongruent,0,2873.28152513617,7152.84989883883
30,104,2,295,-0.5,0.5,-0.5,1,1,0.4,1,652,1,1,652,1,0,0.6,0.8,0.24916926266669,0.24916926266669,750,1,0,congruent,0.1,2579.92007744689,4172.82904404207
30,104,2,296,-0.5,0.5,-0.5,2,2,0.4,2,565,1,1,565,1,0,0.4,0.8,-0.421950001908944,-0.421950001908944,750,1,0,congruent,0.1,806.827713387079,1624.09308697586
30,104,2,297,0.5,-0.5,0,4,NaN,0.4,4,737,1,1,737,1,0,0.4,NaN,0.90486049817162,0.90486049817162,750,0,0,neutral,1,2217.12317629122,2733.81056036828
30,104,2,298,0.5,-0.5,0.5,2,1,0.4,2,632,1,1,632,0,0,0.8,NaN,0.0948889719596479,0.0948889719596479,750,0,0,incongruent,0,3219.05365492717,853.890692421766
30,104,2,299,0.5,0.5,0,4,NaN,0.4,4,498,1,1,498,1,0,0.8,NaN,-0.938788975777535,-0.938788975777535,750,0,0,neutral,1,2089.34488077149,2783.54532230385
30,104,2,300,-0.5,-0.5,0.5,3,1,0.6,3,626,1,1,626,1,0,1.2,1,0.0486048847475353,0.0486048847475353,750,0,0,incongruent,0.1,3082.38973691485,3428.12627555493
30,104,3,301,-0.5,-0.5,-0.5,2,2,0.6,2,576,1,1,576,1,0,1.2,1,-0.33709584202007,-0.33709584202007,750,1,0,congruent,0.1,387.999006051272,910.413770143751
30,104,3,302,0.5,-0.5,-0.5,3,3,0.6,3,444,1,1,444,0,0,1.2,NaN,-1.35534576068655,-1.35534576068655,750,1,0,congruent,0,1275.59797225633,1601.84156869252
30,104,3,303,-0.5,-0.5,-0.5,4,4,0.6,4,443,1,1,443,1,0,0.8,1,-1.3630597752219,-1.3630597752219,750,1,0,congruent,0.1,1678.58697540149,1656.37577615173
30,104,3,304,-0.5,-0.5,-0.5,1,1,0.6,1,639,1,1,639,1,0,1,1,0.148887073707113,0.148887073707113,750,1,0,congruent,0.1,459.734097833945,609.239511430184
30,104,3,305,-0.5,-0.5,0,3,NaN,0.6,3,677,1,1,677,1,0,0.8,1,0.442019626050493,0.442019626050493,750,0,0,neutral,0.1,5649.18741191279,1793.47680988026
30,104,3,306,0.5,-0.5,0.5,1,4,0.6,1,567,1,1,567,0,0,0.8,NaN,-0.406521972838239,-0.406521972838239,750,0,0,incongruent,0,2031.47843838216,2113.66791925355
30,104,3,307,-0.5,-0.5,0,2,NaN,0.6,2,340,1,1,340,1,0,0.6,1,-2.15760327236317,-2.15760327236317,750,0,0,neutral,0.1,2004.15675327513,1309.47516004634
30,104,3,308,-0.5,0.5,-0.5,1,1,0.6,1,613,1,1,613,1,0,0.8,0.8,-0.0516773042120422,-0.0516773042120422,750,1,0,congruent,0.1,1099.09221657939,7372.85842033461
30,104,3,309,0.5,-0.5,0,3,NaN,0.8,3,609,1,1,609,1,0,0.8,NaN,-0.0825333623534506,-0.0825333623534506,750,0,0,neutral,1,5774.06036418596,1025.32567569815
30,104,3,310,0.5,0.5,0.5,2,3,0.8,1,674,0,1,NaN,0,0,1,NaN,0.418877582444437,NaN,750,0,1,incongruent,0,1841.15859127864,4416.21774971335
30,104,3,311,0.5,0.5,0.5,4,2,0.8,4,465,1,1,465,1,0,0.8,NaN,-1.19335145544415,-1.19335145544415,750,0,0,incongruent,1,487.163489342233,719.241187206578
30,104,3,312,0.5,0.5,0.5,2,1,0.8,2,551,1,1,551,1,0,1.2,NaN,-0.529946205403873,-0.529946205403873,750,0,0,incongruent,1,1797.57842932068,1009.60546334051
30,104,3,313,-0.5,0.5,0,1,NaN,0.8,1,644,1,1,644,1,0,1.4,0.8,0.187457146383873,0.187457146383873,750,0,0,neutral,0.1,1411.37719425828,731.089728169182
30,104,3,314,-0.5,-0.5,-0.5,2,2,0.8,2,716,1,1,716,1,0,1.4,1,0.742866192929225,0.742866192929225,750,1,0,congruent,0.1,4176.75105908791,6023.00567115252
30,104,3,315,0.5,-0.5,0.5,4,1,0.8,4,651,1,1,651,1,0,1.2,NaN,0.241455248131338,0.241455248131338,750,0,0,incongruent,1,1134.38238669176,1848.50321997966
30,104,3,316,-0.5,0.5,0.5,1,4,0.8,1,549,1,1,549,1,0,1.6,0.8,-0.545374234474577,-0.545374234474577,750,0,0,incongruent,0.1,1388.07152678648,2039.77539314107
30,104,3,317,0.5,-0.5,-0.5,3,3,0.8,4,718,0,1,NaN,1,0,1.4,NaN,0.75829422199993,NaN,750,0,1,congruent,1,7170.56974928301,5256.31223529071
30,104,3,318,-0.5,0.5,0.5,1,4,0.8,1,905,1,0,905,0,0,1.4,1,2.20081494011077,2.20081494011077,750,0,0,incongruent,0,1814.35344247579,3329.77052529634
30,104,3,319,0.5,-0.5,0,3,NaN,0.8,3,439,1,1,439,0,0,1.2,NaN,-1.39391583336331,-1.39391583336331,750,0,0,neutral,0,1923.98818359557,519.015891829825
30,104,3,320,-0.5,0.5,-0.5,2,2,0.8,2,637,1,1,637,1,0,1,0.8,0.133459044636409,0.133459044636409,750,1,0,congruent,0.1,3139.87439385786,726.476166458548
30,104,3,321,-0.5,-0.5,-0.5,3,3,0.8,3,513,1,1,513,1,0,0.8,1,-0.823078757747253,-0.823078757747253,750,1,0,congruent,0.1,1452.04849082376,2364.09693030416
30,104,3,322,0.5,0.5,0,4,NaN,0.8,4,416,1,1,416,1,0,0.8,NaN,-1.57133816767641,-1.57133816767641,750,0,0,neutral,1,1349.00443422408,2383.32395321378
30,104,3,323,-0.5,-0.5,-0.5,2,2,0.8,2,790,1,0,790,1,0,0.8,1,1.31370326854528,1.31370326854528,750,1,0,congruent,0.1,1843.74684806405,3826.57183679505
30,104,3,324,0.5,-0.5,0.5,1,4,0.8,1,598,1,1,598,1,0,1,NaN,-0.167387522242324,-0.167387522242324,750,0,0,incongruent,1,2736.15428692428,6191.99072583804
30,104,3,325,-0.5,-0.5,0.5,3,2,0.8,3,745,1,1,745,0,0,1.4,1,0.966572614454437,0.966572614454437,750,0,0,incongruent,0,2972.85953374368,2585.48169097177
30,104,3,326,-0.5,-0.5,-0.5,1,1,0.8,1,633,1,1,633,1,0,1.2,0.8,0.102602986495,0.102602986495,750,1,0,congruent,0.1,1820.31922462341,3013.78628895885
30,104,3,327,-0.5,-0.5,0,3,NaN,0.8,3,613,1,1,613,1,0,1.2,0.8,-0.0516773042120422,-0.0516773042120422,750,0,0,neutral,0.1,1905.24259004001,1223.90080118369
30,104,3,328,0.5,0.5,-0.5,1,1,0.8,1,512,1,1,512,1,0,1,NaN,-0.830792772282605,-0.830792772282605,750,1,0,congruent,1,1867.76472183659,1270.57785273333
30,104,3,329,-0.5,0.5,0,3,NaN,0.8,3,519,1,1,519,1,0,1.2,0.8,-0.776794670535141,-0.776794670535141,750,0,0,neutral,0.1,4791.00289978254,851.932677442786
30,104,3,330,-0.5,0.5,-0.5,4,4,0.8,4,383,1,1,383,1,0,1,0.8,-1.82590064734303,-1.82590064734303,750,1,0,congruent,0.1,2335.86180188704,1660.27584155094
30,104,3,331,-0.5,-0.5,-0.5,1,1,1,1,667,1,1,667,1,0,1.2,0.8,0.364879480696972,0.364879480696972,750,1,0,congruent,0.1,266.565014772652,1500.95018230763
30,104,3,332,-0.5,0.5,0.5,3,4,1,3,619,1,1,619,1,0,1.2,0.8,-0.00539321699992951,-0.00539321699992951,750,0,0,incongruent,0.1,1773.63583235335,792.412942719029
30,104,3,333,-0.5,-0.5,0.5,4,3,1,4,680,1,1,680,1,0,1.2,0.8,0.465161669656549,0.465161669656549,750,0,0,incongruent,0.1,3257.64280930195,2065.5427587607
30,104,3,334,-0.5,-0.5,-0.5,1,1,1,1,584,1,1,584,1,0,1,0.8,-0.275383725737253,-0.275383725737253,750,1,0,congruent,0.1,1469.66303741408,614.929668864555
30,104,3,335,0.5,0.5,0.5,2,3,1,2,648,1,1,648,1,0,1,NaN,0.218313204525282,0.218313204525282,750,0,0,incongruent,1,2922.46977520203,992.446757437572
30,104,3,336,0.5,0.5,0.5,1,4,1,1,573,1,1,573,1,0,1.2,NaN,-0.360237885626127,-0.360237885626127,750,0,0,incongruent,1,1857.79870361238,1280.67536894547
30,104,3,337,-0.5,-0.5,0.5,3,1,1,3,631,1,1,631,1,0,1.4,1,0.0871749574242958,0.0871749574242958,750,0,0,incongruent,0.1,2045.35506766129,1800.23757403119
30,104,3,338,-0.5,-0.5,0.5,2,4,1,2,648,1,1,648,1,0,1.4,1,0.218313204525282,0.218313204525282,750,0,0,incongruent,0.1,1821.45157064733,2395.21671353594
30,104,3,339,-0.5,-0.5,-0.5,3,3,1,3,764,1,0,764,1,0,1.4,1,1.11313889062613,1.11313889062613,750,1,0,congruent,0.1,2152.82012895068,1284.16538072236
30,104,3,340,0.5,-0.5,-0.5,2,2,1,2,680,1,1,680,1,0,1.4,NaN,0.465161669656549,0.465161669656549,750,1,0,congruent,1,988.134334759504,4013.59805499455
30,104,3,341,0.5,0.5,0.5,1,4,1,1,713,1,1,713,1,0,1.4,NaN,0.719724149323169,0.719724149323169,750,0,0,incongruent,1,1614.60352432772,4109.33881404114
30,104,3,342,0.5,0.5,0,2,NaN,1,2,559,1,1,559,1,0,1.4,NaN,-0.468234089121056,-0.468234089121056,750,0,0,neutral,1,1185.86326287867,1174.80188448704
30,104,3,343,-0.5,0.5,-0.5,4,4,1,4,980,1,0,980,0,0,1.6,0.8,2.77936603026218,2.77936603026218,750,1,0,congruent,0,4336.51294338299,740.998276935638
30,104,3,344,0.5,0.5,-0.5,3,3,0.8,3,572,1,1,572,1,0,1.4,NaN,-0.367951900161479,-0.367951900161479,750,1,0,congruent,1,1834.65192791633,2126.43816377208
30,104,3,345,-0.5,0.5,0,1,NaN,0.8,1,556,1,1,556,1,0,1.6,0.8,-0.491376132727113,-0.491376132727113,750,0,0,neutral,0.1,1840.03441993436,1904.82769233646
30,104,3,346,-0.5,0.5,-0.5,3,3,0.8,3,582,1,1,582,1,0,1.4,0.8,-0.290811754807958,-0.290811754807958,750,1,0,congruent,0.1,1784.64071024675,1090.55646115292
30,104,3,347,-0.5,-0.5,-0.5,4,4,0.8,4,921,1,0,921,1,0,1.2,1,2.32423917267641,2.32423917267641,750,1,0,congruent,0.1,5371.92270139934,1078.18519215391
30,104,3,348,0.5,-0.5,-0.5,3,3,0.8,3,583,1,1,583,1,0,1,NaN,-0.283097740272606,-0.283097740272606,750,1,0,congruent,1,3220.43790720645,1562.3884047147
30,104,3,349,-0.5,0.5,0.5,1,2,0.8,1,758,1,0,758,0,0,1.4,0.8,1.06685480341401,1.06685480341401,750,0,0,incongruent,0,1719.50674217287,1975.67306603669
30,104,3,350,-0.5,-0.5,-0.5,3,3,0.6,3,605,1,1,605,1,0,1,1,-0.113389420494859,-0.113389420494859,750,1,0,congruent,0.1,1382.17433097135,1797.92242047798
30,104,3,351,0.5,0.5,0.5,4,1,0.6,4,540,1,1,540,1,0,1,NaN,-0.614800365292746,-0.614800365292746,750,0,0,incongruent,1,1733.83506062059,1355.66587418301
30,104,3,352,-0.5,0.5,-0.5,3,3,0.8,3,622,1,1,622,1,0,1.2,0.6,0.0177488266061268,0.0177488266061268,750,1,0,congruent,0.1,6069.22360842482,2059.70346995443
30,104,3,353,0.5,-0.5,0,4,NaN,0.8,4,704,1,1,704,1,0,1.2,NaN,0.650298018505,0.650298018505,750,0,0,neutral,1,528.883257541622,1102.00666318517
30,104,3,354,0.5,-0.5,0.5,2,4,0.8,2,500,1,1,500,0,0,1.2,NaN,-0.923360946706831,-0.923360946706831,750,0,0,incongruent,0,322.834230074304,3734.64024031126
30,104,3,355,0.5,-0.5,0.5,3,1,0.8,3,717,1,1,717,1,0,1.2,NaN,0.750580207464577,0.750580207464577,750,0,0,incongruent,1,1414.95982819449,1483.6583492647
30,104,3,356,0.5,0.5,0.5,1,2,0.8,1,630,1,1,630,1,0,1.4,NaN,0.0794609428889437,0.0794609428889437,750,0,0,incongruent,1,2763.42122044614,1544.45270359689
30,104,3,357,0.5,-0.5,0,2,NaN,0.8,2,821,1,0,821,0,0,1.4,NaN,1.5528377191412,1.5528377191412,750,0,0,neutral,0,3242.10160153505,3596.92999632836
30,104,3,358,-0.5,0.5,-0.5,1,1,0.8,1,844,1,0,844,0,0,1.2,0.6,1.7302600534543,1.7302600534543,750,1,0,congruent,0,2060.41495956962,2980.94679493389
30,104,3,359,-0.5,-0.5,0.5,2,4,0.6,2,571,1,1,571,1,0,0.8,1,-0.375665914696831,-0.375665914696831,750,0,0,incongruent,0.1,1607.6700803481,408.828829715028
30,104,3,360,-0.5,-0.5,0.5,4,2,0.6,4,646,1,1,646,1,0,1,1,0.202885175454578,0.202885175454578,750,0,0,incongruent,0.1,2418.93559799614,2484.68259949257
30,104,3,362,0.5,0.5,-0.5,4,4,0.8,4,542,1,1,542,1,0,0.6,NaN,-0.599372336222042,-0.599372336222042,750,1,0,congruent,1,2404.05262339507,1518.74340195678
30,104,3,363,-0.5,0.5,0.5,3,2,0.8,3,950,1,0,950,0,0,1,0.6,2.54794559420162,2.54794559420162,750,0,0,incongruent,0,2566.88647911881,624.149499150467
30,104,3,364,0.5,-0.5,0.5,1,3,0.6,1,459,1,1,459,0,0,1,NaN,-1.23963554265627,-1.23963554265627,750,0,0,incongruent,0,942.149418139256,746.907859471712
30,104,3,365,0.5,0.5,0.5,3,1,0.6,3,511,1,1,511,1,0,0.8,NaN,-0.838506786817958,-0.838506786817958,750,0,0,incongruent,1,1683.69128113755,6960.6864765342
30,104,3,366,0.5,0.5,0,1,NaN,0.6,1,577,1,1,577,1,0,1,NaN,-0.329381827484718,-0.329381827484718,750,0,0,neutral,1,3474.5703942607,2434.95856730967
30,104,3,367,0.5,0.5,-0.5,4,4,0.8,4,613,1,1,613,1,0,1.2,NaN,-0.0516773042120422,-0.0516773042120422,750,1,0,congruent,1,1870.00151243331,2434.5604876126
30,104,3,368,-0.5,0.5,0.5,2,3,0.8,2,615,1,1,615,1,0,1.2,0.4,-0.036249275141338,-0.036249275141338,750,0,0,incongruent,0.1,2734.55168864969,8865.4972680876
30,104,3,369,-0.5,-0.5,-0.5,4,4,0.8,4,541,1,1,541,1,0,1.4,1,-0.607086350757394,-0.607086350757394,750,1,0,congruent,0.1,1383.6777462433,2137.36635372287
30,104,3,370,0.5,-0.5,-0.5,1,1,0.8,1,621,1,1,621,1,0,1.6,NaN,0.0100348120707747,0.0100348120707747,750,1,0,congruent,1,561.475531300783,1824.35966454021
30,104,3,371,0.5,-0.5,-0.5,2,2,0.8,2,655,1,1,655,1,0,1.6,NaN,0.272311306272747,0.272311306272747,750,1,0,congruent,1,1908.81431531515,1970.3254678298
30,104,3,372,-0.5,0.5,-0.5,4,4,0.8,4,767,1,0,767,0,0,1.6,0.6,1.13628093423218,1.13628093423218,750,1,0,congruent,0,599.924455964876,2338.77141823091
30,104,3,373,-0.5,-0.5,0,1,NaN,0.8,1,587,1,1,587,1,0,1.2,1,-0.252241682131197,-0.252241682131197,750,0,0,neutral,0.1,1432.96875412337,3660.84856486356
30,104,3,374,-0.5,-0.5,0.5,4,1,0.8,4,859,1,0,859,1,0,1.2,1,1.84597027148458,1.84597027148458,750,0,0,incongruent,0.1,2309.19724428732,2223.38694979393
30,104,3,375,0.5,0.5,0,3,NaN,0.8,3,531,1,1,531,1,0,1.2,NaN,-0.684226496110915,-0.684226496110915,750,0,0,neutral,1,1609.03832920626,1235.73187455301
30,104,3,376,0.5,0.5,0.5,2,3,0.8,2,740,1,1,740,1,0,1.2,NaN,0.928002541777676,0.928002541777676,750,0,0,incongruent,1,2213.02403280742,2415.9956747833
30,104,3,377,0.5,-0.5,0.5,1,2,0.8,1,650,1,1,650,1,0,1.2,NaN,0.233741233595986,0.233741233595986,750,0,0,incongruent,1,463.842333861156,1124.25262756482
30,104,3,378,0.5,0.5,0,4,NaN,0.8,4,437,1,1,437,1,0,1.6,NaN,-1.40934386243401,-1.40934386243401,750,0,0,neutral,1,2247.22043617415,1321.85073182572
30,104,3,379,-0.5,-0.5,-0.5,1,1,0.8,1,711,1,1,711,0,0,1.8,1,0.704296120252465,0.704296120252465,750,1,0,congruent,0,5824.90500523321,4654.13167004491
30,104,3,380,0.5,-0.5,-0.5,4,4,0.8,4,534,1,1,534,1,0,1.6,NaN,-0.661084452504859,-0.661084452504859,750,1,0,congruent,1,490.78163251748,3757.76799845544
30,104,3,381,-0.5,0.5,0,1,NaN,0.8,1,609,1,1,609,1,0,1.6,0.4,-0.0825333623534506,-0.0825333623534506,750,0,0,neutral,0.1,2162.24185056926,2353.60841195503
30,104,3,382,0.5,-0.5,0.5,3,4,0.8,3,414,1,1,414,1,0,1.4,NaN,-1.58676619674711,-1.58676619674711,750,0,0,incongruent,1,2038.1744336433,1500.39442821236
30,104,3,383,-0.5,0.5,0.5,1,2,0.8,1,658,1,1,658,1,0,1.4,0.6,0.295453349878803,0.295453349878803,750,0,0,incongruent,0.1,1109.88327265162,4655.57335062522
30,104,3,384,0.5,-0.5,-0.5,3,3,1,3,554,1,1,554,1,0,1.2,NaN,-0.506804161797817,-0.506804161797817,750,1,0,congruent,1,5139.18758427427,1694.23623515659
30,104,3,385,0.5,-0.5,-0.5,2,2,1,2,543,1,1,543,1,0,1.6,NaN,-0.59165832168669,-0.59165832168669,750,1,0,congruent,1,3973.60852193021,407.464380529319
30,104,3,386,-0.5,-0.5,-0.5,3,3,1,4,620,0,1,NaN,1,0,1.6,0.8,0.0023207975354226,NaN,750,0,1,congruent,0.1,3354.65945136065,3539.2947624348
30,104,3,387,-0.5,-0.5,-0.5,1,1,1,1,587,1,1,587,1,0,1.6,0.8,-0.252241682131197,-0.252241682131197,750,1,0,congruent,0.1,1459.94947702016,4721.77611011858
30,104,3,388,-0.5,-0.5,-0.5,2,2,1,2,549,1,1,549,1,0,1.4,0.8,-0.545374234474577,-0.545374234474577,750,1,0,congruent,0.1,2033.42626675201,3997.91799736247
30,104,3,389,0.5,-0.5,0,4,NaN,1,4,582,1,1,582,1,0,1.4,NaN,-0.290811754807958,-0.290811754807958,750,0,0,neutral,1,1302.88481641534,2737.39911056961
30,104,3,390,-0.5,-0.5,-0.5,1,1,1,1,670,1,1,670,1,0,1.4,0.8,0.388021524303028,0.388021524303028,750,1,0,congruent,0.1,2120.17019236346,4009.58991687535
30,104,3,391,0.5,-0.5,0.5,3,4,1,3,385,1,1,385,1,0,1.2,NaN,-1.81047261827232,-1.81047261827232,750,0,0,incongruent,1,4244.94442847083,1555.85737821017
30,104,3,392,0.5,0.5,0,2,NaN,1,2,513,1,1,513,1,0,1.4,NaN,-0.823078757747253,-0.823078757747253,750,0,0,neutral,1,3433.75763872732,3230.71678225583
30,104,3,393,-0.5,0.5,-0.5,1,1,1,1,973,1,0,973,0,0,1.6,0.6,2.72536792851472,2.72536792851472,750,1,0,congruent,0,5740.80894698974,2078.07911491228
30,104,3,394,0.5,0.5,0,2,NaN,0.8,2,688,1,1,688,1,0,1.4,NaN,0.526873785939366,0.526873785939366,750,0,0,neutral,1,1887.40304790579,2034.49854532762
30,104,3,395,0.5,-0.5,-0.5,1,1,0.8,1,542,1,1,542,1,0,1.4,NaN,-0.599372336222042,-0.599372336222042,750,1,0,congruent,1,2443.29188454827,2289.93337856483
30,104,3,396,0.5,-0.5,0,2,NaN,0.8,2,526,1,1,526,1,0,1.6,NaN,-0.722796568787676,-0.722796568787676,750,0,0,neutral,1,1092.52495367424,3266.49644023312
30,104,3,397,0.5,-0.5,0.5,1,2,0.8,1,659,1,1,659,1,0,1.6,NaN,0.303167364414155,0.303167364414155,750,0,0,incongruent,1,1519.94952182189,2705.35769984298
30,104,3,398,0.5,0.5,-0.5,4,4,0.8,4,614,1,1,614,1,0,1.6,NaN,-0.0439632896766901,-0.0439632896766901,750,1,0,congruent,1,3958.7895207779,85.2317120263791
30,104,3,399,0.5,0.5,-0.5,1,1,0.8,1,569,1,1,569,1,0,2,NaN,-0.391093943767535,-0.391093943767535,750,1,0,congruent,1,723.19493325535,660.411255005404
30,104,3,400,0.5,0.5,-0.5,2,2,0.8,2,423,1,1,423,1,0,2,NaN,-1.51734006592894,-1.51734006592894,750,1,0,congruent,1,2074.01558499802,266.389138720097
30,104,3,401,0.5,0.5,0.5,4,3,0.8,4,452,1,1,452,1,0,2,NaN,-1.29363364440373,-1.29363364440373,750,0,0,incongruent,1,5566.69223415078,559.833210055811
30,104,3,402,0.5,0.5,0,1,NaN,1,1,661,1,1,661,1,0,2,NaN,0.318595393484859,0.318595393484859,750,0,0,neutral,1,3239.79356686945,2344.054669176
30,104,3,403,-0.5,0.5,-0.5,4,4,1,3,779,0,0,NaN,0,0,2,0.6,1.22884910865641,NaN,750,0,1,congruent,0,3493.18640113054,4438.60745018929
30,104,3,404,0.5,-0.5,0.5,3,1,0.8,3,784,1,0,784,1,0,1.6,NaN,1.26741918133317,1.26741918133317,750,0,0,incongruent,1,1386.06096345648,2741.07604621711
30,104,3,405,0.5,-0.5,0,4,NaN,0.8,4,581,1,1,581,1,0,1.6,NaN,-0.29852576934331,-0.29852576934331,750,0,0,neutral,1,4345.13619999705,910.726639985583
30,104,3,406,0.5,0.5,-0.5,2,2,0.8,2,391,1,1,391,1,0,1.6,NaN,-1.76418853106021,-1.76418853106021,750,1,0,congruent,1,1296.29568959188,542.672079039149
30,104,3,407,-0.5,-0.5,-0.5,3,3,0.8,3,546,1,1,546,1,0,1.6,0.8,-0.568516278080634,-0.568516278080634,750,1,0,congruent,0.1,2344.80772841434,1989.34221911913
30,104,3,408,-0.5,-0.5,0.5,1,2,0.8,1,765,1,0,765,1,0,1.4,1,1.12085290516148,1.12085290516148,750,0,0,incongruent,0.1,2822.29185221664,3706.33770696056
30,104,3,409,0.5,-0.5,-0.5,3,3,0.8,3,665,1,1,665,1,0,1.6,NaN,0.349451451626268,0.349451451626268,750,1,0,congruent,1,2856.41609425395,1885.08948837785
30,104,3,410,0.5,0.5,0,4,NaN,0.8,4,596,1,1,596,1,0,1.6,NaN,-0.182815551313028,-0.182815551313028,750,0,0,neutral,1,4112.38114119641,1337.56309778673
30,104,3,411,0.5,-0.5,-0.5,2,2,0.8,2,510,1,1,510,1,0,1.6,NaN,-0.84622080135331,-0.84622080135331,750,1,0,congruent,1,2702.93666174092,3368.81066172399
30,104,3,412,-0.5,-0.5,0,3,NaN,0.8,3,624,1,1,624,1,0,1.6,1,0.033176855676831,0.033176855676831,750,0,0,neutral,0.1,4271.94094008258,1747.41020513528
30,104,3,413,0.5,0.5,-0.5,1,1,0.8,1,408,1,1,408,1,0,1.6,NaN,-1.63305028395923,-1.63305028395923,750,1,0,congruent,1,1424.86320991351,1235.69022360528
30,104,3,414,0.5,0.5,0,4,NaN,0.8,4,485,1,1,485,1,0,1.8,NaN,-1.03907116473711,-1.03907116473711,750,0,0,neutral,1,842.721049201718,4027.11439968283
30,104,3,415,-0.5,-0.5,-0.5,3,3,0.8,3,588,1,1,588,1,0,1.8,1,-0.244527667595845,-0.244527667595845,750,1,0,congruent,0.1,2608.0627444777,1152.36993792362
30,104,3,416,0.5,0.5,0,2,NaN,0.8,2,728,1,1,728,1,0,1.6,NaN,0.835434367353451,0.835434367353451,750,0,0,neutral,1,2955.58060636504,1495.79248029571
30,104,3,417,-0.5,-0.5,-0.5,4,4,1,4,715,1,1,715,1,0,1.6,1,0.735152178393873,0.735152178393873,750,1,0,congruent,0.1,1983.70284382022,2678.67548216423
30,104,3,418,-0.5,-0.5,0,1,NaN,1,1,529,1,1,529,1,0,1.6,1,-0.69965452518162,-0.69965452518162,750,0,0,neutral,0.1,1097.36653365551,2535.52849922646
30,104,3,419,0.5,-0.5,-0.5,4,4,1,4,649,1,1,649,1,0,1.4,NaN,0.226027219060634,0.226027219060634,750,1,0,congruent,1,5594.71095784776,2406.07230915883
30,104,3,420,0.5,-0.5,0.5,1,2,1,1,603,1,1,603,1,0,1.4,NaN,-0.128817449565563,-0.128817449565563,750,0,0,incongruent,1,2708.37124902011,1901.05453326829
30,104,3,421,-0.5,0.5,-0.5,4,4,1,4,638,1,1,638,1,0,1.6,0.4,0.141173059171761,0.141173059171761,750,1,0,congruent,0.1,1092.47203057439,3477.16363539144
30,104,3,422,-0.5,-0.5,-0.5,1,1,1,1,581,1,1,581,1,0,1.4,1,-0.29852576934331,-0.29852576934331,750,1,0,congruent,0.1,1873.7999792476,947.911322746942
30,104,3,423,-0.5,-0.5,-0.5,2,2,1,1,656,0,1,NaN,1,0,1.4,1,0.280025320808099,NaN,750,0,1,congruent,0.1,6236.45554646064,1865.38110011993
30,104,3,424,-0.5,0.5,0,4,NaN,1,4,619,1,1,619,1,0,1.4,0.6,-0.00539321699992951,-0.00539321699992951,750,0,0,neutral,0.1,1075.23134720489,1297.7581038189
30,104,3,425,-0.5,-0.5,-0.5,1,1,1,1,708,1,1,708,1,0,1.2,1,0.681154076646408,0.681154076646408,750,1,0,congruent,0.1,990.819223681905,2904.59399879846
30,104,3,426,-0.5,0.5,0.5,4,2,1,4,770,1,0,770,0,0,1,0.6,1.15942297783824,1.15942297783824,750,0,0,incongruent,0,551.38391726687,1000.36443734901
30,104,3,427,0.5,0.5,0.5,1,4,0.8,1,496,1,1,496,1,0,0.8,NaN,-0.954217004848239,-0.954217004848239,750,0,0,incongruent,1,1319.50184054117,3708.39609977098
30,104,3,428,0.5,0.5,0.5,3,2,0.8,3,737,1,1,737,1,0,1,NaN,0.90486049817162,0.90486049817162,750,0,0,incongruent,1,2822.69079894745,3351.54888964297
30,104,3,429,-0.5,0.5,0,4,NaN,0.8,4,663,1,1,663,1,0,1.2,0.4,0.334023422555563,0.334023422555563,750,0,0,neutral,0.1,2563.40153854592,2604.76394790533
30,104,3,430,-0.5,0.5,0.5,2,3,0.8,1,584,0,1,NaN,0,0,1.2,0.6,-0.275383725737253,NaN,750,0,1,incongruent,0,5158.72999926853,1784.45581860303
30,104,3,431,0.5,-0.5,-0.5,4,4,0.6,4,517,1,1,517,0,0,1,NaN,-0.792222699605845,-0.792222699605845,750,1,0,congruent,0,623.040608798736,188.940092710358
30,104,3,432,0.5,0.5,-0.5,3,3,0.6,3,452,1,1,452,1,0,1,NaN,-1.29363364440373,-1.29363364440373,750,1,0,congruent,1,622.505497515489,1240.62079303707
30,104,3,433,0.5,0.5,-0.5,4,4,0.8,4,776,1,0,776,0,0,1,NaN,1.20570706505035,1.20570706505035,750,1,0,congruent,0,317.82106913792,2028.29222565405
30,104,3,434,-0.5,-0.5,0.5,1,3,0.6,1,678,1,1,678,1,0,0.6,1,0.449733640585845,0.449733640585845,750,0,0,incongruent,0.1,1647.43719392985,1179.02529278395
30,104,3,435,-0.5,-0.5,-0.5,2,2,0.6,2,622,1,1,622,0,0,0.6,1,0.0177488266061268,0.0177488266061268,750,1,0,congruent,0,1238.54584624555,2196.8549340388
30,104,3,436,-0.5,0.5,0,3,NaN,0.6,3,739,1,1,739,1,0,0.6,0.6,0.920288527242324,0.920288527242324,750,0,0,neutral,0.1,3039.91608881782,3599.67221291373
30,104,3,437,-0.5,0.5,-0.5,2,2,0.6,2,781,1,0,781,0,0,0.8,0.6,1.24427713772711,1.24427713772711,750,1,0,congruent,0,1752.68462438152,727.920690184128
30,104,3,438,-0.5,0.5,0.5,4,3,0.4,4,817,1,0,817,0,0,0.4,0.4,1.52198166099979,1.52198166099979,750,0,0,incongruent,0,2246.78690083156,1960.20314950196
30,104,3,439,-0.5,0.5,0,1,NaN,0.4,1,530,1,1,530,1,0,0.4,0.4,-0.691940510646267,-0.691940510646267,750,0,0,neutral,0.1,1128.07505385559,2008.03851232488
30,104,3,440,-0.5,-0.5,0.5,4,1,0.4,4,596,1,1,596,1,0,0.4,0.8,-0.182815551313028,-0.182815551313028,750,0,0,incongruent,0.1,3187.01057800453,1320.44004977668
30,104,3,441,-0.5,0.5,0.5,3,2,0.4,3,435,1,1,435,1,0,0.6,0.4,-1.42477189150472,-1.42477189150472,750,0,0,incongruent,0.1,5750.12890089999,1897.15398788922
30,104,3,442,0.5,0.5,0.5,4,3,0.6,4,511,1,1,511,1,0,0.6,NaN,-0.838506786817958,-0.838506786817958,750,0,0,incongruent,1,2693.78474048782,1599.03772864222
30,104,3,443,0.5,-0.5,0.5,1,4,0.6,1,561,1,1,561,1,0,1,NaN,-0.452806060050352,-0.452806060050352,750,0,0,incongruent,1,2159.24133403324,802.082842850008
30,104,3,444,-0.5,-0.5,0.5,3,1,0.6,3,581,1,1,581,1,0,1.4,0.8,-0.29852576934331,-0.29852576934331,750,0,0,incongruent,0.1,885.868072655656,1835.40673565712
30,104,3,445,-0.5,-0.5,-0.5,2,2,0.6,2,458,1,1,458,0,0,1.4,0.8,-1.24734955719162,-1.24734955719162,750,1,0,congruent,0,1146.20219646007,6428.75405636232
30,104,3,446,-0.5,0.5,0.5,3,4,0.6,4,602,0,1,NaN,0,0,1.2,0.6,-0.136531464100915,NaN,750,1,0,incongruent,0,6184.92469948677,1271.73775572704
30,104,3,447,0.5,-0.5,0,1,NaN,0.6,1,572,1,1,572,1,0,1,NaN,-0.367951900161479,-0.367951900161479,750,0,0,neutral,1,822.867885823848,1162.55842157981
30,104,3,448,0.5,0.5,-0.5,3,3,0.6,3,527,1,1,527,1,0,1,NaN,-0.715082554252324,-0.715082554252324,750,1,0,congruent,1,559.460038169078,1242.23468783647
30,104,3,449,-0.5,-0.5,0.5,4,2,0.8,4,682,1,1,682,1,0,1,0.6,0.480589698727253,0.480589698727253,750,0,0,incongruent,0.1,4943.02912158318,1697.70130409615
30,104,3,450,-0.5,-0.5,0,1,NaN,0.8,1,487,1,1,487,1,0,1,0.6,-1.02364313566641,-1.02364313566641,750,0,0,neutral,0.1,1406.13174339659,2324.05964681801
30,104,4,451,-0.5,0.5,-0.5,2,2,0.8,2,679,1,1,679,1,0,1.2,0.4,0.457447655121197,0.457447655121197,750,1,0,congruent,0.1,1044.97697050117,2777.02174066029
30,104,4,452,0.5,0.5,-0.5,4,4,0.8,4,619,1,1,619,1,0,1.4,NaN,-0.00539321699992951,-0.00539321699992951,750,1,0,congruent,1,1248.76647013045,1307.54410173338
30,104,4,453,0.5,0.5,0,3,NaN,0.8,3,540,1,1,540,1,0,1.4,NaN,-0.614800365292746,-0.614800365292746,750,0,0,neutral,1,286.166050065219,5524.94675981656
30,104,4,454,0.5,0.5,0.5,1,3,0.8,1,516,1,1,516,1,0,1.4,NaN,-0.799936714141197,-0.799936714141197,750,0,0,incongruent,1,2095.85589166581,1794.39603420859
30,104,4,455,0.5,-0.5,0,4,NaN,1,4,677,1,1,677,1,0,1.6,NaN,0.442019626050493,0.442019626050493,750,0,0,neutral,1,10411.5094915135,1147.24926988551
30,104,4,456,0.5,0.5,-0.5,1,1,1,1,513,1,1,513,1,0,1.8,NaN,-0.823078757747253,-0.823078757747253,750,1,0,congruent,1,1774.89197157804,801.432859295651
30,104,4,457,-0.5,-0.5,0,4,NaN,1,4,490,1,1,490,1,0,2,0.8,-1.00050109206035,-1.00050109206035,750,0,0,neutral,0.1,1177.92163654473,638.251171294778
30,104,4,459,0.5,-0.5,-0.5,2,2,1,2,364,1,1,364,1,0,1.6,NaN,-1.97246692351472,-1.97246692351472,750,1,0,congruent,1,378.662147785989,487.019812426747
30,104,4,460,0.5,0.5,0,3,NaN,1,3,483,1,1,483,1,0,1.6,NaN,-1.05449919380782,-1.05449919380782,750,0,0,neutral,1,2047.0273220786,3197.34492481204
30,104,4,461,-0.5,0.5,-0.5,2,2,1,2,552,1,1,552,1,0,1.6,0.8,-0.522232190868521,-0.522232190868521,750,1,0,congruent,0.1,2677.74558356772,3160.72459411836
30,104,4,462,-0.5,-0.5,0,3,NaN,1,3,599,1,1,599,1,0,1.4,0.8,-0.159673507706972,-0.159673507706972,750,0,0,neutral,0.1,608.751925588514,2946.97012650425
30,104,4,463,-0.5,-0.5,0.5,4,3,1,4,626,1,1,626,1,0,1.4,0.8,0.0486048847475353,0.0486048847475353,750,0,0,incongruent,0.1,1165.96005553134,1803.2622776266
30,104,4,464,-0.5,-0.5,0,2,NaN,1,2,466,1,1,466,1,0,1.4,1,-1.1856374409088,-1.1856374409088,750,0,0,neutral,0.1,1711.06755030363,716.220534931113
30,104,4,465,0.5,0.5,-0.5,1,1,1,1,523,1,1,523,1,0,1.2,NaN,-0.745938612393732,-0.745938612393732,750,1,0,congruent,1,3703.89796898691,1357.7615924687
30,104,4,466,0.5,-0.5,0,2,NaN,1,2,623,1,1,623,1,0,1.2,NaN,0.0254628411414789,0.0254628411414789,750,0,0,neutral,1,1088.71480971103,1805.41915583787
30,104,4,467,-0.5,-0.5,-0.5,4,4,1,4,466,1,1,466,1,0,1.4,1,-1.1856374409088,-1.1856374409088,750,1,0,congruent,0.1,1577.60438897746,2839.2950086062
30,104,4,468,0.5,0.5,0.5,2,3,1,2,599,1,1,599,1,0,1.4,NaN,-0.159673507706972,-0.159673507706972,750,0,0,incongruent,1,974.644295438643,2899.62472836997
30,104,4,469,-0.5,-0.5,0.5,3,2,1,3,632,1,1,632,1,0,1.6,1,0.0948889719596479,0.0948889719596479,750,0,0,incongruent,0.1,1405.98097753939,1324.07426529421
30,104,4,470,-0.5,-0.5,0,1,NaN,1,1,473,1,1,473,1,0,1.6,1,-1.13163933916134,-1.13163933916134,750,0,0,neutral,0.1,884.045872182678,1318.07044487035
30,104,4,471,0.5,-0.5,-0.5,3,3,1,3,507,1,1,507,1,0,1.4,NaN,-0.869362844959366,-0.869362844959366,750,1,0,congruent,1,2702.29318500786,1897.30842665277
30,104,4,472,0.5,-0.5,0.5,4,2,1,4,615,1,1,615,1,0,1.4,NaN,-0.036249275141338,-0.036249275141338,750,0,0,incongruent,1,4194.79825179107,1038.37848198648
30,104,4,474,0.5,0.5,0,4,NaN,1,4,626,1,1,626,1,0,1.4,NaN,0.0486048847475353,0.0486048847475353,750,0,0,neutral,1,2972.34013400783,1047.39649830275
30,104,4,475,-0.5,-0.5,-0.5,3,3,1,3,598,1,1,598,1,0,1.6,1,-0.167387522242324,-0.167387522242324,750,1,0,congruent,0.1,638.530689891953,921.092394387653
30,104,4,476,0.5,-0.5,-0.5,4,4,1,4,955,1,0,955,1,0,1.6,NaN,2.58651566687838,2.58651566687838,750,1,0,congruent,1,4933.91594041292,1962.9477087475
30,104,4,477,-0.5,-0.5,-0.5,3,3,1,3,476,1,1,476,1,0,1.6,1,-1.10849729555528,-1.10849729555528,750,1,0,congruent,0.1,989.607601677869,651.546592175028
30,104,4,478,0.5,-0.5,0,1,NaN,1,1,599,1,1,599,1,0,1.4,NaN,-0.159673507706972,-0.159673507706972,750,0,0,neutral,1,1027.76946847121,2606.08385815503
30,104,4,480,0.5,0.5,0,4,NaN,0.8,4,743,1,1,743,1,0,1.2,NaN,0.951144585383732,0.951144585383732,750,0,0,neutral,1,675.642272238953,1252.89952932958
30,104,4,481,0.5,0.5,0.5,2,4,0.8,2,592,1,1,592,1,0,1.4,NaN,-0.213671609454437,-0.213671609454437,750,0,0,incongruent,1,3497.00633710315,1401.68142377538
30,104,4,482,-0.5,0.5,-0.5,1,1,0.8,1,555,1,1,555,1,0,1.4,0.8,-0.499090147262465,-0.499090147262465,750,1,0,congruent,0.1,1423.95121412104,2776.57398640364
30,104,4,483,0.5,-0.5,0.5,4,3,0.8,4,516,1,1,516,0,0,1.4,NaN,-0.799936714141197,-0.799936714141197,750,0,0,incongruent,0,1098.18306107319,3077.48769712075
30,104,4,484,0.5,-0.5,-0.5,2,2,0.8,2,645,1,1,645,1,0,1,NaN,0.195171160919225,0.195171160919225,750,1,0,congruent,1,3683.90342294812,3354.19262700902
30,104,4,485,-0.5,0.5,0,1,NaN,0.8,1,592,1,1,592,1,0,1.4,0.8,-0.213671609454437,-0.213671609454437,750,0,0,neutral,0.1,2425.40321734176,794.197568418185
30,104,4,486,0.5,0.5,-0.5,2,2,0.8,2,561,1,1,561,1,0,1.2,NaN,-0.452806060050352,-0.452806060050352,750,1,0,congruent,1,4173.88259510607,4962.85484507519
30,104,4,487,-0.5,0.5,0.5,1,3,1,1,778,1,0,778,0,0,1.2,1,1.22113509412106,1.22113509412106,750,0,0,incongruent,0,475.813144948339,2742.75754662409
30,104,4,488,0.5,0.5,-0.5,4,4,0.8,4,456,1,1,456,1,0,1,NaN,-1.26277758626232,-1.26277758626232,750,1,0,congruent,1,260.914296006585,889.743302915338
30,104,4,489,0.5,0.5,0.5,1,2,0.8,1,473,1,1,473,1,0,1.4,NaN,-1.13163933916134,-1.13163933916134,750,0,0,incongruent,1,3087.29321270169,1945.61158097462
30,104,4,490,-0.5,0.5,0.5,2,3,0.8,2,645,1,1,645,1,0,1.4,0.8,0.195171160919225,0.195171160919225,750,0,0,incongruent,0.1,3536.17327327709,3917.43721203246
30,104,4,491,0.5,-0.5,-0.5,1,1,0.8,1,719,1,1,719,1,0,1.4,NaN,0.766008236535282,0.766008236535282,750,1,0,congruent,1,1038.57232915302,4465.43113183956
30,104,4,492,0.5,0.5,0.5,4,2,0.8,4,666,1,1,666,1,0,1.4,NaN,0.35716546616162,0.35716546616162,750,0,0,incongruent,1,5183.73524699372,827.525597458725
30,104,4,493,-0.5,-0.5,0.5,1,4,0.8,1,451,1,1,451,1,0,1.8,1,-1.30134765893908,-1.30134765893908,750,0,0,incongruent,0.1,1673.2091685951,1891.68599843762
30,104,4,494,0.5,0.5,0,3,NaN,0.8,3,455,1,1,455,1,0,1.6,NaN,-1.27049160079768,-1.27049160079768,750,0,0,neutral,1,3111.56982688646,678.29788736012
30,104,4,495,0.5,-0.5,0.5,4,3,1,4,639,1,1,639,1,0,1.6,NaN,0.148887073707113,0.148887073707113,750,0,0,incongruent,1,2167.01279726142,1069.76354670368
30,104,4,496,-0.5,0.5,0,1,NaN,1,1,521,1,1,521,1,0,1.8,0.8,-0.761366641464436,-0.761366641464436,750,0,0,neutral,0.1,1112.57139592252,1311.93868656468
30,104,4,497,0.5,0.5,0.5,4,2,1,4,554,1,1,554,1,0,1.6,NaN,-0.506804161797817,-0.506804161797817,750,0,0,incongruent,1,5143.06480183916,1202.11145319446
30,104,4,498,0.5,0.5,0.5,2,4,1,1,710,0,1,NaN,0,0,1.6,NaN,0.696582105717113,NaN,750,0,1,incongruent,0,4281.08760011494,1249.38113236943
30,104,4,499,0.5,-0.5,0,1,NaN,0.8,1,575,1,1,575,1,0,1.4,NaN,-0.344809856555422,-0.344809856555422,750,0,0,neutral,1,614.435401703242,2912.15570895884
30,104,4,500,-0.5,0.5,-0.5,4,4,0.8,4,655,1,1,655,1,0,1.4,0.8,0.272311306272747,0.272311306272747,750,1,0,congruent,0.1,2558.48518787191,3240.88799970875
30,104,4,501,-0.5,0.5,-0.5,2,2,0.8,1,692,0,1,NaN,0,0,1.2,0.8,0.557729844080775,NaN,750,0,1,congruent,0,16556.5699596508,7278.91236299359
30,104,4,502,0.5,-0.5,-0.5,4,4,0.6,4,628,1,1,628,1,0,1,NaN,0.0640329138182395,0.0640329138182395,750,1,0,congruent,1,2608.20687264567,2303.15900448906
30,104,4,503,-0.5,0.5,0.5,3,1,0.6,3,618,1,1,618,1,0,1,0.6,-0.0131072315352816,-0.0131072315352816,750,0,0,incongruent,0.1,289.118988233553,2802.857943359
30,104,4,504,0.5,0.5,0.5,1,2,0.6,1,537,1,1,537,1,0,1.2,NaN,-0.637942408898803,-0.637942408898803,750,0,0,incongruent,1,2173.68831288703,1660.33403422556
30,104,4,505,0.5,-0.5,0,3,NaN,0.6,3,435,1,1,435,1,0,1.2,NaN,-1.42477189150472,-1.42477189150472,750,0,0,neutral,1,6296.8394868882,3657.62826496883
30,104,4,506,-0.5,-0.5,-0.5,4,4,0.6,4,657,1,1,657,1,0,1.4,1,0.287739335343451,0.287739335343451,750,1,0,congruent,0.1,2209.5342041839,3063.15533083061
30,104,4,507,-0.5,-0.5,0,1,NaN,0.6,1,480,1,1,480,1,0,1.6,1,-1.07764123741387,-1.07764123741387,750,0,0,neutral,0.1,2687.05758723572,940.884918435875
30,104,4,508,0.5,-0.5,0.5,2,1,0.6,2,602,1,1,602,1,0,1.4,NaN,-0.136531464100915,-0.136531464100915,750,0,0,incongruent,1,5699.50224120965,1770.17389878557
30,104,4,509,0.5,-0.5,-0.5,4,4,0.6,4,522,1,1,522,1,0,1.6,NaN,-0.753652626929084,-0.753652626929084,750,1,0,congruent,1,891.943168727361,1173.65727168758
30,104,4,510,0.5,0.5,-0.5,3,3,0.6,4,838,0,0,NaN,0,0,1.6,NaN,1.68397596624218,NaN,750,0,1,congruent,0,3952.21380575439,1936.6155303655
30,104,4,511,0.5,0.5,0.5,1,4,0.6,1,619,1,1,619,1,0,1.2,NaN,-0.00539321699992951,-0.00539321699992951,750,0,0,incongruent,1,1239.41746534982,2452.16029143264
30,104,4,513,0.5,-0.5,0,4,NaN,0.6,4,742,1,1,742,1,0,1.2,NaN,0.94343057084838,0.94343057084838,750,0,0,neutral,1,875.930504273114,2431.81148879554
30,104,4,514,0.5,0.5,0.5,3,2,0.6,3,635,1,1,635,1,0,1.2,NaN,0.118031015565704,0.118031015565704,750,0,0,incongruent,1,1620.60026141039,1970.35470556694
30,104,4,515,-0.5,-0.5,-0.5,4,4,0.8,3,730,0,1,NaN,1,0,1.2,0.8,0.850862396424155,NaN,750,0,1,congruent,0.1,2231.3882740073,2580.4577647914
30,104,4,516,0.5,-0.5,-0.5,3,3,0.8,4,516,0,1,NaN,1,0,1.4,NaN,-0.799936714141197,NaN,750,0,1,congruent,1,7715.28924704505,2605.98520971024
30,104,4,517,0.5,-0.5,-0.5,2,2,0.8,2,572,1,1,572,1,0,1.4,NaN,-0.367951900161479,-0.367951900161479,750,1,0,congruent,1,1046.76151387818,1741.21463067109
30,104,4,518,-0.5,0.5,0,4,NaN,0.8,3,704,0,1,NaN,0,0,1.8,0.8,0.650298018505,NaN,750,0,1,neutral,0,2999.75339207805,6648.04244711156
30,104,4,519,0.5,-0.5,-0.5,3,3,0.6,3,947,1,0,947,0,0,1.4,NaN,2.52480355059556,2.52480355059556,750,1,0,congruent,0,902.521894425042,895.569334207544
30,104,4,520,-0.5,-0.5,0,2,NaN,0.6,2,606,1,1,606,1,0,1,0.8,-0.105675405959507,-0.105675405959507,750,0,0,neutral,0.1,1267.52611838989,1673.41683022513
30,104,4,521,0.5,0.5,0.5,1,4,0.6,1,711,1,1,711,1,0,1,NaN,0.704296120252465,0.704296120252465,750,0,0,incongruent,1,2252.67518498451,1946.78230542866
30,104,4,522,-0.5,0.5,0.5,4,1,0.6,4,847,1,0,847,0,0,1,0.6,1.75340209706035,1.75340209706035,750,0,0,incongruent,0,1998.78910500792,1498.91720998226
30,104,4,523,0.5,0.5,-0.5,2,2,0.6,2,568,1,1,568,1,0,0.6,NaN,-0.398807958302887,-0.398807958302887,750,1,0,congruent,1,506.82999990836,1443.03411850967
30,104,4,524,-0.5,-0.5,0,3,NaN,0.6,3,476,1,1,476,1,0,1,0.8,-1.10849729555528,-1.10849729555528,750,0,0,neutral,0.1,469.678211867198,1223.50909005529
30,104,4,525,0.5,-0.5,0.5,1,3,0.6,1,454,1,1,454,1,0,1.2,NaN,-1.27820561533303,-1.27820561533303,750,0,0,incongruent,1,1566.77827867151,1156.78230989126
30,104,4,526,0.5,-0.5,-0.5,2,2,0.6,2,778,1,0,778,0,0,1.4,NaN,1.22113509412106,1.22113509412106,750,1,0,congruent,0,1135.80779401396,4270.68172248973
30,104,4,527,-0.5,0.5,0.5,4,3,0.6,4,769,1,0,769,0,0,1,0.4,1.15170896330289,1.15170896330289,750,0,0,incongruent,0,1789.51485959659,4278.9861725703
30,104,4,529,-0.5,0.5,0.5,1,4,0.4,1,424,1,1,424,1,0,0.6,0.2,-1.50962605139359,-1.50962605139359,750,0,0,incongruent,0.1,605.746152496441,1712.90119353784
30,104,4,530,0.5,0.5,0,2,NaN,0.6,2,651,1,1,651,1,0,0.6,NaN,0.241455248131338,0.241455248131338,750,0,0,neutral,1,782.488512190086,8765.66458662909
30,104,4,531,-0.5,0.5,0.5,3,1,0.6,3,637,1,1,637,1,0,0.6,0.4,0.133459044636409,0.133459044636409,750,0,0,incongruent,0.1,2949.66573935841,1673.2912635491
30,104,4,532,0.5,-0.5,-0.5,2,2,0.8,2,620,1,1,620,1,0,0.8,NaN,0.0023207975354226,0.0023207975354226,750,1,0,congruent,1,4140.0431459126,3335.12315787789
30,104,4,533,0.5,0.5,0.5,1,3,0.8,1,640,1,1,640,1,0,1.2,NaN,0.156601088242465,0.156601088242465,750,0,0,incongruent,1,580.607364780458,5506.07027111215
30,104,4,535,0.5,-0.5,-0.5,3,3,0.8,3,370,1,1,370,1,0,1.4,NaN,-1.92618283630261,-1.92618283630261,750,1,0,congruent,1,1039.88425720264,1962.48518907996
30,104,4,536,0.5,-0.5,-0.5,4,4,0.8,4,558,1,1,558,1,0,1.4,NaN,-0.475948103656408,-0.475948103656408,750,1,0,congruent,1,883.356055647955,1061.07663299967
30,104,4,537,-0.5,-0.5,-0.5,2,2,0.8,2,405,1,1,405,1,0,1.6,0.6,-1.65619232756528,-1.65619232756528,750,1,0,congruent,0.1,7870.85469375251,671.946916869428
30,104,4,538,-0.5,0.5,0.5,3,1,0.8,3,544,1,1,544,1,0,1.4,0.4,-0.583944307151338,-0.583944307151338,750,0,0,incongruent,0.1,719.159487230033,1101.67208320068
30,104,4,539,-0.5,-0.5,0,1,NaN,0.8,1,592,1,1,592,1,0,1.2,0.8,-0.213671609454437,-0.213671609454437,750,0,0,neutral,0.1,443.155736879242,1834.83344132843
30,104,4,540,-0.5,0.5,-0.5,3,3,0.8,3,810,1,0,810,0,0,1.4,0.6,1.46798355925232,1.46798355925232,750,1,0,congruent,0,1496.77904998652,2867.60259611037
30,104,4,541,0.5,0.5,-0.5,4,4,0.6,4,493,1,1,493,1,0,1,NaN,-0.977359048454296,-0.977359048454296,750,1,0,congruent,1,2364.05823043955,1489.88998319567
30,104,4,542,0.5,0.5,0,2,NaN,0.6,2,811,1,0,811,0,0,1,NaN,1.47569757378768,1.47569757378768,750,0,0,neutral,0,2528.88762040855,343.369716344669
30,104,4,543,-0.5,0.5,0.5,3,1,0.4,3,688,1,1,688,1,0,0.8,0.6,0.526873785939366,0.526873785939366,750,0,0,incongruent,0.1,2566.40374880961,994.913510241108
30,104,4,544,0.5,-0.5,0,1,NaN,0.6,1,496,1,1,496,1,0,0.8,NaN,-0.954217004848239,-0.954217004848239,750,0,0,neutral,1,558.054259666141,1175.64524061658
30,104,4,545,-0.5,-0.5,-0.5,3,3,0.6,3,545,1,1,545,1,0,1,0.8,-0.576230292615986,-0.576230292615986,750,1,0,congruent,0.1,2682.42982366261,1477.23218351489
30,104,4,546,0.5,0.5,0,4,NaN,0.6,4,451,1,1,451,1,0,1.2,NaN,-1.30134765893908,-1.30134765893908,750,0,0,neutral,1,4348.00153719958,1473.20660250189
30,104,4,547,0.5,0.5,-0.5,3,3,0.6,3,631,1,1,631,1,0,1.2,NaN,0.0871749574242958,0.0871749574242958,750,1,0,congruent,1,1511.27248766118,4939.44170337029
30,104,4,548,-0.5,-0.5,0,2,NaN,0.8,2,556,1,1,556,1,0,1.6,0.8,-0.491376132727113,-0.491376132727113,750,0,0,neutral,0.1,3079.61328110839,1214.3941370972
30,104,4,549,-0.5,0.5,0.5,3,4,0.8,3,704,1,1,704,1,0,1.6,0.6,0.650298018505,0.650298018505,750,0,0,incongruent,0.1,2484.98267039741,5208.18674940018
30,104,4,550,0.5,-0.5,-0.5,2,2,0.8,2,506,1,1,506,1,0,1.4,NaN,-0.877076859494718,-0.877076859494718,750,1,0,congruent,1,2407.43143225814,1025.15045802201
30,104,4,551,0.5,0.5,0,3,NaN,0.8,3,605,1,1,605,1,0,1.6,NaN,-0.113389420494859,-0.113389420494859,750,0,0,neutral,1,1286.31553580243,1118.97815739515
30,104,4,552,-0.5,-0.5,-0.5,2,2,1,2,499,1,1,499,1,0,1.6,0.8,-0.931074961242183,-0.931074961242183,750,1,0,congruent,0.1,2269.81814026941,3146.26676303663
30,104,4,553,0.5,-0.5,0.5,3,4,1,3,495,1,1,495,1,0,1.4,NaN,-0.961931019383591,-0.961931019383591,750,0,0,incongruent,1,1160.45541816783,3096.1400906585
30,104,4,554,0.5,0.5,0,4,NaN,1,4,586,1,1,586,1,0,1.6,NaN,-0.259955696666549,-0.259955696666549,750,0,0,neutral,1,2254.32977520544,2881.52409423167
30,104,4,555,0.5,0.5,-0.5,2,2,1,2,514,1,1,514,1,0,1.8,NaN,-0.815364743211901,-0.815364743211901,750,1,0,congruent,1,2013.06680593107,2858.07409854053
30,104,4,556,-0.5,0.5,0,3,NaN,1,3,596,1,1,596,1,0,1.8,0.6,-0.182815551313028,-0.182815551313028,750,0,0,neutral,0.1,2394.56572175283,1440.83516197112
30,104,4,557,0.5,0.5,-0.5,1,1,1,1,714,1,1,714,1,0,1.6,NaN,0.727438163858521,0.727438163858521,750,1,0,congruent,1,2145.89367539456,3605.928363911
30,104,4,558,0.5,-0.5,-0.5,3,3,1,3,474,1,1,474,1,0,1.8,NaN,-1.12392532462599,-1.12392532462599,750,1,0,congruent,1,934.08656320277,2036.75390102251
30,104,4,559,-0.5,0.5,0,2,NaN,1,2,477,1,1,477,1,0,1.8,0.8,-1.10078328101993,-1.10078328101993,750,0,0,neutral,0.1,8666.07678755904,3591.81713373905
30,104,4,560,0.5,-0.5,0.5,3,4,1,3,485,1,1,485,1,0,1.6,NaN,-1.03907116473711,-1.03907116473711,750,0,0,incongruent,1,2163.66636843325,1966.96838965933
30,104,4,561,0.5,0.5,0.5,1,2,1,1,514,1,1,514,1,0,1.6,NaN,-0.815364743211901,-0.815364743211901,750,0,0,incongruent,1,1069.02891365377,1947.19992165333
30,104,4,562,-0.5,-0.5,0.5,3,4,1,3,639,1,1,639,1,0,1.8,1,0.148887073707113,0.148887073707113,750,0,0,incongruent,0.1,2372.79193480211,1285.55552139652
30,104,4,563,-0.5,0.5,0.5,1,3,1,1,886,1,0,886,0,0,1.6,0.8,2.05424866393908,2.05424866393908,750,0,0,incongruent,0,998.155983973495,4557.09687486099
30,104,4,564,-0.5,-0.5,0.5,2,4,0.8,2,483,1,1,483,1,0,1.2,1,-1.05449919380782,-1.05449919380782,750,0,0,incongruent,0.1,1590.10112597394,1277.41136419991
30,104,4,565,0.5,-0.5,-0.5,1,1,0.8,1,730,1,1,730,1,0,1.2,NaN,0.850862396424155,0.850862396424155,750,1,0,congruent,1,5371.84888155474,2585.70516001685
30,104,4,566,-0.5,-0.5,0,4,NaN,0.8,4,600,1,1,600,1,0,1.2,1,-0.15195949317162,-0.15195949317162,750,0,0,neutral,0.1,1877.61554229987,4623.08902423341
30,104,4,567,-0.5,-0.5,-0.5,1,1,0.8,1,553,1,1,553,0,0,1,1,-0.514518176333169,-0.514518176333169,750,1,0,congruent,0,4672.13184074061,1644.71513356702
30,104,4,568,-0.5,-0.5,-0.5,3,3,0.8,4,748,0,1,NaN,1,0,0.8,0.8,0.989714658060493,NaN,750,0,1,congruent,0.1,1934.90568148975,926.612336952153
30,104,4,569,0.5,-0.5,0,4,NaN,0.8,4,711,1,1,711,0,0,1,NaN,0.704296120252465,0.704296120252465,750,0,0,neutral,0,1666.43238240484,2838.4450268144
30,104,4,570,-0.5,-0.5,0.5,2,3,0.8,2,592,1,1,592,1,0,0.8,0.8,-0.213671609454437,-0.213671609454437,750,0,0,incongruent,0.1,1122.71083896985,1238.56828272989
30,104,4,571,-0.5,-0.5,0.5,3,1,0.8,3,566,1,1,566,1,0,0.6,0.8,-0.414235987373591,-0.414235987373591,750,0,0,incongruent,0.1,1926.90436696255,2465.91700802677
30,104,4,573,0.5,-0.5,0,1,NaN,0.8,1,681,1,1,681,1,0,0.6,NaN,0.472875684191901,0.472875684191901,750,0,0,neutral,1,2015.1607750174,1025.75688038268
30,104,4,574,-0.5,0.5,-0.5,2,2,0.8,2,726,1,1,726,1,0,0.8,0.8,0.820006338282746,0.820006338282746,750,1,0,congruent,0.1,2378.94732025841,6818.15506423713
30,104,4,575,-0.5,0.5,0,1,NaN,0.8,1,602,1,1,602,1,0,1,0.8,-0.136531464100915,-0.136531464100915,750,0,0,neutral,0.1,2119.80042106319,1931.93997442039
30,104,4,576,-0.5,-0.5,-0.5,2,2,0.8,2,543,1,1,543,1,0,1,0.6,-0.59165832168669,-0.59165832168669,750,1,0,congruent,0.1,1640.68142322042,1379.88191325989
30,104,4,577,-0.5,0.5,0.5,4,1,0.8,4,581,1,1,581,1,0,1,0.8,-0.29852576934331,-0.29852576934331,750,0,0,incongruent,0.1,510.230348907633,3609.28217917649
30,104,4,578,-0.5,-0.5,-0.5,3,3,0.8,3,562,1,1,562,1,0,1.2,0.8,-0.445092045515,-0.445092045515,750,1,0,congruent,0.1,1149.46108216976,1333.9767008085
30,104,4,579,0.5,0.5,-0.5,1,1,0.8,1,477,1,1,477,1,0,1,NaN,-1.10078328101993,-1.10078328101993,750,1,0,congruent,1,848.401507870124,3692.95848725611
30,104,4,580,0.5,-0.5,0,4,NaN,0.8,4,487,1,1,487,0,0,1.2,NaN,-1.02364313566641,-1.02364313566641,750,0,0,neutral,0,3069.23737301536,2533.15333304021
30,104,4,581,-0.5,-0.5,-0.5,1,1,0.8,1,633,1,1,633,0,0,1,0.8,0.102602986495,0.102602986495,750,1,0,congruent,0,3606.91845383084,1728.42202945633
30,104,4,582,0.5,-0.5,0,4,NaN,0.8,4,526,1,1,526,1,0,0.8,NaN,-0.722796568787676,-0.722796568787676,750,0,0,neutral,1,2657.09639506028,1675.99192665398
30,104,4,583,-0.5,0.5,-0.5,1,1,0.8,1,708,1,1,708,1,0,1,0.8,0.681154076646408,0.681154076646408,750,1,0,congruent,0.1,1035.18654177675,3760.26538804972
30,104,4,584,0.5,-0.5,-0.5,2,2,1,2,543,1,1,543,1,0,1,NaN,-0.59165832168669,-0.59165832168669,750,1,0,congruent,1,921.362150065832,441.700168116752
30,104,4,585,0.5,-0.5,0.5,1,4,1,1,681,1,1,681,1,0,1,NaN,0.472875684191901,0.472875684191901,750,0,0,incongruent,1,2172.15212822335,3683.77428250931
30,104,4,586,0.5,-0.5,-0.5,3,3,1,3,372,1,1,372,1,0,1.4,NaN,-1.9107548072319,-1.9107548072319,750,1,0,congruent,1,1074.85589089173,1749.23507787481
30,104,4,587,-0.5,0.5,0.5,1,4,1,1,642,1,1,642,1,0,1.8,0.8,0.172029117313169,0.172029117313169,750,0,0,incongruent,0.1,3125.74232060912,756.641718325891
30,104,4,588,0.5,-0.5,-0.5,3,3,1,3,611,1,1,611,1,0,1.6,NaN,-0.0671053332827464,-0.0671053332827464,750,1,0,congruent,1,857.387527510493,1578.16169167101
30,104,4,589,0.5,-0.5,0.5,2,4,1,1,653,0,1,NaN,1,0,1.8,NaN,0.256883277202042,NaN,750,0,1,incongruent,1,5642.32658408157,1194.36648167997
30,104,4,590,0.5,0.5,-0.5,1,1,1,1,858,1,0,858,0,0,1.8,NaN,1.83825625694923,1.83825625694923,750,1,0,congruent,0,1175.06408877145,2196.03443559059
30,104,4,591,-0.5,0.5,-0.5,4,4,0.8,2,792,0,0,NaN,0,0,1.4,1,1.32913129761599,NaN,750,0,1,congruent,0,1735.11757172241,2715.34051732385
30,104,4,592,0.5,0.5,0,3,NaN,0.6,3,487,1,1,487,1,0,1,NaN,-1.02364313566641,-1.02364313566641,750,0,0,neutral,1,499.05461775775,2287.60683496521
30,104,4,593,0.5,0.5,-0.5,2,2,0.6,2,547,1,1,547,1,0,1.2,NaN,-0.560802263545282,-0.560802263545282,750,1,0,congruent,1,10220.2998410814,7216.55970334047
30,104,4,594,-0.5,-0.5,0,4,NaN,0.6,4,581,1,1,581,0,0,1.2,0.6,-0.29852576934331,-0.29852576934331,750,0,0,neutral,0,2788.26019483621,3072.85139217743
30,104,4,595,0.5,0.5,-0.5,2,2,0.6,2,510,1,1,510,1,0,0.8,NaN,-0.84622080135331,-0.84622080135331,750,1,0,congruent,1,2831.84802248392,418.696832385287
30,104,4,596,-0.5,-0.5,0.5,1,3,0.6,1,710,1,1,710,1,0,1.2,0.4,0.696582105717113,0.696582105717113,750,0,0,incongruent,0.1,1612.32275800522,3768.853628982
30,104,4,597,-0.5,-0.5,0.5,4,2,0.6,4,674,1,1,674,1,0,1.4,0.6,0.418877582444437,0.418877582444437,750,0,0,incongruent,0.1,341.097913917245,6652.84520988405
30,104,4,598,0.5,0.5,0.5,3,1,0.6,3,508,1,1,508,1,0,1.2,NaN,-0.861648830424014,-0.861648830424014,750,0,0,incongruent,1,1189.37314517227,1724.36365784698
30,104,4,599,0.5,0.5,-0.5,4,4,0.8,4,833,1,0,833,0,0,1.2,NaN,1.64540589356542,1.64540589356542,750,1,0,congruent,0,3681.53205807547,2012.21974261939
30,104,4,600,-0.5,-0.5,0,3,NaN,0.8,3,702,1,1,702,1,0,1.2,0.6,0.634869989434296,0.634869989434296,750,0,0,neutral,0.1,1029.26726513522,4943.46408619972
