subid,vers,block,trial,rewlvl,efflvl,congruency,targetresp,distractorresp,rollingefflvl,resp,rt,acc,fast,accrt,isrewarded,ismiss,runavgrrgen,runavgrrcond,zrt,acczrt,rtthreshold,isdisterror,isranderror,congruence,feedback,fcz_resp_theta,fcz_resp_theta_baseline
31,104,1,1,-0.5,0.5,0.5,2,3,0.7,3,720,0,1,NaN,0,0,0,0,1.54103075716821,NaN,750,1,0,incongruent,0,2262.59687146626,1331.43783458352
31,104,1,2,-0.5,-0.5,0.5,1,2,0.6,2,593,0,1,NaN,0,0,0,0,0.430522228867567,NaN,750,1,0,incongruent,0,2605.31396905631,1062.39141808463
31,104,1,3,0.5,-0.5,0,4,NaN,0.6,4,544,1,1,544,0,0,0,NaN,0.00205830849960377,0.00205830849960377,750,0,0,neutral,0,2626.00848910507,267.324517603477
31,104,1,4,0.5,-0.5,0.5,1,2,0.6,1,558,1,1,558,1,0,0,NaN,0.124476571461879,0.124476571461879,750,0,0,incongruent,1,8488.2626339876,821.662957322553
31,104,1,6,-0.5,0.5,0,1,NaN,0.6,1,429,1,1,429,1,0,0.8,0,-1.00352028011908,-1.00352028011908,750,0,0,neutral,0.1,1940.29427422156,711.006991048009
31,104,1,7,0.5,-0.5,-0.5,3,3,0.6,3,502,1,1,502,1,0,1,NaN,-0.365196480387222,-0.365196480387222,750,1,0,congruent,1,445.622969805221,501.684152713625
31,104,1,8,-0.5,0.5,0,1,NaN,0.6,1,531,1,1,531,1,0,1.4,0.2,-0.111615792822509,-0.111615792822509,750,0,0,neutral,0.1,16919.3073251076,1862.33848272429
31,104,1,9,-0.5,0.5,-0.5,2,2,0.7,2,636,1,1,636,1,0,1.6,0.4,0.806521179394555,0.806521179394555,750,1,0,congruent,0.1,3038.32934955198,2345.92838580856
31,104,1,10,-0.5,-0.5,0.5,3,1,0.8,3,806,1,0,806,1,0,1.4,0,2.29302865822218,2.29302865822218,750,0,0,incongruent,0.1,2102.57783057753,2089.5253177921
31,104,1,11,-0.5,0.5,0.5,2,3,0.8,2,612,1,1,612,1,0,1.2,0.6,0.596661300030654,0.596661300030654,750,0,0,incongruent,0.1,4569.61025768178,650.085642378894
31,104,1,12,-0.5,-0.5,0,1,NaN,0.8,1,330,1,1,330,1,0,1.2,0.2,-1.86919228249517,-1.86919228249517,750,0,0,neutral,0.1,1857.89652583438,624.762712561754
31,104,1,13,-0.5,-0.5,-0.5,2,2,0.8,2,375,1,1,375,1,0,1,0.4,-1.47570500868786,-1.47570500868786,750,1,0,congruent,0.1,3704.0270858959,76.9999827413539
31,104,1,14,-0.5,-0.5,-0.5,4,4,0.8,3,339,0,1,NaN,1,0,1,0.6,-1.79049482773371,NaN,750,0,1,congruent,0.1,12949.0533951553,1085.06244492106
31,104,1,15,-0.5,-0.5,0.5,1,3,0.8,1,568,1,1,568,1,0,1,0.8,0.211918187863504,0.211918187863504,750,0,0,incongruent,0.1,1127.94510239656,1700.37552223226
31,104,1,16,0.5,-0.5,-0.5,4,4,0.8,4,772,1,0,772,1,0,1,NaN,1.99572716245666,1.99572716245666,750,1,0,congruent,1,3944.12520460819,1187.63779175419
31,104,1,17,-0.5,-0.5,0.5,3,1,0.8,3,510,1,1,510,1,0,1.2,1,-0.295243187265922,-0.295243187265922,750,0,0,incongruent,0.1,2079.1623372761,1588.95644644598
31,104,1,18,0.5,-0.5,-0.5,2,2,0.8,2,667,1,1,667,1,0,1.2,NaN,1.07759019023959,1.07759019023959,750,1,0,congruent,1,1156.95657878894,527.874917518327
31,104,1,19,0.5,-0.5,0,1,NaN,0.8,1,503,1,1,503,0,0,1.4,NaN,-0.356452318747059,-0.356452318747059,750,0,0,neutral,0,2223.52086326568,2511.35666371678
31,104,1,20,0.5,0.5,-0.5,4,4,0.8,3,519,0,1,NaN,0,0,1.2,NaN,-0.216545732504459,NaN,750,0,1,congruent,0,1947.27764504947,542.059935613667
31,104,1,21,-0.5,0.5,-0.5,1,1,0.8,1,643,1,1,643,1,0,1,0.8,0.867730310875692,0.867730310875692,750,1,0,congruent,0.1,1296.54033097375,3486.67704504376
31,104,1,22,0.5,-0.5,-0.5,2,2,0.8,2,522,1,1,522,1,0,0.8,NaN,-0.190313247583971,-0.190313247583971,750,1,0,congruent,1,1020.38835373435,227.973878965911
31,104,1,23,0.5,-0.5,-0.5,4,4,0.8,3,546,0,1,NaN,1,0,1,NaN,0.0195466317799288,NaN,750,0,1,congruent,1,2482.67320768321,1253.67549155571
31,104,1,24,0.5,-0.5,-0.5,1,1,0.8,1,457,1,1,457,1,0,1,NaN,-0.758683754194535,-0.758683754194535,750,1,0,congruent,1,5619.92738392399,1258.43227222562
31,104,1,25,-0.5,0.5,0,4,NaN,0.8,4,589,1,1,589,1,0,1.4,1,0.395545582306917,0.395545582306917,750,0,0,neutral,0.1,1664.85096764744,594.679621089393
31,104,1,26,0.5,0.5,-0.5,2,2,0.8,2,603,1,1,603,1,0,1.6,NaN,0.517963845269192,0.517963845269192,750,1,0,congruent,1,5319.03078460556,678.495744624053
31,104,1,27,0.5,-0.5,0,4,NaN,0.8,4,633,1,1,633,1,0,1.8,NaN,0.780288694474067,0.780288694474067,750,0,0,neutral,1,3238.37938826889,942.431084845585
31,104,1,28,0.5,-0.5,0.5,3,1,0.8,2,522,0,1,NaN,1,0,1.8,NaN,-0.190313247583971,NaN,750,0,1,incongruent,1,3007.54139733061,1148.88708962129
31,104,1,29,-0.5,0.5,0.5,2,3,0.8,2,637,1,1,637,1,0,1.8,1,0.815265341034717,0.815265341034717,750,0,0,incongruent,0.1,1031.49945971643,1943.55019648988
31,104,1,30,0.5,-0.5,0.5,4,1,0.8,4,851,1,0,851,0,0,1.6,NaN,2.68651593202949,2.68651593202949,750,0,0,incongruent,0,3431.07072335966,1509.94086930816
31,104,1,31,0.5,0.5,-0.5,2,2,0.8,2,591,1,1,591,1,0,1.4,NaN,0.413033905587242,0.413033905587242,750,1,0,congruent,1,1875.24759749913,2171.01246991619
31,104,1,32,-0.5,-0.5,0,3,NaN,1,3,470,1,1,470,1,0,1.4,1,-0.645009652872422,-0.645009652872422,750,0,0,neutral,0.1,2594.4140139486,830.250450457015
31,104,1,33,0.5,0.5,0.5,4,3,1,4,583,1,1,583,1,0,1.2,NaN,0.343080612465942,0.343080612465942,750,0,0,incongruent,1,1022.97244292946,227.34862572468
31,104,1,34,-0.5,-0.5,-0.5,2,2,1,2,548,1,1,548,1,0,1.2,1,0.0370349550602538,0.0370349550602538,750,1,0,congruent,0.1,4536.59910009436,1041.57043063355
31,104,1,35,0.5,-0.5,0,1,NaN,1,1,546,1,1,546,1,0,1.2,NaN,0.0195466317799288,0.0195466317799288,750,0,0,neutral,1,930.48431708656,2549.26615451816
31,104,1,36,0.5,-0.5,-0.5,2,2,1,2,391,1,1,391,1,0,1.6,NaN,-1.33579842244526,-1.33579842244526,750,1,0,congruent,1,1394.98261683823,1222.13786857553
31,104,1,37,-0.5,0.5,0.5,1,4,1,2,688,0,1,NaN,0,0,1.6,1,1.26121758468301,NaN,750,0,1,incongruent,0,2914.72668135532,674.187391635074
31,104,1,38,-0.5,0.5,0.5,4,2,0.8,3,667,0,1,NaN,0,0,1.4,0.8,1.07759019023959,NaN,750,0,1,incongruent,0,6514.16639620681,767.684686073837
31,104,1,39,-0.5,-0.5,0.5,3,4,0.6,4,570,0,1,NaN,0,0,1,1,0.229406511143829,NaN,750,1,0,incongruent,0,17049.9799799027,556.484201691171
31,104,1,40,-0.5,-0.5,0,4,NaN,0.6,4,780,1,0,780,1,0,0.8,0.8,2.06568045557796,2.06568045557796,750,0,0,neutral,0.1,599.018142877765,951.345046680062
31,104,1,41,-0.5,-0.5,0.5,2,1,0.6,1,525,0,1,NaN,0,0,0.6,0.8,-0.164080762663484,NaN,750,1,0,incongruent,0,4240.8264708694,1006.62921453887
31,104,1,42,-0.5,0.5,-0.5,4,4,0.6,4,619,1,1,619,1,0,0.2,0.6,0.657870431511792,0.657870431511792,750,1,0,congruent,0.1,7916.7296756456,1558.46321937313
31,104,1,43,0.5,-0.5,0.5,1,2,0.6,1,499,1,1,499,1,0,0.4,NaN,-0.391428965307709,-0.391428965307709,750,0,0,incongruent,1,5485.46578947276,1485.91555660017
31,104,1,44,0.5,-0.5,0,4,NaN,0.6,3,599,0,1,NaN,0,0,0.8,NaN,0.482987198708542,NaN,750,0,1,neutral,0,4754.73343646678,1140.69291707636
31,104,1,45,0.5,0.5,-0.5,3,3,0.6,4,987,0,0,NaN,0,0,0.8,NaN,3.8757219150916,NaN,750,0,1,congruent,0,6358.51310875238,1167.03580117705
31,104,1,46,0.5,-0.5,0,4,NaN,0.4,4,683,1,1,683,0,0,0.6,NaN,1.21749677648219,1.21749677648219,750,0,0,neutral,0,4153.13640029495,1180.63783391624
31,104,1,47,-0.5,-0.5,-0.5,2,2,0.4,1,494,0,1,NaN,1,0,0.6,0.6,-0.435149773508522,NaN,750,0,1,congruent,0.1,6348.02896540317,3424.97844175251
31,104,1,48,0.5,0.5,0,3,NaN,0.4,3,557,1,1,557,1,0,0.6,NaN,0.115732409821716,0.115732409821716,750,0,0,neutral,1,3733.62191500653,4075.16352912266
31,104,1,49,0.5,-0.5,-0.5,1,1,0.4,1,907,1,0,907,0,0,0.6,NaN,3.17618898387859,3.17618898387859,750,1,0,congruent,0,2786.58189540116,2656.82826007882
31,104,1,51,-0.5,0.5,0.5,2,1,0.4,2,554,1,1,554,1,0,0.6,0.6,0.0894999249012289,0.0894999249012289,750,0,0,incongruent,0.1,2677.7984199946,716.202092727047
31,104,1,52,-0.5,0.5,-0.5,4,4,0.6,4,703,1,1,703,1,0,0.8,0.6,1.39238000928544,1.39238000928544,750,1,0,congruent,0.1,2679.71655197111,706.074685128395
31,104,1,53,-0.5,-0.5,-0.5,1,1,0.8,2,379,0,1,NaN,1,0,0.8,0.6,-1.44072836212721,NaN,750,0,1,congruent,0.1,6154.3115244127,1325.61915737527
31,104,1,54,0.5,-0.5,0.5,3,4,0.8,4,648,0,1,NaN,1,0,0.6,NaN,0.911451119076505,NaN,750,1,0,incongruent,1,3217.96664309723,1311.26780094994
31,104,1,55,0.5,-0.5,-0.5,2,2,0.8,1,864,0,0,NaN,0,0,1,NaN,2.80019003335161,NaN,750,0,1,congruent,0,2171.76043632722,1217.64377250549
31,104,1,56,0.5,-0.5,-0.5,4,4,0.8,4,661,1,1,661,1,0,1,NaN,1.02512522039862,1.02512522039862,750,1,0,congruent,1,2160.2535846424,977.986627927011
31,104,1,57,-0.5,-0.5,-0.5,2,2,0.8,2,687,1,1,687,0,0,1.2,0.6,1.25247342304284,1.25247342304284,750,1,0,congruent,0,1562.93883418138,3608.21317180862
31,104,1,58,-0.5,-0.5,0.5,1,4,0.8,3,479,0,1,NaN,0,0,1,0.6,-0.566312198110959,NaN,750,0,1,incongruent,0,4951.22471629164,223.814153722312
31,104,1,59,0.5,0.5,0,2,NaN,0.8,1,556,0,1,NaN,0,0,0.8,NaN,0.106988248181554,NaN,750,0,1,neutral,0,494.958224031572,609.852059110635
31,104,1,60,0.5,-0.5,-0.5,4,4,0.6,3,567,0,1,NaN,1,0,0.4,NaN,0.203174026223341,NaN,750,0,1,congruent,1,2314.77442897796,1098.86786943856
31,104,1,61,-0.5,0.5,0,1,NaN,0.6,1,441,1,1,441,1,0,0.8,0.6,-0.898590340437135,-0.898590340437135,750,0,0,neutral,0.1,414.493298540246,996.713113555032
31,104,1,62,-0.5,0.5,-0.5,2,2,0.8,2,740,1,1,740,1,0,0.6,0.8,1.71591398997146,1.71591398997146,750,1,0,congruent,0.1,955.286632316678,925.217091959303
31,104,1,63,-0.5,0.5,-0.5,3,3,0.8,3,474,1,1,474,1,0,0.8,1,-0.610033006311772,-0.610033006311772,750,1,0,congruent,0.1,4632.35755114141,879.518643698317
31,104,1,64,-0.5,0.5,-0.5,1,1,0.8,1,838,1,0,838,0,0,1,1,2.57284183070738,2.57284183070738,750,1,0,congruent,0,1183.65323302515,2830.33608679947
31,104,1,65,-0.5,0.5,0.5,4,2,0.6,2,628,0,1,NaN,0,0,1,0.8,0.736567886273255,NaN,750,1,0,incongruent,0,3332.0710598117,1067.87959894984
31,104,1,66,-0.5,-0.5,0,2,NaN,0.6,2,640,1,1,640,1,0,0.6,0.4,0.841497825955205,0.841497825955205,750,0,0,neutral,0.1,2611.66040146859,2179.623875816
31,104,1,67,-0.5,0.5,-0.5,3,3,0.6,3,481,1,1,481,1,0,0.6,0.6,-0.548823874830634,-0.548823874830634,750,1,0,congruent,0.1,2196.56418520029,1903.11994429714
31,104,1,68,-0.5,0.5,0.5,2,1,0.6,2,653,1,1,653,1,0,0.6,0.6,0.955171927277317,0.955171927277317,750,0,0,incongruent,0.1,7986.02176964314,899.677669737157
31,104,1,69,0.5,0.5,0,3,NaN,0.6,4,663,0,1,NaN,0,0,0.6,NaN,1.04261354367894,NaN,750,0,1,neutral,0,3190.5937966994,151.962095070395
31,104,1,70,-0.5,0.5,-0.5,2,2,0.4,2,591,1,1,591,1,0,0.6,0.6,0.413033905587242,0.413033905587242,750,1,0,congruent,0.1,1504.88216740191,1403.86755521915
31,104,1,71,-0.5,-0.5,-0.5,1,1,0.6,1,351,1,1,351,1,0,0.8,0.6,-1.68556488805176,-1.68556488805176,750,1,0,congruent,0.1,4002.15692264017,844.733028836113
31,104,1,72,-0.5,0.5,0,3,NaN,0.6,3,520,1,1,520,1,0,0.8,0.6,-0.207801570864296,-0.207801570864296,750,0,0,neutral,0.1,3529.12507409097,1131.98811173181
31,104,1,73,-0.5,-0.5,-0.5,1,1,0.8,1,445,1,1,445,1,0,0.8,0.6,-0.863613693876485,-0.863613693876485,750,1,0,congruent,0.1,3931.86780130067,1367.82618799126
31,104,1,74,-0.5,0.5,0.5,3,4,0.8,3,620,1,1,620,1,0,0.8,0.8,0.666614593151954,0.666614593151954,750,0,0,incongruent,0.1,1386.22812541736,1466.07477478801
31,104,1,75,0.5,0.5,0.5,2,1,0.8,2,493,1,1,493,1,0,1,NaN,-0.443893935148684,-0.443893935148684,750,0,0,incongruent,1,3590.50936114511,1348.35947601059
31,104,1,76,0.5,0.5,0,1,NaN,0.8,1,543,1,1,543,1,0,1.2,NaN,-0.00668585314055874,-0.00668585314055874,750,0,0,neutral,1,1119.62870239631,2386.22374011558
31,104,1,77,-0.5,-0.5,0.5,3,2,1,3,372,1,1,372,1,0,1.4,0.6,-1.50193749360835,-1.50193749360835,750,0,0,incongruent,0.1,1304.53492643451,2206.35236390368
31,104,1,78,-0.5,-0.5,-0.5,1,1,1,1,523,1,1,523,1,0,1.4,0.8,-0.181569085943809,-0.181569085943809,750,1,0,congruent,0.1,2059.78656398217,1087.70719550726
31,104,1,79,0.5,0.5,-0.5,3,3,1,3,470,1,1,470,1,0,1.4,NaN,-0.645009652872422,-0.645009652872422,750,1,0,congruent,1,194.048839543767,1424.65520201513
31,104,1,80,0.5,0.5,0.5,4,2,1,4,686,1,1,686,1,0,1.6,NaN,1.24372926140268,1.24372926140268,750,0,0,incongruent,1,2923.44447635252,828.420810212981
31,104,1,81,0.5,-0.5,0,1,NaN,1,1,400,1,1,400,1,0,1.6,NaN,-1.2571009676838,-1.2571009676838,750,0,0,neutral,1,708.917399712304,723.804148019282
31,104,1,82,0.5,-0.5,0.5,4,2,1,3,496,0,1,NaN,1,0,1.6,NaN,-0.417661450228197,NaN,750,0,1,incongruent,1,11913.0252026238,785.423464219557
31,104,1,83,0.5,-0.5,-0.5,1,1,1,1,339,1,1,339,1,0,1.8,NaN,-1.79049482773371,-1.79049482773371,750,1,0,congruent,1,713.177862718651,1251.29225939645
31,104,1,84,-0.5,0.5,-0.5,2,2,1,2,532,1,1,532,1,0,2,1,-0.102871631182346,-0.102871631182346,750,1,0,congruent,0.1,764.657810948006,1355.85112637318
31,104,1,85,-0.5,-0.5,0.5,4,3,1,4,649,1,1,649,1,0,1.8,1,0.920195280716667,0.920195280716667,750,0,0,incongruent,0.1,1055.02414685538,5466.61793482589
31,104,1,86,0.5,0.5,-0.5,2,2,1,3,460,0,1,NaN,0,0,1.6,NaN,-0.732451269274047,NaN,750,0,1,congruent,0,3293.07750407586,1376.51811356794
31,104,1,87,0.5,-0.5,-0.5,1,1,0.8,1,437,1,1,437,1,0,1.2,NaN,-0.933566986997785,-0.933566986997785,750,1,0,congruent,1,2133.58389828976,346.073938241732
31,104,1,88,-0.5,-0.5,0.5,4,2,0.8,4,643,1,1,643,1,0,1.2,1,0.867730310875692,0.867730310875692,750,0,0,incongruent,0.1,6870.06639785829,1457.14297086887
31,104,1,89,0.5,-0.5,-0.5,3,3,0.8,3,681,1,1,681,1,0,1,NaN,1.20000845320187,1.20000845320187,750,1,0,congruent,1,1658.4995759614,1421.34281186953
31,104,1,90,0.5,0.5,0,1,NaN,0.8,1,521,1,1,521,1,0,1.2,NaN,-0.199057409224134,-0.199057409224134,750,0,0,neutral,1,3055.07296909168,5490.84047476123
31,104,1,91,0.5,-0.5,0.5,4,1,0.8,4,574,1,1,574,1,0,1.4,NaN,0.264383157704479,0.264383157704479,750,0,0,incongruent,1,3541.62111016161,2330.10403419527
31,104,1,92,-0.5,-0.5,0.5,2,4,0.8,2,580,1,1,580,1,0,1.8,1,0.316848127545454,0.316848127545454,750,0,0,incongruent,0.1,788.168080240111,744.562661653605
31,104,1,93,0.5,-0.5,-0.5,1,1,0.8,1,476,1,1,476,1,0,1.6,NaN,-0.592544683031447,-0.592544683031447,750,1,0,congruent,1,4091.28304328646,515.105393229116
31,104,1,94,-0.5,-0.5,0,4,NaN,0.8,2,501,0,1,NaN,1,0,1.8,1,-0.373940642027384,NaN,750,0,1,neutral,0.1,1459.64718834844,1436.04368290105
31,104,1,95,-0.5,-0.5,-0.5,3,3,0.8,3,478,1,1,478,1,0,1.6,1,-0.575056359751122,-0.575056359751122,750,1,0,congruent,0.1,1360.2236578296,461.91000984551
31,104,1,96,-0.5,0.5,0,4,NaN,0.8,4,594,1,1,594,1,0,1.4,1,0.439266390507729,0.439266390507729,750,0,0,neutral,0.1,3141.50314923727,413.858853480117
31,104,1,97,-0.5,-0.5,0.5,3,1,0.8,3,399,1,1,399,0,0,1.2,1,-1.26584512932396,-1.26584512932396,750,0,0,incongruent,0,1273.4414761316,1553.09825724865
31,104,1,98,-0.5,-0.5,0,2,NaN,0.8,2,509,1,1,509,1,0,1,0.8,-0.303987348906084,-0.303987348906084,750,0,0,neutral,0.1,651.956135720487,2056.58637807967
31,104,1,99,0.5,-0.5,-0.5,3,3,0.8,3,500,1,1,500,0,0,0.8,NaN,-0.382684803667547,-0.382684803667547,750,1,0,congruent,0,3290.10257598494,642.022777130016
31,104,1,100,-0.5,-0.5,-0.5,4,4,0.8,4,697,1,1,697,1,0,0.6,0.8,1.33991503944447,1.33991503944447,750,1,0,congruent,0.1,1193.63502285441,839.940748885651
31,104,1,101,0.5,-0.5,0,2,NaN,0.8,2,710,1,1,710,1,0,0.6,NaN,1.45358914076658,1.45358914076658,750,0,0,neutral,1,944.884691693412,1273.47883394765
31,104,1,102,0.5,0.5,-0.5,4,4,0.8,4,509,1,1,509,1,0,0.8,NaN,-0.303987348906084,-0.303987348906084,750,1,0,congruent,1,2079.96734834606,1243.02896387796
31,104,1,103,0.5,0.5,0.5,3,1,0.8,3,475,1,1,475,1,0,1.2,NaN,-0.601288844671609,-0.601288844671609,750,0,0,incongruent,1,604.761806174587,661.077102700749
31,104,1,105,0.5,0.5,0.5,2,1,0.8,1,652,0,1,NaN,0,0,1.4,NaN,0.946427765637155,NaN,750,1,0,incongruent,0,3403.6495211245,629.421973497695
31,104,1,106,0.5,-0.5,-0.5,3,3,0.8,3,694,1,1,694,0,0,1.2,NaN,1.31368255452398,1.31368255452398,750,1,0,congruent,0,1839.05821317359,963.714205518369
31,104,1,107,-0.5,-0.5,0,1,NaN,0.8,1,465,1,1,465,0,0,0.8,0.6,-0.688730461073235,-0.688730461073235,750,0,0,neutral,0,2115.81849156104,2854.78570784361
31,104,1,108,0.5,0.5,0.5,3,1,0.8,2,504,0,1,NaN,0,0,0.4,NaN,-0.347708157106897,NaN,750,0,1,incongruent,0,1948.80512762847,592.940459342449
31,104,1,109,0.5,0.5,0.5,1,2,0.6,1,649,1,1,649,1,0,0,NaN,0.920195280716667,0.920195280716667,750,0,0,incongruent,1,1972.04219801436,586.221635103974
31,104,1,110,-0.5,0.5,0,3,NaN,0.6,3,623,1,1,623,1,0,0.4,1,0.692847078072442,0.692847078072442,750,0,0,neutral,0.1,5040.59164564631,161.678319760188
31,104,1,111,-0.5,-0.5,-0.5,1,1,0.6,1,390,1,1,390,0,0,0.6,0.4,-1.34454258408542,-1.34454258408542,750,1,0,congruent,0,791.936448476241,1701.60790279713
31,104,1,112,-0.5,-0.5,0,4,NaN,0.6,4,618,1,1,618,0,0,0.6,0.4,0.649126269871629,0.649126269871629,750,0,0,neutral,0,1580.04130633959,930.240489819155
31,104,1,113,-0.5,0.5,-0.5,2,2,0.6,2,731,1,1,731,1,0,0.6,1,1.63721653520999,1.63721653520999,750,1,0,congruent,0.1,1621.52532280347,677.430466451426
31,104,1,114,0.5,0.5,0,4,NaN,0.6,2,649,0,1,NaN,0,0,0.8,NaN,0.920195280716667,NaN,750,0,1,neutral,0,5519.04393962351,1087.99852989815
31,104,1,115,-0.5,0.5,-0.5,1,1,0.6,1,334,1,1,334,1,0,0.4,1,-1.83421563593452,-1.83421563593452,750,1,0,congruent,0.1,2297.29442649251,2865.86622352644
31,104,1,116,-0.5,-0.5,-0.5,3,3,0.8,3,610,1,1,610,0,0,0.4,0.2,0.579172976750329,0.579172976750329,750,1,0,congruent,0,5714.74549452799,645.020510564709
31,104,1,117,-0.5,-0.5,-0.5,1,1,0.8,2,592,0,1,NaN,0,0,0.4,0,0.421778067227404,NaN,750,0,1,congruent,0,2249.97637956,635.213438585323
31,104,1,118,0.5,0.5,0.5,3,4,0.8,3,811,1,0,811,0,0,0.4,NaN,2.33674946642299,2.33674946642299,750,0,0,incongruent,0,2121.10255091505,3227.65857183697
31,104,1,119,0.5,0.5,-0.5,2,2,0.6,2,493,1,1,493,1,0,0.2,NaN,-0.443893935148684,-0.443893935148684,750,1,0,congruent,1,908.489713272373,1380.85354385946
31,104,1,120,-0.5,-0.5,0,3,NaN,0.6,3,722,1,1,722,0,0,0.6,0,1.55851908044853,1.55851908044853,750,0,0,neutral,0,3761.91284791053,1528.61373651329
31,104,1,121,-0.5,0.5,0.5,2,4,0.6,2,543,1,1,543,1,0,0.4,1,-0.00668585314055874,-0.00668585314055874,750,0,0,incongruent,0.1,1605.16394492509,578.85919092019
31,104,1,122,0.5,0.5,-0.5,1,1,0.6,1,537,1,1,537,1,0,0.6,NaN,-0.0591508229815338,-0.0591508229815338,750,1,0,congruent,1,1119.95820156045,1262.44062896889
31,104,1,123,0.5,-0.5,-0.5,3,3,0.8,3,526,1,1,526,1,0,1,NaN,-0.155336601023321,-0.155336601023321,750,1,0,congruent,1,1664.17822454551,333.929867395606
31,104,1,124,-0.5,-0.5,0,2,NaN,0.8,2,643,1,1,643,0,0,1.4,0,0.867730310875692,0.867730310875692,750,0,0,neutral,0,1476.52434278374,1995.2053755272
31,104,1,125,0.5,0.5,-0.5,4,4,0.8,3,692,0,1,NaN,0,0,1,NaN,1.29619423124366,NaN,750,0,1,congruent,0,8860.81938911324,1872.49370651054
31,104,1,126,-0.5,-0.5,-0.5,1,1,0.6,1,479,1,1,479,0,0,1,0,-0.566312198110959,-0.566312198110959,750,1,0,congruent,0,4119.29075315544,476.906214522437
31,104,1,127,0.5,-0.5,0,4,NaN,0.6,4,578,1,1,578,1,0,0.8,NaN,0.299359804265129,0.299359804265129,750,0,0,neutral,1,925.496683719201,996.094207960235
31,104,1,128,0.5,-0.5,-0.5,1,1,0.6,1,494,1,1,494,1,0,0.8,NaN,-0.435149773508522,-0.435149773508522,750,1,0,congruent,1,2967.86424991104,700.61164866094
31,104,1,129,-0.5,0.5,0,2,NaN,0.6,2,494,1,1,494,1,0,0.8,1,-0.435149773508522,-0.435149773508522,750,0,0,neutral,0.1,3580.93632038518,1520.21757572743
31,104,1,130,-0.5,-0.5,0.5,4,3,0.8,4,519,1,1,519,1,0,1,0,-0.216545732504459,-0.216545732504459,750,0,0,incongruent,0.1,3006.63284282948,2077.43573752476
31,104,1,131,0.5,0.5,0,1,NaN,0.8,1,596,1,1,596,1,0,1.2,NaN,0.456754713788054,0.456754713788054,750,0,0,neutral,1,3072.30846354958,587.999772944627
31,104,1,132,-0.5,0.5,0.5,3,2,0.8,3,494,1,1,494,1,0,1.6,1,-0.435149773508522,-0.435149773508522,750,0,0,incongruent,0.1,3611.31666259723,1100.97639729165
31,104,1,133,0.5,-0.5,-0.5,4,4,0.8,2,545,0,1,NaN,0,0,1.4,NaN,0.0108024701397663,NaN,750,0,1,congruent,0,2104.39980827064,562.184653298174
31,104,1,134,-0.5,-0.5,0,1,NaN,0.8,1,305,1,1,305,1,0,1,0.2,-2.08779632349924,-2.08779632349924,750,0,0,neutral,0.1,391.717981311546,4752.35253853666
31,104,1,135,0.5,0.5,-0.5,4,4,0.8,4,600,1,1,600,1,0,1,NaN,0.491731360348704,0.491731360348704,750,1,0,congruent,1,2936.34061629386,2284.92169544885
31,104,1,136,0.5,-0.5,0.5,2,3,0.8,2,781,1,0,781,1,0,1.2,NaN,2.07442461721812,2.07442461721812,750,0,0,incongruent,1,1757.12405281417,2280.7094538135
31,104,1,137,0.5,0.5,-0.5,1,1,0.8,1,556,1,1,556,1,0,1.2,NaN,0.106988248181554,0.106988248181554,750,1,0,congruent,1,1070.56670432073,528.031525553593
31,104,1,138,0.5,-0.5,0.5,3,2,1,3,665,1,1,665,1,0,1.4,NaN,1.06010186695927,1.06010186695927,750,0,0,incongruent,1,663.580135340669,1086.96230446646
31,104,1,139,-0.5,0.5,0,2,NaN,1,2,605,1,1,605,1,0,1.8,1,0.535452168549517,0.535452168549517,750,0,0,neutral,0.1,938.525005304001,1098.31915238331
31,104,1,140,0.5,-0.5,0.5,4,3,1,3,713,0,1,NaN,1,0,1.8,NaN,1.47982162568707,NaN,750,1,0,incongruent,1,3277.44911998756,2160.94356699821
31,104,1,141,-0.5,-0.5,0,3,NaN,1,4,702,0,1,NaN,1,0,1.8,0.4,1.38363584764528,NaN,750,0,1,neutral,0.1,1809.78035855208,1040.17098642014
31,104,1,142,0.5,-0.5,0.5,4,1,1,4,740,1,1,740,1,0,1.6,NaN,1.71591398997146,1.71591398997146,750,0,0,incongruent,1,881.61929531231,590.723317062975
31,104,1,143,0.5,0.5,0,1,NaN,1,1,577,1,1,577,1,0,1.6,NaN,0.290615642624967,0.290615642624967,750,0,0,neutral,1,3084.916569089,1465.60526127507
31,104,1,144,0.5,0.5,-0.5,3,3,1,4,638,0,1,NaN,0,0,1.6,NaN,0.82400950267488,NaN,750,0,1,congruent,0,2092.79545916619,473.173283645424
31,104,1,145,-0.5,-0.5,0.5,4,1,0.8,4,668,1,1,668,1,0,1.4,0.6,1.08633435187976,1.08633435187976,750,0,0,incongruent,0.1,1668.7249723372,2273.44700184636
31,104,1,146,-0.5,-0.5,0,3,NaN,0.8,3,617,1,1,617,1,0,1.2,0.8,0.640382108231467,0.640382108231467,750,0,0,neutral,0.1,1390.1916733379,536.662268709577
31,104,1,147,-0.5,-0.5,0.5,1,4,0.8,1,849,1,0,849,1,0,1.2,1,2.66902760874917,2.66902760874917,750,0,0,incongruent,0.1,3160.34844653509,2453.39211512072
31,104,1,148,0.5,-0.5,-0.5,2,2,0.8,2,651,1,1,651,1,0,1,NaN,0.937683603996992,0.937683603996992,750,1,0,congruent,1,1966.0497320708,3509.81773966427
31,104,1,149,-0.5,0.5,-0.5,4,4,0.8,4,473,1,1,473,1,0,1,1,-0.618777167951934,-0.618777167951934,750,1,0,congruent,0.1,1497.53003516307,923.796444845944
31,104,1,150,-0.5,0.5,0.5,1,3,0.8,2,635,0,1,NaN,0,0,1.2,1,0.797777017754392,NaN,750,0,1,incongruent,0,6634.32720233288,207.396994987816
31,104,2,151,-0.5,0.5,0.5,3,4,0.6,3,877,1,0,877,0,0,1,0.8,2.91386413467372,2.91386413467372,750,0,0,incongruent,0,1345.8912910628,1188.95639670375
31,104,2,152,-0.5,0.5,-0.5,2,2,0.4,2,847,1,0,847,0,0,0.8,0.6,2.65153928546884,2.65153928546884,750,1,0,congruent,0,2931.21818718979,489.458086941043
31,104,2,153,0.5,0.5,-0.5,1,1,0.2,1,345,1,1,345,1,0,0.6,NaN,-1.73802985789274,-1.73802985789274,750,1,0,congruent,1,4073.15410342161,617.373365942277
31,104,2,154,0.5,-0.5,0,4,NaN,0.4,4,828,1,0,828,1,0,0.6,NaN,2.48540021430576,2.48540021430576,750,0,0,neutral,1,1162.36295930632,1428.98652792887
31,104,2,155,0.5,0.5,0.5,2,1,0.4,2,728,1,1,728,1,0,0.8,NaN,1.61098405028951,1.61098405028951,750,0,0,incongruent,1,1190.38278275775,1853.84967155999
31,104,2,156,-0.5,0.5,0,4,NaN,0.4,4,832,1,0,832,0,0,1.2,0.4,2.52037686086641,2.52037686086641,750,0,0,neutral,0,1260.6030334685,2669.1344336246
31,104,2,157,0.5,-0.5,-0.5,2,2,0.4,2,700,1,1,700,0,0,1.2,NaN,1.36614752436496,1.36614752436496,750,1,0,congruent,0,2865.80582839272,1161.2826560829
31,104,2,158,-0.5,0.5,0.5,1,3,0.4,1,439,1,1,439,1,0,1.2,0.2,-0.91607866371746,-0.91607866371746,750,0,0,incongruent,0.1,1542.34701084569,946.680385390436
31,104,2,159,0.5,0.5,0.5,3,4,0.6,3,641,1,1,641,1,0,1,NaN,0.850241987595367,0.850241987595367,750,0,0,incongruent,1,3240.74228772259,1468.6488443521
31,104,2,160,-0.5,-0.5,0,4,NaN,0.8,4,600,1,1,600,1,0,1,1,0.491731360348704,0.491731360348704,750,0,0,neutral,0.1,1645.77198549927,3041.17090279516
31,104,2,161,0.5,-0.5,-0.5,2,2,0.8,2,574,1,1,574,1,0,0.8,NaN,0.264383157704479,0.264383157704479,750,1,0,congruent,1,1672.55165762616,1130.93102173045
31,104,2,162,-0.5,0.5,0,1,NaN,0.8,1,492,1,1,492,1,0,1.2,0.2,-0.452638096788847,-0.452638096788847,750,0,0,neutral,0.1,1183.09107463591,1476.03159980167
31,104,2,163,0.5,-0.5,-0.5,4,4,0.8,4,533,1,1,533,1,0,1.4,NaN,-0.0941274695421838,-0.0941274695421838,750,1,0,congruent,1,3769.90054851748,2597.62783775023
31,104,2,164,-0.5,-0.5,0.5,3,1,0.8,3,677,1,1,677,0,0,1.6,1,1.16503180664122,1.16503180664122,750,0,0,incongruent,0,2946.90735047834,2500.75304585988
31,104,2,165,-0.5,0.5,-0.5,4,4,0.8,4,416,1,1,416,1,0,1.2,0.4,-1.1171943814412,-1.1171943814412,750,1,0,congruent,0.1,1125.58864027217,591.093111318204
31,104,2,166,-0.5,0.5,0.5,1,3,0.8,1,642,1,1,642,1,0,1.2,0.6,0.85898614923553,0.85898614923553,750,0,0,incongruent,0.1,3463.22461402591,516.039247339672
31,104,2,167,-0.5,-0.5,0,3,NaN,1,3,548,1,1,548,1,0,1,0.8,0.0370349550602538,0.0370349550602538,750,0,0,neutral,0.1,3347.48030518411,1004.40836438776
31,104,2,168,-0.5,0.5,-0.5,4,4,1,4,464,1,1,464,1,0,1,0.8,-0.697474622713397,-0.697474622713397,750,1,0,congruent,0.1,1154.83798942544,1460.00530140294
31,104,2,169,-0.5,0.5,0.5,2,3,1,2,569,1,1,569,1,0,0.8,1,0.220662349503667,0.220662349503667,750,0,0,incongruent,0.1,1812.15885521996,703.989701298411
31,104,2,170,-0.5,-0.5,0,1,NaN,1,1,425,1,1,425,1,0,1,0.8,-1.03849692667974,-1.03849692667974,750,0,0,neutral,0.1,2782.46702723929,882.724456213193
31,104,2,171,-0.5,0.5,-0.5,4,4,1,4,511,1,1,511,1,0,1,1,-0.286499025625759,-0.286499025625759,750,1,0,congruent,0.1,3283.58076735998,302.539225702896
31,104,2,172,-0.5,-0.5,0,1,NaN,1,1,443,1,1,443,1,0,1,0.8,-0.88110201715681,-0.88110201715681,750,0,0,neutral,0.1,1437.40320939785,2023.4856751784
31,104,2,173,0.5,0.5,-0.5,2,2,1,3,531,0,1,NaN,0,0,1,NaN,-0.111615792822509,NaN,750,0,1,congruent,0,1769.60324083002,1499.91332743541
31,104,2,174,0.5,-0.5,-0.5,1,1,0.8,1,290,1,1,290,1,0,0.8,NaN,-2.21895874810167,-2.21895874810167,750,1,0,congruent,1,1011.17495603271,1581.06406278902
31,104,2,175,0.5,0.5,0,2,NaN,0.8,2,486,1,1,486,1,0,1,NaN,-0.505103066629822,-0.505103066629822,750,0,0,neutral,1,2963.56507439966,1696.79801393986
31,104,2,176,-0.5,0.5,0.5,3,1,0.8,3,500,1,1,500,1,0,1.2,1,-0.382684803667547,-0.382684803667547,750,0,0,incongruent,0.1,2262.82769206438,1694.6806115301
31,104,2,177,0.5,-0.5,0.5,4,2,0.8,4,538,1,1,538,1,0,1.2,NaN,-0.0504066613413713,-0.0504066613413713,750,0,0,incongruent,1,452.172203137486,3781.13482318578
31,104,2,178,0.5,-0.5,0.5,2,1,0.8,1,445,0,1,NaN,1,0,1.4,NaN,-0.863613693876485,NaN,750,1,0,incongruent,1,2837.77539982167,2012.08460921689
31,104,2,179,0.5,0.5,-0.5,4,4,0.8,3,588,0,1,NaN,0,0,1.8,NaN,0.386801420666754,NaN,750,0,1,congruent,0,374.935259676621,302.520017584176
31,104,2,180,-0.5,-0.5,0,2,NaN,0.6,2,625,1,1,625,1,0,1.4,0.8,0.710335401352767,0.710335401352767,750,0,0,neutral,0.1,2172.35321013856,1767.85285000093
31,104,2,181,0.5,0.5,-0.5,3,3,0.6,3,571,1,1,571,1,0,1.2,NaN,0.238150672783992,0.238150672783992,750,1,0,congruent,1,667.771585583969,382.995676858792
31,104,2,182,-0.5,0.5,-0.5,4,4,0.6,4,394,1,1,394,1,0,1.4,1,-1.30956593752477,-1.30956593752477,750,1,0,congruent,0.1,1521.44005281953,2555.96594429691
31,104,2,183,0.5,-0.5,0.5,1,3,0.8,2,708,0,1,NaN,0,0,1.2,NaN,1.43610081748626,NaN,750,0,1,incongruent,0,2673.60567938169,2502.01583059711
31,104,2,184,-0.5,0.5,0.5,3,4,0.8,3,771,1,0,771,0,0,0.8,1,1.98698300081649,1.98698300081649,750,0,0,incongruent,0,2427.30153098476,1082.63947328744
31,104,2,185,-0.5,-0.5,-0.5,2,2,0.6,2,478,1,1,478,1,0,0.8,0.8,-0.575056359751122,-0.575056359751122,750,1,0,congruent,0.1,1903.45095745965,750.032813148602
31,104,2,186,0.5,0.5,0,3,NaN,0.6,3,639,1,1,639,1,0,0.8,NaN,0.832753664315042,0.832753664315042,750,0,0,neutral,1,3407.50581701099,616.789364730354
31,104,2,187,0.5,0.5,-0.5,4,4,0.6,4,629,1,1,629,1,0,0.8,NaN,0.745312047913417,0.745312047913417,750,1,0,congruent,1,1445.36275886753,418.914219246335
31,104,2,188,0.5,0.5,0,3,NaN,0.8,3,464,1,1,464,1,0,1,NaN,-0.697474622713397,-0.697474622713397,750,0,0,neutral,1,1859.5316452449,831.190725522951
31,104,2,189,-0.5,0.5,0.5,1,4,0.8,1,400,1,1,400,1,0,1.4,0.8,-1.2571009676838,-1.2571009676838,750,0,0,incongruent,0.1,1760.69235494061,1121.10449963377
31,104,2,190,-0.5,-0.5,0,4,NaN,0.8,2,423,0,1,NaN,1,0,1.6,1,-1.05598524996006,NaN,750,0,1,neutral,0.1,3476.37276684546,287.08086076091
31,104,2,191,-0.5,0.5,0.5,3,2,0.8,3,540,1,1,540,1,0,1.6,0.8,-0.0329183380610463,-0.0329183380610463,750,0,0,incongruent,0.1,478.524532762265,1131.97112524336
31,104,2,192,0.5,-0.5,0,2,NaN,1,2,617,1,1,617,1,0,1.4,NaN,0.640382108231467,0.640382108231467,750,0,0,neutral,1,3281.7590610459,1452.79406416657
31,104,2,193,0.5,-0.5,-0.5,1,1,1,1,614,1,1,614,1,0,1.4,NaN,0.614149623310979,0.614149623310979,750,1,0,congruent,1,1768.45220741217,671.605088212508
31,104,2,194,-0.5,0.5,0,3,NaN,1,3,497,1,1,497,1,0,1.4,0.8,-0.408917288588034,-0.408917288588034,750,0,0,neutral,0.1,2716.45851868487,274.018838896053
31,104,2,195,-0.5,0.5,0.5,1,2,1,1,660,1,1,660,1,0,1.4,0.8,1.01638105875845,1.01638105875845,750,0,0,incongruent,0.1,1855.2712670195,1280.88097046193
31,104,2,196,0.5,0.5,0,4,NaN,1,4,580,1,1,580,1,0,1.4,NaN,0.316848127545454,0.316848127545454,750,0,0,neutral,1,2691.76607425362,838.024922013985
31,104,2,197,-0.5,-0.5,-0.5,3,3,1,3,384,1,1,384,1,0,1.6,1,-1.3970075539264,-1.3970075539264,750,1,0,congruent,0.1,2147.475076439,643.307340212328
31,104,2,198,-0.5,0.5,0,1,NaN,1,2,787,0,0,NaN,0,0,1.4,0.8,2.12688958705909,NaN,750,0,1,neutral,0,3657.30730083717,1874.54386582913
31,104,2,199,-0.5,0.5,-0.5,3,3,0.8,3,741,1,1,741,1,0,1,0.8,1.72465815161162,1.72465815161162,750,1,0,congruent,0.1,988.569800489187,908.277398646073
31,104,2,200,-0.5,0.5,-0.5,2,2,0.8,2,548,1,1,548,1,0,1,0.8,0.0370349550602538,0.0370349550602538,750,1,0,congruent,0.1,2021.44056936148,1492.08376257898
31,104,2,201,-0.5,0.5,0,4,NaN,0.8,4,635,1,1,635,1,0,1,0.8,0.797777017754392,0.797777017754392,750,0,0,neutral,0.1,887.59174107645,1306.42208768994
31,104,2,202,-0.5,-0.5,0.5,3,2,0.8,3,412,1,1,412,1,0,0.8,1,-1.15217102800185,-1.15217102800185,750,0,0,incongruent,0.1,1893.20338224499,1044.91166875685
31,104,2,203,-0.5,-0.5,0,1,NaN,0.8,1,453,1,1,453,1,0,0.8,1,-0.793660400755185,-0.793660400755185,750,0,0,neutral,0.1,2274.88532068153,1119.33900472584
31,104,2,204,0.5,-0.5,-0.5,2,2,0.8,2,470,1,1,470,1,0,1,NaN,-0.645009652872422,-0.645009652872422,750,1,0,congruent,1,2455.40562806845,4343.21398009118
31,104,2,205,-0.5,-0.5,0,1,NaN,0.8,1,478,1,1,478,1,0,1.2,1,-0.575056359751122,-0.575056359751122,750,0,0,neutral,0.1,5180.3029518385,1248.92317414832
31,104,2,206,-0.5,0.5,-0.5,4,4,0.8,4,426,1,1,426,1,0,1.2,0.8,-1.02975276503957,-1.02975276503957,750,1,0,congruent,0.1,3084.10202177701,413.093900515233
31,104,2,207,-0.5,-0.5,-0.5,2,2,0.8,2,457,1,1,457,1,0,1.2,1,-0.758683754194535,-0.758683754194535,750,1,0,congruent,0.1,1167.98870057513,428.680998400814
31,104,2,208,-0.5,0.5,-0.5,4,4,0.8,3,390,0,1,NaN,0,0,1.2,0.8,-1.34454258408542,NaN,750,0,1,congruent,0,4870.37994929992,1205.36908835145
31,104,2,209,-0.5,-0.5,0.5,2,3,0.8,2,870,1,0,870,1,0,1,1,2.85265500319258,2.85265500319258,750,0,0,incongruent,0.1,2436.82771185176,3474.4099054464
31,104,2,210,-0.5,-0.5,0,1,NaN,0.8,1,577,1,1,577,1,0,0.8,1,0.290615642624967,0.290615642624967,750,0,0,neutral,0.1,886.405235936346,912.570050608477
31,104,2,211,-0.5,-0.5,-0.5,4,4,0.8,4,603,1,1,603,1,0,0.8,1,0.517963845269192,0.517963845269192,750,1,0,congruent,0.1,3252.46729730123,1458.75760942345
31,104,2,212,-0.5,-0.5,-0.5,3,3,0.8,3,525,1,1,525,1,0,0.8,1,-0.164080762663484,-0.164080762663484,750,1,0,congruent,0.1,1966.52211969315,357.172116734598
31,104,2,213,0.5,0.5,-0.5,2,2,0.8,2,572,1,1,572,1,0,0.8,NaN,0.246894834424154,0.246894834424154,750,1,0,congruent,1,1900.28196925028,1975.19808451254
31,104,2,214,-0.5,0.5,-0.5,4,4,0.8,4,636,1,1,636,1,0,1.2,0.8,0.806521179394555,0.806521179394555,750,1,0,congruent,0.1,387.518053553036,959.837234744828
31,104,2,215,0.5,-0.5,-0.5,2,2,0.8,2,423,1,1,423,1,0,1.2,NaN,-1.05598524996006,-1.05598524996006,750,1,0,congruent,1,965.171804194077,1089.8982525201
31,104,2,216,-0.5,-0.5,-0.5,4,4,0.8,4,529,1,1,529,0,0,1.4,1,-0.129104116102834,-0.129104116102834,750,1,0,congruent,0,3576.24111414551,1809.187767228
31,104,2,217,0.5,-0.5,0,1,NaN,0.8,1,398,1,1,398,1,0,1.2,NaN,-1.27458929096412,-1.27458929096412,750,0,0,neutral,1,744.039802472144,944.260116303652
31,104,2,218,-0.5,0.5,-0.5,3,3,0.8,3,467,1,1,467,1,0,1.4,0.8,-0.67124213779291,-0.67124213779291,750,1,0,congruent,0.1,3861.38723565862,687.083010988164
31,104,2,219,-0.5,-0.5,0,1,NaN,0.8,2,375,0,1,NaN,1,0,1.2,0.8,-1.47570500868786,NaN,750,0,1,neutral,0.1,3360.70932592602,1492.17668019158
31,104,2,220,-0.5,-0.5,-0.5,4,4,0.8,3,502,0,1,NaN,1,0,1.2,0.8,-0.365196480387222,NaN,750,0,1,congruent,0.1,2094.40972089912,779.300644723673
31,104,2,221,-0.5,0.5,0,2,NaN,0.8,2,429,1,1,429,1,0,1,0.8,-1.00352028011908,-1.00352028011908,750,0,0,neutral,0.1,1097.65209670306,904.101037231154
31,104,2,222,0.5,-0.5,-0.5,1,1,0.8,1,626,1,1,626,1,0,1.2,NaN,0.71907956299293,0.71907956299293,750,1,0,congruent,1,924.056489216862,1731.06657436921
31,104,2,223,0.5,-0.5,0.5,4,2,0.8,4,515,1,1,515,1,0,1.2,NaN,-0.251522379065109,-0.251522379065109,750,0,0,incongruent,1,2575.70219603619,2859.30480364031
31,104,2,224,0.5,0.5,0,1,NaN,0.8,1,434,1,1,434,1,0,1.4,NaN,-0.959799471918272,-0.959799471918272,750,0,0,neutral,1,1930.52633755015,475.865601579661
31,104,2,225,-0.5,0.5,-0.5,3,3,1,2,656,0,1,NaN,0,0,1.6,0.8,0.981404412197805,NaN,750,0,1,congruent,0,6184.01381620809,598.443339001255
31,104,2,226,-0.5,0.5,0.5,2,4,0.8,2,644,1,1,644,1,0,1.4,0.6,0.876474472515855,0.876474472515855,750,0,0,incongruent,0.1,1120.62417230936,1386.53682784863
31,104,2,227,0.5,-0.5,-0.5,3,3,0.8,3,526,1,1,526,1,0,1.4,NaN,-0.155336601023321,-0.155336601023321,750,1,0,congruent,1,2542.56724781871,1633.17169374982
31,104,2,228,0.5,0.5,-0.5,1,1,0.8,1,324,1,1,324,1,0,1.4,NaN,-1.92165725233615,-1.92165725233615,750,1,0,congruent,1,1045.07217937249,555.537947515894
31,104,2,229,-0.5,0.5,-0.5,2,2,0.8,2,469,1,1,469,1,0,1.4,0.8,-0.653753814512585,-0.653753814512585,750,1,0,congruent,0.1,1601.12506139619,784.688712001917
31,104,2,230,-0.5,0.5,0,1,NaN,0.8,1,442,1,1,442,1,0,1.2,0.8,-0.889846178796972,-0.889846178796972,750,0,0,neutral,0.1,1916.53699398362,238.677972036624
31,104,2,231,-0.5,0.5,0.5,2,4,0.8,2,441,1,1,441,1,0,1.4,0.8,-0.898590340437135,-0.898590340437135,750,0,0,incongruent,0.1,1620.69387198882,1670.35680291506
31,104,2,232,-0.5,-0.5,0,1,NaN,1,1,435,1,1,435,1,0,1.4,0.8,-0.95105531027811,-0.95105531027811,750,0,0,neutral,0.1,1573.89565720148,1587.86885866637
31,104,2,233,0.5,0.5,-0.5,3,3,1,3,450,1,1,450,1,0,1.2,NaN,-0.819892885675672,-0.819892885675672,750,1,0,congruent,1,1507.37306832267,2195.21972123265
31,104,2,234,-0.5,-0.5,0,1,NaN,1,1,449,1,1,449,1,0,1.2,0.8,-0.828637047315835,-0.828637047315835,750,0,0,neutral,0.1,2755.24073352971,1502.46130439238
31,104,2,235,-0.5,-0.5,-0.5,2,2,1,2,619,1,1,619,1,0,1.2,0.8,0.657870431511792,0.657870431511792,750,1,0,congruent,0.1,928.78111164612,2112.05094877673
31,104,2,236,0.5,-0.5,0,4,NaN,1,4,353,1,1,353,1,0,1.2,NaN,-1.66807656477144,-1.66807656477144,750,0,0,neutral,1,2754.17996222696,1140.2494341727
31,104,2,237,0.5,-0.5,-0.5,2,2,1,2,514,1,1,514,1,0,1.4,NaN,-0.260266540705272,-0.260266540705272,750,1,0,congruent,1,1692.40186301068,451.620670471581
31,104,2,238,-0.5,-0.5,-0.5,3,3,1,3,477,1,1,477,1,0,1.6,1,-0.583800521391284,-0.583800521391284,750,1,0,congruent,0.1,2566.36205533207,1549.47116562319
31,104,2,239,-0.5,-0.5,0.5,2,1,1,2,505,1,1,505,1,0,1.4,1,-0.338963995466734,-0.338963995466734,750,0,0,incongruent,0.1,2733.72683185766,2445.21259938806
31,104,2,240,-0.5,0.5,0,1,NaN,1,1,533,1,1,533,1,0,1.4,0.8,-0.0941274695421838,-0.0941274695421838,750,0,0,neutral,0.1,853.19824030318,1497.51495298138
31,104,2,241,-0.5,-0.5,-0.5,4,4,1,3,575,0,1,NaN,1,0,1.4,1,0.273127319344642,NaN,750,0,1,congruent,0.1,2214.29462095489,3049.75022054514
31,104,2,242,0.5,0.5,-0.5,1,1,1,1,534,1,1,534,1,0,1.2,NaN,-0.0853833079020213,-0.0853833079020213,750,1,0,congruent,1,1847.61582304783,1053.89088041605
31,104,2,243,0.5,-0.5,0.5,4,3,1,4,558,1,1,558,1,0,1.2,NaN,0.124476571461879,0.124476571461879,750,0,0,incongruent,1,12674.7317182073,1683.1420372346
31,104,2,244,-0.5,-0.5,-0.5,2,2,1,2,556,1,1,556,1,0,1.4,1,0.106988248181554,0.106988248181554,750,1,0,congruent,0.1,1766.78771421844,1678.74152426151
31,104,2,245,0.5,-0.5,-0.5,4,4,1,4,592,1,1,592,1,0,1.4,NaN,0.421778067227404,0.421778067227404,750,1,0,congruent,1,1746.79510221773,757.293433244871
31,104,2,246,0.5,0.5,-0.5,3,3,1,3,487,1,1,487,1,0,1.6,NaN,-0.496358904989659,-0.496358904989659,750,1,0,congruent,1,864.319890143854,1091.12468162948
31,104,2,247,-0.5,0.5,-0.5,1,1,1,1,445,1,1,445,1,0,1.8,1,-0.863613693876485,-0.863613693876485,750,1,0,congruent,0.1,2202.86490527041,1692.31710929178
31,104,2,248,0.5,-0.5,-0.5,2,2,1,2,406,1,1,406,1,0,1.6,NaN,-1.20463599784282,-1.20463599784282,750,1,0,congruent,1,1478.32281696875,699.809039618433
31,104,2,249,-0.5,-0.5,0.5,1,3,1,1,425,1,1,425,1,0,1.6,1,-1.03849692667974,-1.03849692667974,750,0,0,incongruent,0.1,1725.76887742811,1977.03868121421
31,104,2,250,-0.5,0.5,-0.5,4,4,1,4,745,1,1,745,1,0,1.6,1,1.75963479817227,1.75963479817227,750,1,0,congruent,0.1,8158.38524463895,4210.80375293425
31,104,2,251,-0.5,-0.5,-0.5,1,1,1,1,371,1,1,371,1,0,1.4,1,-1.51068165524851,-1.51068165524851,750,1,0,congruent,0.1,1866.72287322277,983.04321655319
31,104,2,252,0.5,-0.5,0,3,NaN,1,2,485,0,1,NaN,1,0,1.2,NaN,-0.513847228269984,NaN,750,0,1,neutral,1,2346.64988277462,362.623026759605
31,104,2,253,0.5,0.5,0.5,1,3,1,1,322,1,1,322,1,0,1.4,NaN,-1.93914557561647,-1.93914557561647,750,0,0,incongruent,1,11724.9592233194,935.926639895429
31,104,2,254,-0.5,0.5,0,2,NaN,1,2,499,1,1,499,1,0,1.4,1,-0.391428965307709,-0.391428965307709,750,0,0,neutral,0.1,1034.54429058161,790.888814812135
31,104,2,255,0.5,-0.5,-0.5,4,4,1,4,610,1,1,610,1,0,1.4,NaN,0.579172976750329,0.579172976750329,750,1,0,congruent,1,2749.32922386736,1076.57181408
31,104,2,256,0.5,-0.5,0.5,1,2,1,2,506,0,1,NaN,1,0,1.6,NaN,-0.330219833826572,NaN,750,1,0,incongruent,1,2916.04296431019,334.982828095995
31,104,2,257,0.5,0.5,0.5,4,1,1,4,636,1,1,636,1,0,1.8,NaN,0.806521179394555,0.806521179394555,750,0,0,incongruent,1,2705.10803098168,659.677298030535
31,104,2,258,-0.5,0.5,-0.5,2,2,1,2,498,1,1,498,1,0,1.8,1,-0.400173126947872,-0.400173126947872,750,1,0,congruent,0.1,2340.21515993983,405.355455138334
31,104,2,259,-0.5,0.5,0,3,NaN,1,3,496,1,1,496,1,0,1.6,1,-0.417661450228197,-0.417661450228197,750,0,0,neutral,0.1,4086.96513152601,1152.57328794604
31,104,2,260,-0.5,0.5,-0.5,4,4,1,4,506,1,1,506,1,0,1.6,1,-0.330219833826572,-0.330219833826572,750,1,0,congruent,0.1,2083.4414235131,367.255494166875
31,104,2,261,0.5,-0.5,-0.5,2,2,1,2,585,1,1,585,1,0,1.4,NaN,0.360568935746267,0.360568935746267,750,1,0,congruent,1,1030.1250785388,2329.80490124737
31,104,2,262,-0.5,0.5,0.5,1,3,1,1,559,1,1,559,1,0,1.4,1,0.133220733102041,0.133220733102041,750,0,0,incongruent,0.1,325.257595670494,2471.01038581685
31,104,2,263,0.5,-0.5,0,2,NaN,1,2,448,1,1,448,1,0,1.2,NaN,-0.837381208955997,-0.837381208955997,750,0,0,neutral,1,3812.98980913671,1099.74687805592
31,104,2,264,-0.5,0.5,-0.5,4,4,1,4,441,1,1,441,1,0,1.4,1,-0.898590340437135,-0.898590340437135,750,1,0,congruent,0.1,2518.81310644317,1581.89555066925
31,104,2,265,0.5,-0.5,0,1,NaN,1,1,435,1,1,435,1,0,1.4,NaN,-0.95105531027811,-0.95105531027811,750,0,0,neutral,1,1822.10164939407,469.897838005389
31,104,2,266,0.5,0.5,-0.5,3,3,1,3,482,1,1,482,1,0,1.6,NaN,-0.540079713190472,-0.540079713190472,750,1,0,congruent,1,1296.62104902184,1214.79181489897
31,104,2,267,-0.5,-0.5,0.5,1,2,1,1,470,1,1,470,1,0,1.6,1,-0.645009652872422,-0.645009652872422,750,0,0,incongruent,0.1,1208.21837842397,1406.49392511957
31,104,2,268,0.5,0.5,-0.5,3,3,1,3,584,1,1,584,1,0,1.6,NaN,0.351824774106104,0.351824774106104,750,1,0,congruent,1,2481.25771841348,744.150803524278
31,104,2,269,-0.5,-0.5,0.5,2,4,1,2,620,1,1,620,1,0,1.6,1,0.666614593151954,0.666614593151954,750,0,0,incongruent,0.1,3073.09819246679,1602.18323778396
31,104,2,270,0.5,0.5,0.5,4,3,1,4,533,1,1,533,1,0,1.6,NaN,-0.0941274695421838,-0.0941274695421838,750,0,0,incongruent,1,4521.26054764711,384.79458923618
31,104,2,271,-0.5,-0.5,0.5,1,2,1,1,448,1,1,448,1,0,1.6,1,-0.837381208955997,-0.837381208955997,750,0,0,incongruent,0.1,2785.98029190882,1469.63194656627
31,104,2,272,0.5,-0.5,0,4,NaN,1,4,577,1,1,577,1,0,1.4,NaN,0.290615642624967,0.290615642624967,750,0,0,neutral,1,2805.03689356152,319.898468611821
31,104,2,273,0.5,0.5,-0.5,2,2,1,2,504,1,1,504,1,0,1.6,NaN,-0.347708157106897,-0.347708157106897,750,1,0,congruent,1,1863.29762397399,992.702225856485
31,104,2,274,0.5,0.5,0.5,1,4,1,1,780,1,0,780,0,0,1.6,NaN,2.06568045557796,2.06568045557796,750,0,0,incongruent,0,2706.08483830399,2748.1334524568
31,104,2,275,0.5,0.5,0.5,2,1,0.8,2,484,1,1,484,1,0,1.4,NaN,-0.522591389910147,-0.522591389910147,750,0,0,incongruent,1,5333.88046525847,1415.71370894293
31,104,2,276,-0.5,0.5,0.5,1,4,0.8,2,523,0,1,NaN,0,0,1.4,1,-0.181569085943809,NaN,750,0,1,incongruent,0,1960.77381097103,283.278421279193
31,104,2,277,-0.5,0.5,0.5,3,2,0.6,3,579,1,1,579,1,0,1.2,0.8,0.308103965905292,0.308103965905292,750,0,0,incongruent,0.1,908.877258278977,285.335347555776
31,104,2,278,0.5,-0.5,-0.5,1,1,0.6,1,536,1,1,536,1,0,1,NaN,-0.0678949846216963,-0.0678949846216963,750,1,0,congruent,1,407.845881174009,521.543978094233
31,104,2,279,-0.5,-0.5,0,2,NaN,0.6,2,399,1,1,399,1,0,1,1,-1.26584512932396,-1.26584512932396,750,0,0,neutral,0.1,1262.00413506744,832.958676532053
31,104,2,280,-0.5,0.5,-0.5,4,4,0.6,4,449,1,1,449,1,0,1.2,0.8,-0.828637047315835,-0.828637047315835,750,1,0,congruent,0.1,1623.11520288092,892.955155591184
31,104,2,281,0.5,-0.5,0,2,NaN,0.6,2,542,1,1,542,1,0,1,NaN,-0.0154300147807213,-0.0154300147807213,750,0,0,neutral,1,967.059601103516,649.408848256403
31,104,2,282,0.5,0.5,-0.5,3,3,0.6,3,570,1,1,570,1,0,1.4,NaN,0.229406511143829,0.229406511143829,750,1,0,congruent,1,1473.2301354523,2935.30292746114
31,104,2,283,-0.5,-0.5,0,4,NaN,0.8,4,574,1,1,574,0,0,1.6,1,0.264383157704479,0.264383157704479,750,0,0,neutral,0,1945.4840951517,736.041628868024
31,104,2,285,0.5,0.5,0.5,1,4,0.6,1,588,1,1,588,1,0,1,NaN,0.386801420666754,0.386801420666754,750,0,0,incongruent,1,621.932174439633,2537.41092721482
31,104,2,286,0.5,-0.5,0.5,2,1,0.8,2,485,1,1,485,1,0,1.2,NaN,-0.513847228269984,-0.513847228269984,750,0,0,incongruent,1,1187.50206084226,1730.77507062677
31,104,2,287,0.5,-0.5,-0.5,4,4,0.8,4,641,1,1,641,0,0,1.2,NaN,0.850241987595367,0.850241987595367,750,1,0,congruent,0,879.377952147326,738.425971805328
31,104,2,288,0.5,-0.5,-0.5,2,2,0.8,2,508,1,1,508,1,0,0.8,NaN,-0.312731510546247,-0.312731510546247,750,1,0,congruent,1,1266.80001773361,581.099799809423
31,104,2,289,-0.5,0.5,0.5,1,3,0.8,1,468,1,1,468,1,0,1.2,0.6,-0.662497976152747,-0.662497976152747,750,0,0,incongruent,0.1,484.014173285799,989.183753898758
31,104,2,290,-0.5,0.5,0,2,NaN,0.8,2,450,1,1,450,1,0,1.4,0.6,-0.819892885675672,-0.819892885675672,750,0,0,neutral,0.1,1028.20387672974,1093.00978963349
31,104,2,291,0.5,0.5,0.5,3,2,0.8,3,735,1,1,735,1,0,1.2,NaN,1.67219318177064,1.67219318177064,750,0,0,incongruent,1,225.14401698772,738.534668705025
31,104,2,292,-0.5,0.5,-0.5,4,4,0.8,4,398,1,1,398,1,0,1.2,0.8,-1.27458929096412,-1.27458929096412,750,1,0,congruent,0.1,4424.76103169742,1895.53190090114
31,104,2,293,-0.5,0.5,0,2,NaN,1,2,547,1,1,547,1,0,1.4,0.8,0.0282907934200913,0.0282907934200913,750,0,0,neutral,0.1,1107.18952372816,528.574347939219
31,104,2,294,0.5,-0.5,0.5,1,2,1,1,318,1,1,318,1,0,1.2,NaN,-1.97412222217712,-1.97412222217712,750,0,0,incongruent,1,1200.01906140868,793.563216615645
31,104,2,295,0.5,-0.5,-0.5,3,3,1,3,532,1,1,532,1,0,1.4,NaN,-0.102871631182346,-0.102871631182346,750,1,0,congruent,1,959.191171178096,1139.25767665767
31,104,2,296,0.5,-0.5,-0.5,4,4,1,4,491,1,1,491,1,0,1.6,NaN,-0.461382258429009,-0.461382258429009,750,1,0,congruent,1,702.777544031164,1066.13821852532
31,104,2,297,0.5,-0.5,0,1,NaN,1,2,457,0,1,NaN,1,0,1.6,NaN,-0.758683754194535,NaN,750,0,1,neutral,1,2704.3765547864,273.50458725195
31,104,2,298,0.5,-0.5,-0.5,3,3,1,3,498,1,1,498,1,0,1.8,NaN,-0.400173126947872,-0.400173126947872,750,1,0,congruent,1,1280.91051154207,1703.5306707232
31,104,2,299,-0.5,-0.5,0.5,1,2,1,1,362,1,1,362,1,0,2,0.8,-1.58937911000997,-1.58937911000997,750,0,0,incongruent,0.1,566.369397744255,466.676984936046
31,104,2,300,-0.5,-0.5,0.5,2,4,1,2,451,1,1,451,1,0,1.8,0.8,-0.81114872403551,-0.81114872403551,750,0,0,incongruent,0.1,6567.47811797988,1087.02005687478
31,104,3,301,-0.5,-0.5,0,4,NaN,1,3,547,0,1,NaN,1,0,1.6,0.8,0.0282907934200913,NaN,750,0,1,neutral,0.1,1109.25365455001,919.880974551788
31,104,3,302,0.5,-0.5,-0.5,3,3,1,3,555,1,1,555,1,0,1.4,NaN,0.0982440865413914,0.0982440865413914,750,1,0,congruent,1,1141.14133328881,919.241206968319
31,104,3,303,0.5,-0.5,0,4,NaN,1,4,643,1,1,643,1,0,1.4,NaN,0.867730310875692,0.867730310875692,750,0,0,neutral,1,975.988261113034,3129.17497112647
31,104,3,304,0.5,-0.5,0.5,3,1,1,3,637,1,1,637,1,0,1.4,NaN,0.815265341034717,0.815265341034717,750,0,0,incongruent,1,1903.32589413353,1443.85100910198
31,104,3,305,0.5,0.5,0.5,1,2,1,1,431,1,1,431,1,0,1.6,NaN,-0.98603195683876,-0.98603195683876,750,0,0,incongruent,1,11472.3827420974,1421.43811016831
31,104,3,306,-0.5,-0.5,0,2,NaN,1,2,409,1,1,409,1,0,1.8,0.8,-1.17840351292234,-1.17840351292234,750,0,0,neutral,0.1,1954.95691177858,402.817800519745
31,104,3,307,-0.5,0.5,-0.5,3,3,1,3,634,1,1,634,1,0,1.8,0.8,0.78903285611423,0.78903285611423,750,1,0,congruent,0.1,415.561977947558,1354.01575471474
31,104,3,308,-0.5,-0.5,0.5,4,1,1,4,712,1,1,712,1,0,1.6,0.8,1.47107746404691,1.47107746404691,750,0,0,incongruent,0.1,1858.71015185908,897.74213616357
31,104,3,309,-0.5,0.5,0,1,NaN,1,1,367,1,1,367,1,0,1.4,1,-1.54565830180916,-1.54565830180916,750,0,0,neutral,0.1,1347.52737304185,2332.65932910657
31,104,3,310,-0.5,-0.5,-0.5,3,3,1,3,525,1,1,525,1,0,1.2,1,-0.164080762663484,-0.164080762663484,750,1,0,congruent,0.1,2228.65298060394,1112.293619543
31,104,3,311,-0.5,0.5,-0.5,4,4,1,4,462,1,1,462,1,0,1,1,-0.714962945993722,-0.714962945993722,750,1,0,congruent,0.1,2260.79493678251,708.682434510789
31,104,3,312,0.5,0.5,0.5,1,3,1,1,623,1,1,623,1,0,1,NaN,0.692847078072442,0.692847078072442,750,0,0,incongruent,1,646.81416582795,394.844870722638
31,104,3,313,0.5,0.5,-0.5,4,4,1,3,688,0,1,NaN,0,0,1.2,NaN,1.26121758468301,NaN,750,0,1,congruent,0,3942.58993854215,3025.56756589196
31,104,3,314,-0.5,0.5,0.5,2,1,0.8,2,579,1,1,579,1,0,1,1,0.308103965905292,0.308103965905292,750,0,0,incongruent,0.1,1152.77302873835,352.582709658455
31,104,3,315,0.5,0.5,-0.5,3,3,0.8,3,621,1,1,621,1,0,1,NaN,0.675358754792117,0.675358754792117,750,1,0,congruent,1,2221.75310259836,795.580615639965
31,104,3,316,0.5,-0.5,0.5,2,1,0.8,2,583,1,1,583,1,0,1.2,NaN,0.343080612465942,0.343080612465942,750,0,0,incongruent,1,2711.22432736951,729.306694234187
31,104,3,317,-0.5,-0.5,0.5,1,2,0.8,1,490,1,1,490,1,0,1.4,1,-0.470126420069172,-0.470126420069172,750,0,0,incongruent,0.1,1939.31617487179,611.829928478214
31,104,3,318,0.5,0.5,-0.5,4,4,0.8,4,398,1,1,398,1,0,1.2,NaN,-1.27458929096412,-1.27458929096412,750,1,0,congruent,1,2687.66701586119,1273.60551549407
31,104,3,319,0.5,-0.5,0.5,3,1,0.8,3,616,1,1,616,1,0,1.6,NaN,0.631637946591304,0.631637946591304,750,0,0,incongruent,1,5536.13800469687,1557.00145853897
31,104,3,320,0.5,-0.5,0.5,2,4,0.8,4,627,0,1,NaN,1,0,1.8,NaN,0.727823724633092,NaN,750,1,0,incongruent,1,7958.61405524245,813.923426764604
31,104,3,321,0.5,-0.5,-0.5,1,1,0.8,1,864,1,0,864,1,0,1.8,NaN,2.80019003335161,2.80019003335161,750,1,0,congruent,1,1163.81037670799,1344.37369240044
31,104,3,322,0.5,-0.5,0.5,3,4,0.8,3,523,1,1,523,1,0,1.8,NaN,-0.181569085943809,-0.181569085943809,750,0,0,incongruent,1,2459.92436557838,1364.14584468076
31,104,3,323,-0.5,-0.5,-0.5,2,2,0.8,2,473,1,1,473,1,0,2,1,-0.618777167951934,-0.618777167951934,750,1,0,congruent,0.1,1079.62892894309,1834.00959452522
31,104,3,324,0.5,-0.5,0.5,1,3,0.8,1,479,1,1,479,1,0,1.8,NaN,-0.566312198110959,-0.566312198110959,750,0,0,incongruent,1,1815.14102666652,338.274018883168
31,104,3,325,0.5,0.5,-0.5,4,4,0.8,4,458,1,1,458,1,0,1.8,NaN,-0.749939592554372,-0.749939592554372,750,1,0,congruent,1,780.558213888015,2445.99454553864
31,104,3,326,-0.5,0.5,0.5,3,1,0.8,3,570,1,1,570,1,0,1.8,1,0.229406511143829,0.229406511143829,750,0,0,incongruent,0.1,5459.87665077521,2333.18570115443
31,104,3,327,0.5,0.5,0,1,NaN,1,1,477,1,1,477,1,0,1.6,NaN,-0.583800521391284,-0.583800521391284,750,0,0,neutral,1,1360.84250966991,2514.5741802668
31,104,3,328,-0.5,-0.5,0.5,4,2,1,4,540,1,1,540,1,0,1.6,1,-0.0329183380610463,-0.0329183380610463,750,0,0,incongruent,0.1,1058.39013975268,680.584591952919
31,104,3,329,-0.5,0.5,-0.5,1,1,1,1,532,1,1,532,1,0,1.6,1,-0.102871631182346,-0.102871631182346,750,1,0,congruent,0.1,1891.47224683576,1879.8358864914
31,104,3,330,0.5,0.5,-0.5,2,2,1,1,497,0,1,NaN,0,0,1.4,NaN,-0.408917288588034,NaN,750,0,1,congruent,0,5127.64891992553,1483.55158027626
31,104,3,331,-0.5,0.5,-0.5,4,4,0.8,3,525,0,1,NaN,0,0,1,1,-0.164080762663484,NaN,750,0,1,congruent,0,3581.0239854399,1256.9455859384
31,104,3,332,0.5,-0.5,0,3,NaN,0.6,3,662,1,1,662,0,0,0.8,NaN,1.03386938203878,1.03386938203878,750,0,0,neutral,0,1033.59038046648,274.837307353634
31,104,3,333,-0.5,0.5,-0.5,2,2,0.6,2,611,1,1,611,1,0,0.4,0.8,0.587917138390492,0.587917138390492,750,1,0,congruent,0.1,1831.37457291658,832.166091132332
31,104,3,334,-0.5,-0.5,0,1,NaN,0.6,1,337,1,1,337,1,0,0.4,1,-1.80798315101404,-1.80798315101404,750,0,0,neutral,0.1,2113.99734780932,478.642056133197
31,104,3,335,0.5,0.5,-0.5,3,3,0.6,3,536,1,1,536,1,0,0.4,NaN,-0.0678949846216963,-0.0678949846216963,750,1,0,congruent,1,803.164443884505,899.460632136523
31,104,3,336,-0.5,-0.5,0.5,1,2,0.6,1,517,1,1,517,1,0,0.8,1,-0.234034055784784,-0.234034055784784,750,0,0,incongruent,0.1,1630.26705324873,6647.12354924972
31,104,3,337,0.5,0.5,0,3,NaN,0.6,3,413,1,1,413,1,0,1,NaN,-1.14342686636169,-1.14342686636169,750,0,0,neutral,1,1211.72588504649,642.12870725207
31,104,3,338,0.5,-0.5,-0.5,1,1,0.6,1,702,1,1,702,0,0,1.4,NaN,1.38363584764528,1.38363584764528,750,1,0,congruent,0,3136.2996341982,997.617829621214
31,104,3,339,0.5,0.5,0,3,NaN,0.6,3,665,1,1,665,1,0,1.2,NaN,1.06010186695927,1.06010186695927,750,0,0,neutral,1,5320.66159502644,2271.8926473163
31,104,3,340,0.5,0.5,-0.5,4,4,0.8,4,361,1,1,361,1,0,1.4,NaN,-1.59812327165014,-1.59812327165014,750,1,0,congruent,1,1216.37771086483,551.113657917318
31,104,3,341,-0.5,-0.5,-0.5,1,1,1,1,457,1,1,457,1,0,1.4,1,-0.758683754194535,-0.758683754194535,750,1,0,congruent,0.1,4658.23905175401,1425.40128040323
31,104,3,342,-0.5,0.5,-0.5,2,2,1,2,414,1,1,414,1,0,1.4,0.8,-1.13468270472152,-1.13468270472152,750,1,0,congruent,0.1,1968.5868034923,830.53507380052
31,104,3,343,-0.5,-0.5,0,3,NaN,1,3,394,1,1,394,1,0,1.2,1,-1.30956593752477,-1.30956593752477,750,0,0,neutral,0.1,3070.10128159237,544.924422340102
31,104,3,344,0.5,0.5,0.5,4,2,1,4,304,1,1,304,1,0,1.4,NaN,-2.0965404851394,-2.0965404851394,750,0,0,incongruent,1,1123.16659248999,912.526271695974
31,104,3,345,0.5,-0.5,0,3,NaN,1,3,465,1,1,465,1,0,1.4,NaN,-0.688730461073235,-0.688730461073235,750,0,0,neutral,1,821.502699929654,2517.78276092979
31,104,3,346,0.5,0.5,-0.5,2,2,1,2,619,1,1,619,1,0,1.4,NaN,0.657870431511792,0.657870431511792,750,1,0,congruent,1,2678.93728430342,1657.50854788636
31,104,3,347,-0.5,-0.5,-0.5,3,3,1,3,487,1,1,487,1,0,1.6,1,-0.496358904989659,-0.496358904989659,750,1,0,congruent,0.1,1410.7735164705,1831.35369431767
31,104,3,348,0.5,-0.5,0.5,4,1,1,4,545,1,1,545,1,0,1.6,NaN,0.0108024701397663,0.0108024701397663,750,0,0,incongruent,1,1624.76494166642,22317.4450072327
31,104,3,349,-0.5,-0.5,-0.5,2,2,1,3,469,0,1,NaN,1,0,1.8,1,-0.653753814512585,NaN,750,0,1,congruent,0.1,771.151618448122,1463.5446700527
31,104,3,350,0.5,0.5,0.5,4,3,1,3,560,0,1,NaN,0,0,1.6,NaN,0.141964894742204,NaN,750,1,0,incongruent,0,7689.35690996786,1589.82469049516
31,104,3,351,0.5,0.5,0.5,2,4,0.8,2,688,1,1,688,1,0,1.2,NaN,1.26121758468301,1.26121758468301,750,0,0,incongruent,1,3831.62839332069,1173.29884455736
31,104,3,352,-0.5,0.5,0.5,1,3,0.8,1,304,1,1,304,1,0,1.2,0.8,-2.0965404851394,-2.0965404851394,750,0,0,incongruent,0.1,601.425592163182,427.75393208096
31,104,3,353,-0.5,-0.5,0.5,4,1,0.8,4,519,1,1,519,1,0,1.2,1,-0.216545732504459,-0.216545732504459,750,0,0,incongruent,0.1,2192.32103637127,1579.5328439951
31,104,3,354,-0.5,0.5,0,2,NaN,0.8,2,633,1,1,633,1,0,1,0.8,0.780288694474067,0.780288694474067,750,0,0,neutral,0.1,1928.19503064195,2463.0209711329
31,104,3,355,-0.5,0.5,-0.5,3,3,0.8,3,498,1,1,498,1,0,1,0.8,-0.400173126947872,-0.400173126947872,750,1,0,congruent,0.1,2553.35937745854,1787.63828080889
31,104,3,356,-0.5,0.5,0,1,NaN,0.8,1,454,1,1,454,1,0,1.2,1,-0.784916239115022,-0.784916239115022,750,0,0,neutral,0.1,1408.22569965543,988.084101484958
31,104,3,357,-0.5,-0.5,-0.5,3,3,1,3,413,1,1,413,1,0,1,1,-1.14342686636169,-1.14342686636169,750,1,0,congruent,0.1,951.309618496281,391.059818491675
31,104,3,358,-0.5,0.5,0,2,NaN,1,2,470,1,1,470,1,0,1,1,-0.645009652872422,-0.645009652872422,750,0,0,neutral,0.1,3326.95033633962,2843.38693311506
31,104,3,359,-0.5,0.5,-0.5,4,4,1,4,516,1,1,516,1,0,1,1,-0.242778217424947,-0.242778217424947,750,1,0,congruent,0.1,940.525128989093,1797.73483920109
31,104,3,360,0.5,-0.5,0,3,NaN,1,3,369,1,1,369,1,0,1,NaN,-1.52816997852884,-1.52816997852884,750,0,0,neutral,1,533.886765589474,2104.44199677804
31,104,3,361,0.5,-0.5,-0.5,4,4,1,4,548,1,1,548,1,0,1.2,NaN,0.0370349550602538,0.0370349550602538,750,1,0,congruent,1,2618.44698217985,554.33285017833
31,104,3,362,0.5,0.5,0.5,2,1,1,2,565,1,1,565,1,0,1.4,NaN,0.185685702943016,0.185685702943016,750,0,0,incongruent,1,556.702301458018,1858.01374723047
31,104,3,363,0.5,0.5,0,4,NaN,1,4,370,1,1,370,1,0,1.6,NaN,-1.51942581688867,-1.51942581688867,750,0,0,neutral,1,425.163874466718,939.010653797559
31,104,3,364,-0.5,-0.5,0.5,2,3,1,2,398,1,1,398,1,0,1.8,1,-1.27458929096412,-1.27458929096412,750,0,0,incongruent,0.1,1495.50554175329,762.468915748767
31,104,3,365,0.5,0.5,0,4,NaN,1,4,506,1,1,506,1,0,1.8,NaN,-0.330219833826572,-0.330219833826572,750,0,0,neutral,1,1951.06864032738,1013.96659186514
31,104,3,366,-0.5,-0.5,0.5,2,1,1,2,480,1,1,480,1,0,1.8,1,-0.557568036470797,-0.557568036470797,750,0,0,incongruent,0.1,2347.55264725517,437.613628493912
31,104,3,367,0.5,0.5,0.5,1,3,1,1,420,1,1,420,1,0,1.6,NaN,-1.08221773488055,-1.08221773488055,750,0,0,incongruent,1,744.476121694114,1375.25845594347
31,104,3,368,-0.5,-0.5,-0.5,2,2,1,2,601,1,1,601,1,0,1.6,1,0.500475521988867,0.500475521988867,750,1,0,congruent,0.1,1856.12527854621,941.099391385022
31,104,3,369,-0.5,-0.5,0.5,3,1,1,3,769,1,0,769,1,0,1.4,1,1.96949467753617,1.96949467753617,750,0,0,incongruent,0.1,1243.26074734169,981.172642374722
31,104,3,370,-0.5,-0.5,0.5,2,3,1,2,573,1,1,573,1,0,1.4,1,0.255638996064317,0.255638996064317,750,0,0,incongruent,0.1,4355.04783183296,738.698311049593
31,104,3,371,0.5,-0.5,0.5,4,1,1,4,607,1,1,607,1,0,1.2,NaN,0.552940491829842,0.552940491829842,750,0,0,incongruent,1,2907.7920060637,405.893376260239
31,104,3,372,-0.5,-0.5,0.5,1,4,1,1,489,1,1,489,1,0,1.4,1,-0.478870581709334,-0.478870581709334,750,0,0,incongruent,0.1,1886.27133455282,802.51859903713
31,104,3,373,-0.5,0.5,0,2,NaN,1,2,442,1,1,442,1,0,1.2,1,-0.889846178796972,-0.889846178796972,750,0,0,neutral,0.1,1641.49365753359,726.459271358063
31,104,3,374,0.5,0.5,-0.5,4,4,1,4,662,1,1,662,1,0,1.2,NaN,1.03386938203878,1.03386938203878,750,1,0,congruent,1,3466.81633612334,2620.23804379528
31,104,3,375,0.5,0.5,-0.5,2,2,1,2,596,1,1,596,1,0,1.4,NaN,0.456754713788054,0.456754713788054,750,1,0,congruent,1,752.167959174356,1586.43412909992
31,104,3,376,0.5,-0.5,-0.5,1,1,1,1,508,1,1,508,1,0,1.6,NaN,-0.312731510546247,-0.312731510546247,750,1,0,congruent,1,2084.63147836571,687.537189388825
31,104,3,377,-0.5,-0.5,0,3,NaN,1,3,624,1,1,624,1,0,1.6,1,0.701591239712605,0.701591239712605,750,0,0,neutral,0.1,2462.48655027943,2205.83590604897
31,104,3,378,0.5,-0.5,0.5,2,1,1,2,600,1,1,600,1,0,1.6,NaN,0.491731360348704,0.491731360348704,750,0,0,incongruent,1,2811.94161283027,2442.4906057711
31,104,3,379,-0.5,0.5,-0.5,3,3,1,3,347,1,1,347,1,0,1.8,1,-1.72054153461241,-1.72054153461241,750,1,0,congruent,0.1,272.197572220568,1054.3251519797
31,104,3,380,0.5,0.5,0,2,NaN,1,2,397,1,1,397,1,0,1.6,NaN,-1.28333345260429,-1.28333345260429,750,0,0,neutral,1,1842.89764439299,3903.63200057721
31,104,3,381,0.5,-0.5,0.5,1,4,1,1,457,1,1,457,1,0,1.6,NaN,-0.758683754194535,-0.758683754194535,750,0,0,incongruent,1,2377.63313369576,574.626982493101
31,104,3,382,-0.5,0.5,0.5,4,1,1,2,532,0,1,NaN,0,0,1.6,1,-0.102871631182346,NaN,750,0,1,incongruent,0,11064.3456610979,1182.36058127679
31,104,3,383,-0.5,-0.5,0,3,NaN,0.8,3,284,1,1,284,1,0,1.4,1,-2.27142371794265,-2.27142371794265,750,0,0,neutral,0.1,1047.61462881789,899.342082942341
31,104,3,384,0.5,-0.5,-0.5,2,2,0.8,1,329,0,1,NaN,1,0,1.2,NaN,-1.87793644413534,NaN,750,0,1,congruent,1,7812.85773840992,843.372114771467
31,104,3,385,0.5,-0.5,-0.5,1,1,0.8,1,609,1,1,609,1,0,1.4,NaN,0.570428815110167,0.570428815110167,750,1,0,congruent,1,685.153990298991,570.08579159512
31,104,3,386,-0.5,0.5,-0.5,2,2,0.8,2,549,1,1,549,1,0,1.4,0.8,0.0457791167004163,0.0457791167004163,750,1,0,congruent,0.1,697.143779952173,522.385380305414
31,104,3,387,0.5,-0.5,0.5,1,4,0.8,1,561,1,1,561,1,0,1.2,NaN,0.150709056382366,0.150709056382366,750,0,0,incongruent,1,2232.21947625727,3045.09673597895
31,104,3,388,-0.5,0.5,-0.5,3,3,0.8,3,444,1,1,444,1,0,1.6,0.8,-0.872357855516647,-0.872357855516647,750,1,0,congruent,0.1,1076.95217497095,1567.3475273443
31,104,3,389,0.5,0.5,0.5,2,1,0.8,2,527,1,1,527,1,0,1.6,NaN,-0.146592439383159,-0.146592439383159,750,0,0,incongruent,1,3177.5650527965,291.527446217759
31,104,3,390,-0.5,-0.5,-0.5,4,4,0.8,4,395,1,1,395,1,0,1.6,1,-1.30082177588461,-1.30082177588461,750,1,0,congruent,0.1,1313.46941401567,3092.70347121766
31,104,3,391,0.5,0.5,0,2,NaN,0.8,2,475,1,1,475,1,0,1.4,NaN,-0.601288844671609,-0.601288844671609,750,0,0,neutral,1,2214.98422610162,974.649946553086
31,104,3,392,0.5,0.5,0.5,1,4,0.8,1,390,1,1,390,1,0,1.6,NaN,-1.34454258408542,-1.34454258408542,750,0,0,incongruent,1,4189.57471645328,1708.62592146933
31,104,3,393,-0.5,0.5,0,3,NaN,1,3,491,1,1,491,1,0,1.6,0.8,-0.461382258429009,-0.461382258429009,750,0,0,neutral,0.1,3876.18832910228,983.935539301567
31,104,3,394,-0.5,-0.5,-0.5,2,2,1,2,499,1,1,499,1,0,1.6,1,-0.391428965307709,-0.391428965307709,750,1,0,congruent,0.1,2027.75307097145,1173.80263976167
31,104,3,395,0.5,0.5,0,3,NaN,1,3,441,1,1,441,1,0,1.4,NaN,-0.898590340437135,-0.898590340437135,750,0,0,neutral,1,1110.56554274336,1781.75434394808
31,104,3,396,-0.5,0.5,-0.5,4,4,1,2,370,0,1,NaN,0,0,1.6,0.8,-1.51942581688867,NaN,750,0,1,congruent,0,6663.82737769114,451.570668392167
31,104,3,397,-0.5,-0.5,-0.5,2,2,0.8,2,524,1,1,524,1,0,1.2,1,-0.172824924303646,-0.172824924303646,750,1,0,congruent,0.1,2011.25489878077,479.418918018723
31,104,3,398,0.5,0.5,0,1,NaN,0.8,1,463,1,1,463,1,0,1,NaN,-0.70621878435356,-0.70621878435356,750,0,0,neutral,1,2319.57413033117,1070.93662003586
31,104,3,399,0.5,-0.5,0.5,4,2,0.8,4,608,1,1,608,0,0,1.2,NaN,0.561684653470004,0.561684653470004,750,0,0,incongruent,0,2845.61130388904,1083.26687422251
31,104,3,400,-0.5,-0.5,-0.5,3,3,0.8,3,325,1,1,325,1,0,1,1,-1.91291309069599,-1.91291309069599,750,1,0,congruent,0.1,773.230447428078,1624.69645413495
31,104,3,401,-0.5,-0.5,-0.5,4,4,0.8,4,582,1,1,582,1,0,0.8,1,0.334336450825779,0.334336450825779,750,1,0,congruent,0.1,3355.4103603653,2485.03264718445
31,104,3,402,-0.5,-0.5,0.5,2,1,0.8,3,645,0,1,NaN,1,0,1,1,0.885218634156017,NaN,750,0,1,incongruent,0.1,2446.27296437284,2497.37497790869
31,104,3,403,-0.5,0.5,0.5,3,4,0.8,3,583,1,1,583,1,0,1,0.6,0.343080612465942,0.343080612465942,750,0,0,incongruent,0.1,5250.45579295148,920.655249013333
31,104,3,404,-0.5,-0.5,-0.5,1,1,0.8,1,363,1,1,363,0,0,0.8,1,-1.58063494836981,-1.58063494836981,750,1,0,congruent,0,1110.27347973465,1510.98034552798
31,104,3,405,0.5,-0.5,0.5,4,2,0.8,4,533,1,1,533,1,0,0.8,NaN,-0.0941274695421838,-0.0941274695421838,750,0,0,incongruent,1,1438.5875741937,1358.49727189466
31,104,3,406,0.5,0.5,0,3,NaN,0.8,3,417,1,1,417,1,0,1,NaN,-1.10845021980104,-1.10845021980104,750,0,0,neutral,1,1356.13510927093,837.599880093362
31,104,3,407,0.5,-0.5,0.5,1,2,0.8,1,508,1,1,508,1,0,1.2,NaN,-0.312731510546247,-0.312731510546247,750,0,0,incongruent,1,1253.66265841222,692.053458639319
31,104,3,408,0.5,-0.5,0,4,NaN,0.8,4,605,1,1,605,1,0,1.4,NaN,0.535452168549517,0.535452168549517,750,0,0,neutral,1,1356.76924033397,2517.08725676419
31,104,3,409,0.5,-0.5,0.5,1,2,0.8,1,628,1,1,628,1,0,1.6,NaN,0.736567886273255,0.736567886273255,750,0,0,incongruent,1,2645.15942520793,802.809040472098
31,104,3,410,0.5,0.5,0.5,3,1,0.8,3,410,1,1,410,1,0,2,NaN,-1.16965935128217,-1.16965935128217,750,0,0,incongruent,1,121.825996269303,1011.00012129533
31,104,3,411,-0.5,-0.5,0.5,1,3,0.8,1,491,1,1,491,1,0,2,0.8,-0.461382258429009,-0.461382258429009,750,0,0,incongruent,0.1,1448.46839699189,585.016062003498
31,104,3,412,0.5,-0.5,-0.5,2,2,0.8,2,480,1,1,480,1,0,1.8,NaN,-0.557568036470797,-0.557568036470797,750,1,0,congruent,1,1926.21598574053,725.703340753573
31,104,3,413,0.5,-0.5,0.5,1,4,0.8,1,453,1,1,453,1,0,1.8,NaN,-0.793660400755185,-0.793660400755185,750,0,0,incongruent,1,2635.23589824636,1963.65408225626
31,104,3,414,-0.5,0.5,0,3,NaN,0.8,3,391,1,1,391,1,0,1.8,0.8,-1.33579842244526,-1.33579842244526,750,0,0,neutral,0.1,2566.70776813735,355.390596341034
31,104,3,415,-0.5,0.5,-0.5,4,4,1,2,452,0,1,NaN,0,0,1.6,0.8,-0.802404562395347,NaN,750,0,1,congruent,0,7600.82928998024,2134.71845470402
31,104,3,416,-0.5,0.5,-0.5,2,2,0.8,2,491,1,1,491,1,0,1.2,0.6,-0.461382258429009,-0.461382258429009,750,1,0,congruent,0.1,1265.5076585281,1392.95457446404
31,104,3,417,-0.5,0.5,-0.5,3,3,0.8,3,592,1,1,592,1,0,1.2,0.6,0.421778067227404,0.421778067227404,750,1,0,congruent,0.1,820.838062270548,824.574653071965
31,104,3,418,-0.5,0.5,0.5,4,2,0.8,4,463,1,1,463,1,0,1,0.8,-0.70621878435356,-0.70621878435356,750,0,0,incongruent,0.1,2213.74796052561,482.495890580304
31,104,3,419,-0.5,-0.5,0,2,NaN,0.8,1,299,0,1,NaN,1,0,0.8,0.8,-2.14026129334021,NaN,750,0,1,neutral,0.1,9183.78078046316,1845.22505321216
31,104,3,420,-0.5,-0.5,-0.5,1,1,0.8,1,378,1,1,378,0,0,0.8,0.8,-1.44947252376737,-1.44947252376737,750,1,0,congruent,0,2331.06581789004,1869.99016910216
31,104,3,422,0.5,0.5,0.5,3,1,0.6,4,614,0,1,NaN,0,0,0.6,NaN,0.614149623310979,NaN,750,0,1,incongruent,0,2801.15386972964,1708.91464340542
31,104,3,423,-0.5,0.5,-0.5,2,2,0.6,2,476,1,1,476,1,0,0.4,0.8,-0.592544683031447,-0.592544683031447,750,1,0,congruent,0.1,3101.9235889627,951.989999416104
31,104,3,424,-0.5,-0.5,0.5,3,1,0.6,3,462,1,1,462,0,0,0.4,0.6,-0.714962945993722,-0.714962945993722,750,0,0,incongruent,0,1974.16737312479,934.995602142701
31,104,3,425,-0.5,0.5,0.5,1,3,0.6,1,549,1,1,549,1,0,0.2,0.8,0.0457791167004163,0.0457791167004163,750,0,0,incongruent,0.1,1653.66145009672,785.305921344739
31,104,3,426,0.5,0.5,0.5,2,1,0.6,2,471,1,1,471,1,0,0.4,NaN,-0.63626549123226,-0.63626549123226,750,0,0,incongruent,1,2656.263785064,1428.25715512704
31,104,3,427,0.5,-0.5,0,4,NaN,0.6,4,537,1,1,537,0,0,0.8,NaN,-0.0591508229815338,-0.0591508229815338,750,0,0,neutral,0,3280.36469832457,504.063645405588
31,104,3,428,-0.5,-0.5,-0.5,1,1,0.6,1,420,1,1,420,1,0,0.8,0.4,-1.08221773488055,-1.08221773488055,750,1,0,congruent,0.1,1758.08579630087,865.071386174338
31,104,3,429,0.5,0.5,-0.5,2,2,0.6,2,414,1,1,414,1,0,0.8,NaN,-1.13468270472152,-1.13468270472152,750,1,0,congruent,1,4787.19480677393,839.328096581678
31,104,3,430,-0.5,0.5,-0.5,4,4,0.8,4,657,1,1,657,1,0,1.2,1,0.990148573837967,0.990148573837967,750,1,0,congruent,0.1,874.924071572449,705.987214115365
31,104,3,431,-0.5,0.5,0.5,1,3,1,2,435,0,1,NaN,0,0,1.2,1,-0.95105531027811,NaN,750,0,1,incongruent,0,14450.0816978664,837.612469818509
31,104,3,432,-0.5,0.5,0,3,NaN,0.8,3,614,1,1,614,1,0,0.8,0.8,0.614149623310979,0.614149623310979,750,0,0,neutral,0.1,3370.74913247955,695.344928962549
31,104,3,433,0.5,-0.5,-0.5,4,4,0.8,4,445,1,1,445,1,0,1,NaN,-0.863613693876485,-0.863613693876485,750,1,0,congruent,1,1590.61358819228,2636.62988744882
31,104,3,434,-0.5,-0.5,0.5,1,2,0.8,1,421,1,1,421,1,0,1.2,0.6,-1.07347357324039,-1.07347357324039,750,0,0,incongruent,0.1,6131.07369564853,408.942927983332
31,104,3,435,0.5,0.5,-0.5,3,3,0.8,3,538,1,1,538,1,0,1,NaN,-0.0504066613413713,-0.0504066613413713,750,1,0,congruent,1,5202.69293655763,905.703114294143
31,104,3,436,-0.5,-0.5,0.5,4,1,0.8,2,522,0,1,NaN,0,0,1.2,0.6,-0.190313247583971,NaN,750,0,1,incongruent,0,13410.8256739319,1623.98476135229
31,104,3,437,-0.5,0.5,0,3,NaN,0.8,3,447,1,1,447,1,0,1.2,0.8,-0.84612537059616,-0.84612537059616,750,0,0,neutral,0.1,3412.83053275754,1143.69589767558
31,104,3,438,-0.5,0.5,-0.5,4,4,0.8,4,478,1,1,478,1,0,1.2,0.8,-0.575056359751122,-0.575056359751122,750,1,0,congruent,0.1,935.312245609554,382.805150269024
31,104,3,439,-0.5,0.5,0,2,NaN,0.8,2,492,1,1,492,1,0,1,0.8,-0.452638096788847,-0.452638096788847,750,0,0,neutral,0.1,6291.43096656456,2062.50003913316
31,104,3,440,0.5,0.5,0.5,1,2,1,1,477,1,1,477,1,0,1,NaN,-0.583800521391284,-0.583800521391284,750,0,0,incongruent,1,7023.46159096789,1960.72532206487
31,104,3,441,-0.5,0.5,0.5,2,1,1,2,569,1,1,569,1,0,1,0.8,0.220662349503667,0.220662349503667,750,0,0,incongruent,0.1,332.113596277729,1159.91303262385
31,104,3,442,0.5,0.5,0.5,3,4,1,3,437,1,1,437,1,0,1.2,NaN,-0.933566986997785,-0.933566986997785,750,0,0,incongruent,1,3216.86673269496,1798.34116042401
31,104,3,443,0.5,0.5,0.5,4,2,1,4,426,1,1,426,1,0,1.4,NaN,-1.02975276503957,-1.02975276503957,750,0,0,incongruent,1,2590.02199346561,1904.9969925647
31,104,3,444,-0.5,-0.5,0.5,1,4,1,1,336,1,1,336,1,0,1.6,0.4,-1.8167273126542,-1.8167273126542,750,0,0,incongruent,0.1,3225.08283057854,1311.13940402351
31,104,3,445,0.5,0.5,0.5,3,2,1,4,406,0,1,NaN,0,0,1.6,NaN,-1.20463599784282,NaN,750,0,1,incongruent,0,4559.3580726227,2490.91404506003
31,104,3,446,0.5,-0.5,-0.5,4,4,0.8,3,584,0,1,NaN,1,0,1.2,NaN,0.351824774106104,NaN,750,0,1,congruent,1,4945.76162633607,1711.68336485994
31,104,3,447,0.5,-0.5,-0.5,3,3,0.8,3,549,1,1,549,1,0,1.4,NaN,0.0457791167004163,0.0457791167004163,750,1,0,congruent,1,1198.99333721517,2635.87838618486
31,104,3,448,0.5,-0.5,-0.5,4,4,0.8,4,471,1,1,471,0,0,1.4,NaN,-0.63626549123226,-0.63626549123226,750,1,0,congruent,0,2384.76350932451,199.72995790123
31,104,3,449,0.5,-0.5,-0.5,3,3,0.8,3,510,1,1,510,1,0,1,NaN,-0.295243187265922,-0.295243187265922,750,1,0,congruent,1,3754.39669070205,947.041072136215
31,104,3,450,-0.5,-0.5,0.5,2,4,0.8,2,550,1,1,550,1,0,1.2,0.6,0.0545232783405788,0.0545232783405788,750,0,0,incongruent,0.1,1234.2157184659,1443.66520203157
31,104,4,451,0.5,0.5,0,3,NaN,0.8,4,608,0,1,NaN,0,0,1.4,NaN,0.561684653470004,NaN,750,0,1,neutral,0,1966.41651164256,1972.72559227582
31,104,4,452,-0.5,0.5,0.5,4,1,0.6,4,329,1,1,329,1,0,1,1,-1.87793644413534,-1.87793644413534,750,0,0,incongruent,0.1,3730.26880065174,1018.70866510827
31,104,4,453,0.5,0.5,0,1,NaN,0.6,2,449,0,1,NaN,0,0,0.8,NaN,-0.828637047315835,NaN,750,0,1,neutral,0,11451.1823222146,1280.83271308214
31,104,4,454,0.5,0.5,-0.5,4,4,0.4,4,607,1,1,607,1,0,0.8,NaN,0.552940491829842,0.552940491829842,750,1,0,congruent,1,4518.99629912708,1247.34309625904
31,104,4,455,-0.5,-0.5,0,3,NaN,0.4,3,333,1,1,333,0,0,0.8,0.8,-1.84295979757469,-1.84295979757469,750,0,0,neutral,0,1475.19144827091,1456.46743688015
31,104,4,456,0.5,0.5,-0.5,1,1,0.4,1,302,1,1,302,1,0,0.6,NaN,-2.11402880841972,-2.11402880841972,750,1,0,congruent,1,2543.58613047181,728.847234390946
31,104,4,457,-0.5,0.5,-0.5,3,3,0.6,3,475,1,1,475,1,0,1,1,-0.601288844671609,-0.601288844671609,750,1,0,congruent,0.1,3341.00785436273,1149.86664295965
31,104,4,458,-0.5,-0.5,0.5,1,4,0.8,1,515,1,1,515,1,0,1,0.6,-0.251522379065109,-0.251522379065109,750,0,0,incongruent,0.1,1186.33322499142,1267.58960916317
31,104,4,459,0.5,0.5,0,3,NaN,0.8,3,511,1,1,511,1,0,1.2,NaN,-0.286499025625759,-0.286499025625759,750,0,0,neutral,1,3438.18452251707,805.219128313115
31,104,4,460,-0.5,0.5,-0.5,2,2,0.8,2,561,1,1,561,1,0,1.2,1,0.150709056382366,0.150709056382366,750,1,0,congruent,0.1,1308.33086008132,1093.25045786327
31,104,4,461,0.5,-0.5,0.5,1,3,1,1,588,1,1,588,1,0,1.4,NaN,0.386801420666754,0.386801420666754,750,0,0,incongruent,1,2213.68060981469,1712.9264794942
31,104,4,462,0.5,0.5,0,4,NaN,1,4,585,1,1,585,1,0,1.4,NaN,0.360568935746267,0.360568935746267,750,0,0,neutral,1,762.537812178185,1492.96930406261
31,104,4,463,0.5,0.5,0.5,2,1,1,2,546,1,1,546,1,0,1.6,NaN,0.0195466317799288,0.0195466317799288,750,0,0,incongruent,1,1411.08724475023,474.87086283334
31,104,4,464,0.5,0.5,-0.5,4,4,1,3,501,0,1,NaN,0,0,1.8,NaN,-0.373940642027384,NaN,750,0,1,congruent,0,2457.20152182865,1622.68284948908
31,104,4,465,0.5,0.5,0,1,NaN,0.8,1,481,1,1,481,1,0,1.4,NaN,-0.548823874830634,-0.548823874830634,750,0,0,neutral,1,1235.05523383237,784.138361177426
31,104,4,466,-0.5,-0.5,-0.5,2,2,0.8,2,616,1,1,616,0,0,1.6,0.6,0.631637946591304,0.631637946591304,750,1,0,congruent,0,2758.81272730569,808.028590570009
31,104,4,467,-0.5,-0.5,0.5,3,4,0.8,3,811,1,0,811,1,0,1.2,0.6,2.33674946642299,2.33674946642299,750,0,0,incongruent,0.1,1008.87135454126,1076.55363073284
31,104,4,468,0.5,0.5,-0.5,2,2,0.8,2,598,1,1,598,1,0,1,NaN,0.474243037068379,0.474243037068379,750,1,0,congruent,1,798.715777256172,2424.86542637194
31,104,4,469,-0.5,-0.5,0.5,4,3,0.8,4,629,1,1,629,1,0,1,0.6,0.745312047913417,0.745312047913417,750,0,0,incongruent,0.1,902.002632968612,583.198993454603
31,104,4,470,0.5,-0.5,0.5,2,4,0.8,2,759,1,0,759,1,0,1.2,NaN,1.88205306113454,1.88205306113454,750,0,0,incongruent,1,3390.48414803428,1065.63456663355
31,104,4,471,0.5,0.5,0,4,NaN,0.8,4,525,1,1,525,1,0,1.2,NaN,-0.164080762663484,-0.164080762663484,750,0,0,neutral,1,1102.17056668581,1114.1255236047
31,104,4,472,0.5,0.5,-0.5,2,2,0.8,2,605,1,1,605,1,0,1.6,NaN,0.535452168549517,0.535452168549517,750,1,0,congruent,1,1003.49637261485,1645.62688727123
31,104,4,473,-0.5,0.5,0.5,4,3,0.8,4,625,1,1,625,1,0,1.8,1,0.710335401352767,0.710335401352767,750,0,0,incongruent,0.1,1351.40563530196,1096.48781725497
31,104,4,474,-0.5,0.5,0,2,NaN,1,2,567,1,1,567,1,0,1.6,1,0.203174026223341,0.203174026223341,750,0,0,neutral,0.1,520.00068171881,917.8209373764
31,104,4,475,0.5,0.5,-0.5,3,3,1,3,559,1,1,559,1,0,1.6,NaN,0.133220733102041,0.133220733102041,750,1,0,congruent,1,1124.4902844647,1192.49826153246
31,104,4,476,0.5,0.5,-0.5,1,1,1,1,456,1,1,456,1,0,1.6,NaN,-0.767427915834697,-0.767427915834697,750,1,0,congruent,1,1379.24440171774,1131.56371474798
31,104,4,477,-0.5,0.5,-0.5,3,3,1,4,700,0,1,NaN,0,0,1.6,1,1.36614752436496,NaN,750,0,1,congruent,0,1336.96857199871,2161.99433503446
31,104,4,478,0.5,0.5,-0.5,4,4,0.8,4,592,1,1,592,1,0,1.2,NaN,0.421778067227404,0.421778067227404,750,1,0,congruent,1,2868.33562689484,1726.47861182279
31,104,4,479,-0.5,-0.5,-0.5,3,3,0.8,4,614,0,1,NaN,0,0,1.4,0.6,0.614149623310979,NaN,750,0,1,congruent,0,1081.30695498246,3336.27779224345
31,104,4,480,-0.5,0.5,-0.5,4,4,0.8,3,521,0,1,NaN,0,0,1.2,0.8,-0.199057409224134,NaN,750,0,1,congruent,0,5644.57880907708,699.089557377429
31,104,4,481,0.5,0.5,0,1,NaN,0.6,1,656,1,1,656,1,0,0.8,NaN,0.981404412197805,0.981404412197805,750,0,0,neutral,1,620.431301371353,1250.56997971486
31,104,4,482,-0.5,0.5,-0.5,3,3,0.6,3,784,1,0,784,0,0,0.8,0.6,2.10065710213861,2.10065710213861,750,1,0,congruent,0,1537.37028577793,2501.18413301143
31,104,4,483,-0.5,0.5,0,4,NaN,0.4,4,623,1,1,623,1,0,0.8,0.4,0.692847078072442,0.692847078072442,750,0,0,neutral,0.1,2129.1952921503,717.320104750765
31,104,4,484,0.5,-0.5,-0.5,3,3,0.6,3,521,1,1,521,1,0,0.6,NaN,-0.199057409224134,-0.199057409224134,750,1,0,congruent,1,1446.0362041163,1217.65111366167
31,104,4,485,0.5,0.5,0.5,1,4,0.6,1,480,1,1,480,1,0,1,NaN,-0.557568036470797,-0.557568036470797,750,0,0,incongruent,1,1632.97246555963,706.378970535694
31,104,4,486,-0.5,0.5,-0.5,2,2,0.6,1,495,0,1,NaN,0,0,1.4,0.4,-0.426405611868359,NaN,750,0,1,congruent,0,7341.3922573258,842.882199310144
31,104,4,487,0.5,0.5,0.5,3,4,0.6,3,646,1,1,646,1,0,1,NaN,0.89396279579618,0.89396279579618,750,0,0,incongruent,1,929.954710519888,1313.39693271835
31,104,4,488,-0.5,0.5,0.5,1,3,0.6,2,531,0,1,NaN,0,0,1.4,0.2,-0.111615792822509,NaN,750,0,1,incongruent,0,4727.02979241503,328.425941707686
31,104,4,489,-0.5,0.5,0.5,2,1,0.6,2,616,1,1,616,1,0,1.2,0.2,0.631637946591304,0.631637946591304,750,0,0,incongruent,0.1,1751.1093164713,1057.05903831538
31,104,4,490,-0.5,-0.5,0.5,1,2,0.6,1,360,1,1,360,1,0,1,0.6,-1.6068674332903,-1.6068674332903,750,0,0,incongruent,0.1,1543.12741857351,324.732408584991
31,104,4,491,-0.5,0.5,0.5,4,3,0.6,3,473,0,1,NaN,0,0,0.8,0.4,-0.618777167951934,NaN,750,1,0,incongruent,0,4676.93933749652,2207.19811591073
31,104,4,492,0.5,0.5,0.5,3,4,0.4,3,615,1,1,615,1,0,0.8,NaN,0.622893784951142,0.622893784951142,750,0,0,incongruent,1,2460.46637642626,995.329349615332
31,104,4,493,0.5,0.5,0.5,4,2,0.6,4,570,1,1,570,1,0,0.8,NaN,0.229406511143829,0.229406511143829,750,0,0,incongruent,1,716.115574721321,1165.61634220794
31,104,4,494,-0.5,0.5,-0.5,1,1,0.6,1,636,1,1,636,1,0,1.2,0.4,0.806521179394555,0.806521179394555,750,1,0,congruent,0.1,3153.65625205877,1019.12745163028
31,104,4,495,0.5,0.5,-0.5,4,4,0.8,4,689,1,1,689,1,0,1.2,NaN,1.26996174632317,1.26996174632317,750,1,0,congruent,1,712.300181088666,748.096464229493
31,104,4,496,-0.5,0.5,0,3,NaN,0.8,3,519,1,1,519,1,0,1.4,0.4,-0.216545732504459,-0.216545732504459,750,0,0,neutral,0.1,752.242767671997,639.483915987077
31,104,4,497,0.5,0.5,-0.5,4,4,1,4,492,1,1,492,1,0,1.6,NaN,-0.452638096788847,-0.452638096788847,750,1,0,congruent,1,2588.15181841588,167.408159787978
31,104,4,498,-0.5,-0.5,0,3,NaN,1,3,591,1,1,591,1,0,1.6,0.6,0.413033905587242,0.413033905587242,750,0,0,neutral,0.1,5689.25321466977,1185.93490074233
31,104,4,499,-0.5,0.5,-0.5,4,4,1,4,418,1,1,418,1,0,1.4,0.6,-1.09970605816087,-1.09970605816087,750,1,0,congruent,0.1,3771.03718900506,3568.60592164711
31,104,4,500,0.5,0.5,0.5,2,1,1,2,450,1,1,450,1,0,1.4,NaN,-0.819892885675672,-0.819892885675672,750,0,0,incongruent,1,523.457701233277,858.996417324194
31,104,4,501,0.5,-0.5,0,1,NaN,1,1,516,1,1,516,1,0,1.4,NaN,-0.242778217424947,-0.242778217424947,750,0,0,neutral,1,206.051118238075,461.656521852781
31,104,4,502,-0.5,0.5,-0.5,3,3,1,3,554,1,1,554,1,0,1.6,0.8,0.0894999249012289,0.0894999249012289,750,1,0,congruent,0.1,814.506766752689,979.610969292859
31,104,4,503,0.5,0.5,-0.5,1,1,1,1,448,1,1,448,1,0,1.4,NaN,-0.837381208955997,-0.837381208955997,750,1,0,congruent,1,3020.19876614476,482.622530972538
31,104,4,504,0.5,-0.5,0,2,NaN,1,2,545,1,1,545,1,0,1.6,NaN,0.0108024701397663,0.0108024701397663,750,0,0,neutral,1,1293.05181317527,721.50957209933
31,104,4,505,0.5,0.5,0.5,4,2,1,4,355,1,1,355,1,0,1.8,NaN,-1.65058824149111,-1.65058824149111,750,0,0,incongruent,1,2455.82790713301,2480.37043789256
31,104,4,506,-0.5,0.5,-0.5,1,1,1,1,552,1,1,552,1,0,1.8,0.8,0.0720116016209039,0.0720116016209039,750,1,0,congruent,0.1,1690.98658230864,1554.40154796057
31,104,4,507,-0.5,-0.5,-0.5,2,2,1,3,534,0,1,NaN,1,0,1.6,0.8,-0.0853833079020213,NaN,750,0,1,congruent,0.1,6310.73466004934,1001.57736323777
31,104,4,508,-0.5,0.5,0.5,3,4,1,3,600,1,1,600,1,0,1.6,1,0.491731360348704,0.491731360348704,750,0,0,incongruent,0.1,1319.90128678562,866.984772961139
31,104,4,509,0.5,-0.5,-0.5,1,1,1,1,548,1,1,548,1,0,1.4,NaN,0.0370349550602538,0.0370349550602538,750,1,0,congruent,1,956.384944859965,1517.37635070607
31,104,4,510,0.5,-0.5,0.5,4,3,1,4,557,1,1,557,1,0,1.4,NaN,0.115732409821716,0.115732409821716,750,0,0,incongruent,1,1227.35755645244,2550.02829786075
31,104,4,511,-0.5,-0.5,-0.5,2,2,1,2,538,1,1,538,1,0,1.4,0.8,-0.0504066613413713,-0.0504066613413713,750,1,0,congruent,0.1,1877.73088207044,1216.1262194598
31,104,4,512,-0.5,0.5,0.5,3,1,1,3,468,1,1,468,1,0,1.4,1,-0.662497976152747,-0.662497976152747,750,0,0,incongruent,0.1,2154.34818293778,2584.07925881465
31,104,4,513,0.5,0.5,0,1,NaN,1,1,521,1,1,521,1,0,1.4,NaN,-0.199057409224134,-0.199057409224134,750,0,0,neutral,1,3097.4895878758,212.500060381045
31,104,4,514,0.5,-0.5,-0.5,4,4,1,4,543,1,1,543,1,0,1.6,NaN,-0.00668585314055874,-0.00668585314055874,750,1,0,congruent,1,1950.51884763932,1233.71945314763
31,104,4,515,0.5,0.5,0,2,NaN,1,2,611,1,1,611,1,0,1.6,NaN,0.587917138390492,0.587917138390492,750,0,0,neutral,1,596.398050371105,923.801573500457
31,104,4,516,-0.5,-0.5,0.5,4,3,1,3,623,0,1,NaN,1,0,1.6,0.8,0.692847078072442,NaN,750,1,0,incongruent,0.1,1365.07238198474,1749.38790919844
31,104,4,517,0.5,0.5,-0.5,1,1,1,1,325,1,1,325,1,0,1.6,NaN,-1.91291309069599,-1.91291309069599,750,1,0,congruent,1,1163.18976841863,986.293947761481
31,104,4,519,-0.5,-0.5,0,3,NaN,1,4,614,0,1,NaN,1,0,1.6,1,0.614149623310979,NaN,750,0,1,neutral,0.1,1878.81895640641,2437.51859843184
31,104,4,520,0.5,0.5,-0.5,2,2,1,2,479,1,1,479,1,0,1.4,NaN,-0.566312198110959,-0.566312198110959,750,1,0,congruent,1,3811.58756187774,1252.83682995874
31,104,4,521,-0.5,-0.5,-0.5,3,3,1,3,614,1,1,614,1,0,1.4,1,0.614149623310979,0.614149623310979,750,1,0,congruent,0.1,1667.74565041514,1412.93179024144
31,104,4,522,0.5,-0.5,0,1,NaN,1,1,722,1,1,722,1,0,1.4,NaN,1.55851908044853,1.55851908044853,750,0,0,neutral,1,1735.09503557281,3617.85406707877
31,104,4,523,0.5,0.5,0.5,3,4,1,3,608,1,1,608,1,0,1.4,NaN,0.561684653470004,0.561684653470004,750,0,0,incongruent,1,1604.31203864277,650.569085101044
31,104,4,524,-0.5,-0.5,0.5,4,3,1,4,585,1,1,585,1,0,1.6,1,0.360568935746267,0.360568935746267,750,0,0,incongruent,0.1,1719.06273738281,2668.39723742392
31,104,4,525,-0.5,0.5,0.5,3,2,1,3,781,1,0,781,0,0,1.6,1,2.07442461721812,2.07442461721812,750,0,0,incongruent,0,878.26029657731,2510.83193085207
31,104,4,526,0.5,-0.5,-0.5,4,4,0.8,4,723,1,1,723,1,0,1.2,NaN,1.56726324208869,1.56726324208869,750,1,0,congruent,1,920.385480687071,1345.37922447316
31,104,4,527,-0.5,0.5,0,2,NaN,0.8,2,649,1,1,649,1,0,1.4,0.8,0.920195280716667,0.920195280716667,750,0,0,neutral,0.1,1174.13566784639,745.818480324982
31,104,4,528,-0.5,-0.5,0.5,3,2,0.8,3,727,1,1,727,1,0,1.2,1,1.60223988864934,1.60223988864934,750,0,0,incongruent,0.1,3099.02118784501,1457.58002481806
31,104,4,529,0.5,0.5,0,2,NaN,0.8,2,597,1,1,597,1,0,1,NaN,0.465498875428217,0.465498875428217,750,0,0,neutral,1,1814.16504763058,1039.76991494505
31,104,4,530,0.5,-0.5,-0.5,3,3,0.8,3,524,1,1,524,1,0,1.2,NaN,-0.172824924303646,-0.172824924303646,750,1,0,congruent,1,1764.67206664998,599.457342354556
31,104,4,531,0.5,-0.5,0.5,1,2,0.8,1,523,1,1,523,0,0,1.6,NaN,-0.181569085943809,-0.181569085943809,750,0,0,incongruent,0,6843.67006253539,1360.866462213
31,104,4,532,0.5,0.5,-0.5,3,3,0.8,3,447,1,1,447,1,0,1.2,NaN,-0.84612537059616,-0.84612537059616,750,1,0,congruent,1,3161.0007084762,611.388929696325
31,104,4,533,0.5,-0.5,-0.5,4,4,0.8,4,569,1,1,569,1,0,1.4,NaN,0.220662349503667,0.220662349503667,750,1,0,congruent,1,1136.58121119599,986.411515306787
31,104,4,534,0.5,-0.5,0,2,NaN,0.8,2,546,1,1,546,1,0,1.6,NaN,0.0195466317799288,0.0195466317799288,750,0,0,neutral,1,418.5236609305,357.951401707799
31,104,4,535,0.5,0.5,0.5,1,2,0.8,1,380,1,1,380,1,0,1.6,NaN,-1.43198420048705,-1.43198420048705,750,0,0,incongruent,1,1574.87825783606,1006.5070985886
31,104,4,536,-0.5,-0.5,-0.5,3,3,0.8,3,661,1,1,661,1,0,1.6,1,1.02512522039862,1.02512522039862,750,1,0,congruent,0.1,3004.55384580135,2224.96252117992
31,104,4,537,0.5,-0.5,-0.5,2,2,0.8,2,508,1,1,508,1,0,1.8,NaN,-0.312731510546247,-0.312731510546247,750,1,0,congruent,1,1988.05634347478,1474.91921523762
31,104,4,538,0.5,-0.5,-0.5,1,1,0.8,1,432,1,1,432,1,0,1.8,NaN,-0.977287795198597,-0.977287795198597,750,1,0,congruent,1,1680.74841965983,328.388414609289
31,104,4,539,0.5,-0.5,0,2,NaN,0.8,2,558,1,1,558,1,0,1.8,NaN,0.124476571461879,0.124476571461879,750,0,0,neutral,1,1001.69233134862,797.143931143287
31,104,4,540,-0.5,0.5,0.5,3,1,0.8,3,489,1,1,489,1,0,1.8,0.8,-0.478870581709334,-0.478870581709334,750,0,0,incongruent,0.1,1303.91649394647,302.864612812918
31,104,4,541,-0.5,0.5,0,1,NaN,1,1,444,1,1,444,1,0,1.6,0.8,-0.872357855516647,-0.872357855516647,750,0,0,neutral,0.1,3067.14253556467,528.892067727785
31,104,4,542,-0.5,0.5,0.5,4,2,1,4,632,1,1,632,1,0,1.6,0.8,0.771544532833905,0.771544532833905,750,0,0,incongruent,0.1,1374.18468358956,979.723264273471
31,104,4,543,0.5,0.5,0.5,2,4,1,2,623,1,1,623,1,0,1.4,NaN,0.692847078072442,0.692847078072442,750,0,0,incongruent,1,4898.08707841352,1249.63881888153
31,104,4,544,-0.5,-0.5,0,1,NaN,1,1,587,1,1,587,1,0,1.4,1,0.378057259026592,0.378057259026592,750,0,0,neutral,0.1,4895.64375797969,774.777112887225
31,104,4,545,0.5,-0.5,0.5,4,3,1,4,631,1,1,631,1,0,1.2,NaN,0.762800371193742,0.762800371193742,750,0,0,incongruent,1,7449.58645919516,1694.88110063527
31,104,4,546,-0.5,-0.5,0.5,2,4,1,2,709,1,1,709,1,0,1.4,1,1.44484497912642,1.44484497912642,750,0,0,incongruent,0.1,6223.7693138178,1461.25109293338
31,104,4,547,0.5,-0.5,0.5,4,2,1,4,561,1,1,561,1,0,1.4,NaN,0.150709056382366,0.150709056382366,750,0,0,incongruent,1,1953.56637635042,785.059178375956
31,104,4,548,-0.5,-0.5,0.5,1,3,1,1,405,1,1,405,1,0,1.6,1,-1.21338015948299,-1.21338015948299,750,0,0,incongruent,0.1,805.944819234547,1293.91734164632
31,104,4,549,-0.5,0.5,0,2,NaN,1,2,477,1,1,477,1,0,1.4,0.8,-0.583800521391284,-0.583800521391284,750,0,0,neutral,0.1,990.597142760058,2076.91886950474
31,104,4,550,0.5,-0.5,-0.5,3,3,1,3,517,1,1,517,1,0,1.4,NaN,-0.234034055784784,-0.234034055784784,750,1,0,congruent,1,1570.89905768121,1524.22386576923
31,104,4,551,0.5,-0.5,0,1,NaN,1,1,405,1,1,405,1,0,1.4,NaN,-1.21338015948299,-1.21338015948299,750,0,0,neutral,1,2680.64712691941,6255.17959935768
31,104,4,552,-0.5,0.5,-0.5,4,4,1,4,527,1,1,527,1,0,1.6,1,-0.146592439383159,-0.146592439383159,750,1,0,congruent,0.1,595.910280969245,191.190775289845
31,104,4,553,-0.5,-0.5,0,3,NaN,1,2,609,0,1,NaN,1,0,1.4,1,0.570428815110167,NaN,750,0,1,neutral,0.1,5357.48862604807,1567.26208371363
31,104,4,554,-0.5,-0.5,-0.5,2,2,1,2,942,1,0,942,1,0,1.4,1,3.48223464128428,3.48223464128428,750,1,0,congruent,0.1,1143.47307650133,106.759996199711
31,104,4,555,0.5,0.5,0.5,4,1,1,3,591,0,1,NaN,0,0,1.4,NaN,0.413033905587242,NaN,750,0,1,incongruent,0,2397.78199213231,916.534313792592
31,104,4,556,0.5,0.5,0.5,3,2,0.8,3,633,1,1,633,1,0,1,NaN,0.780288694474067,0.780288694474067,750,0,0,incongruent,1,2882.00557225344,3572.45475222479
31,104,4,557,-0.5,0.5,0,1,NaN,0.8,1,499,1,1,499,1,0,1,1,-0.391428965307709,-0.391428965307709,750,0,0,neutral,0.1,2175.59451483487,1098.36144382697
31,104,4,558,0.5,-0.5,0.5,4,2,0.8,4,629,1,1,629,1,0,1,NaN,0.745312047913417,0.745312047913417,750,0,0,incongruent,1,3163.10369982752,460.971448853827
31,104,4,559,-0.5,0.5,-0.5,3,3,0.8,3,433,1,1,433,1,0,1.2,1,-0.968543633558435,-0.968543633558435,750,1,0,congruent,0.1,1557.66916111618,1775.28760979882
31,104,4,560,-0.5,0.5,0.5,4,2,0.8,4,491,1,1,491,1,0,1.2,1,-0.461382258429009,-0.461382258429009,750,0,0,incongruent,0.1,1784.36946727308,847.234034724643
31,104,4,561,-0.5,-0.5,-0.5,3,3,0.8,3,358,1,1,358,0,0,1.4,1,-1.62435575657062,-1.62435575657062,750,1,0,congruent,0,3255.5756438453,840.600142338534
31,104,4,562,0.5,0.5,0.5,2,4,0.8,2,532,1,1,532,1,0,1,NaN,-0.102871631182346,-0.102871631182346,750,0,0,incongruent,1,1207.53734021722,465.761194905896
31,104,4,563,-0.5,-0.5,0,1,NaN,1,1,551,1,1,551,1,0,1.2,0.8,0.0632674399807413,0.0632674399807413,750,0,0,neutral,0.1,1948.48367937135,782.07339424688
31,104,4,564,-0.5,0.5,0.5,3,2,1,4,472,0,1,NaN,0,0,1,1,-0.627521329592097,NaN,750,0,1,incongruent,0,3501.60098320889,1992.8544805105
31,104,4,565,-0.5,0.5,0.5,2,3,0.8,2,605,1,1,605,1,0,0.8,0.8,0.535452168549517,0.535452168549517,750,0,0,incongruent,0.1,764.43517691155,1172.98875236715
31,104,4,566,0.5,0.5,0.5,3,4,0.8,3,572,1,1,572,1,0,0.8,NaN,0.246894834424154,0.246894834424154,750,0,0,incongruent,1,1058.96850860611,1227.25104779442
31,104,4,567,0.5,0.5,0.5,2,1,0.8,2,748,1,1,748,1,0,1.2,NaN,1.78586728309276,1.78586728309276,750,0,0,incongruent,1,1073.8145018265,920.892731366932
31,104,4,568,-0.5,0.5,-0.5,4,4,0.8,4,579,1,1,579,1,0,1.2,0.8,0.308103965905292,0.308103965905292,750,1,0,congruent,0.1,3341.87940846262,895.764037840527
31,104,4,569,0.5,-0.5,0.5,2,3,0.8,2,685,1,1,685,1,0,1.2,NaN,1.23498509976252,1.23498509976252,750,0,0,incongruent,1,1446.84699089689,1054.78061052492
31,104,4,570,-0.5,-0.5,-0.5,4,4,0.8,3,459,0,1,NaN,1,0,1.6,0.8,-0.74119543091421,NaN,750,0,1,congruent,0.1,1159.25457180287,478.479344872392
31,104,4,571,-0.5,-0.5,-0.5,2,2,0.8,2,608,1,1,608,1,0,1.6,0.8,0.561684653470004,0.561684653470004,750,1,0,congruent,0.1,1311.07824258071,2194.21074026001
31,104,4,572,-0.5,0.5,0,4,NaN,0.8,4,585,1,1,585,1,0,1.4,0.8,0.360568935746267,0.360568935746267,750,0,0,neutral,0.1,1411.10930239719,517.245502455508
31,104,4,573,-0.5,-0.5,0.5,1,4,1,1,550,1,1,550,1,0,1.2,0.8,0.0545232783405788,0.0545232783405788,750,0,0,incongruent,0.1,1271.62366184302,361.543860304745
31,104,4,574,-0.5,-0.5,-0.5,3,3,1,3,624,1,1,624,1,0,1.2,0.8,0.701591239712605,0.701591239712605,750,1,0,congruent,0.1,1852.40478507114,3532.0303571442
31,104,4,575,-0.5,-0.5,0.5,1,2,1,2,443,0,1,NaN,1,0,1,1,-0.88110201715681,NaN,750,1,0,incongruent,0.1,8834.31114413179,782.438776749867
31,104,4,576,0.5,-0.5,0.5,2,4,1,1,859,0,0,NaN,1,0,1,NaN,2.75646922515079,NaN,750,0,1,incongruent,1,389.27886438283,2334.12221258715
31,104,4,577,0.5,-0.5,0,1,NaN,1,1,516,1,1,516,1,0,1.2,NaN,-0.242778217424947,-0.242778217424947,750,0,0,neutral,1,1972.98503143234,1062.55436720265
31,104,4,578,0.5,-0.5,-0.5,3,3,1,3,425,1,1,425,1,0,1.4,NaN,-1.03849692667974,-1.03849692667974,750,1,0,congruent,1,2701.6311554387,4606.92895408641
31,104,4,579,-0.5,-0.5,0,2,NaN,1,2,613,1,1,613,1,0,1.6,1,0.605405461670817,0.605405461670817,750,0,0,neutral,0.1,1769.45853096161,1048.73188484634
31,104,4,580,0.5,-0.5,0.5,4,3,1,3,739,0,1,NaN,1,0,1.6,NaN,1.70716982833129,NaN,750,1,0,incongruent,1,4732.0078057624,1285.63170543428
31,104,4,581,-0.5,0.5,-0.5,2,2,1,2,553,1,1,553,1,0,1.8,0.8,0.0807557632610664,0.0807557632610664,750,1,0,congruent,0.1,1563.42846843067,672.88984293187
31,104,4,582,0.5,0.5,0.5,4,1,1,3,640,0,1,NaN,0,0,1.6,NaN,0.841497825955205,NaN,750,0,1,incongruent,0,2491.90574534513,890.326660791818
31,104,4,583,-0.5,0.5,0,3,NaN,0.8,3,639,1,1,639,1,0,1.2,0.8,0.832753664315042,0.832753664315042,750,0,0,neutral,0.1,1118.47097409535,683.469059591312
31,104,4,584,0.5,0.5,0.5,4,3,0.8,4,563,1,1,563,1,0,1,NaN,0.168197379662691,0.168197379662691,750,0,0,incongruent,1,1420.5296696356,1857.11258407315
31,104,4,585,0.5,0.5,0,3,NaN,0.8,3,629,1,1,629,1,0,1.2,NaN,0.745312047913417,0.745312047913417,750,0,0,neutral,1,4324.47065590594,1602.53405508856
31,104,4,586,-0.5,0.5,-0.5,1,1,0.8,1,578,1,1,578,1,0,1.2,1,0.299359804265129,0.299359804265129,750,1,0,congruent,0.1,1568.97264846924,1185.55178930343
31,104,4,587,0.5,0.5,-0.5,2,2,0.8,2,503,1,1,503,1,0,1.2,NaN,-0.356452318747059,-0.356452318747059,750,1,0,congruent,1,3537.44318224337,1578.05109494511
31,104,4,588,-0.5,-0.5,-0.5,1,1,1,1,450,1,1,450,1,0,1.6,1,-0.819892885675672,-0.819892885675672,750,1,0,congruent,0.1,2433.1217691275,1141.4764240968
31,104,4,589,-0.5,0.5,-0.5,4,4,1,4,654,1,1,654,1,0,1.6,1,0.96391608891748,0.96391608891748,750,1,0,congruent,0.1,796.392546063725,752.532403757113
31,104,4,590,0.5,-0.5,-0.5,1,1,1,2,538,0,1,NaN,1,0,1.4,NaN,-0.0504066613413713,NaN,750,0,1,congruent,1,2553.5864027865,2050.70389972489
31,104,4,591,0.5,-0.5,-0.5,4,4,1,3,602,0,1,NaN,1,0,1.4,NaN,0.509219683629029,NaN,750,0,1,congruent,1,1710.59260995042,1586.65757230643
31,104,4,592,-0.5,0.5,-0.5,3,3,1,3,579,1,1,579,1,0,1.6,1,0.308103965905292,0.308103965905292,750,1,0,congruent,0.1,1571.48472602324,1467.2462099136
31,104,4,593,-0.5,-0.5,0.5,1,2,1,1,436,1,1,436,1,0,1.4,1,-0.942311148637947,-0.942311148637947,750,0,0,incongruent,0.1,3412.19412918234,1836.53302129089
31,104,4,594,-0.5,-0.5,0,4,NaN,1,4,500,1,1,500,1,0,1.4,1,-0.382684803667547,-0.382684803667547,750,0,0,neutral,0.1,2745.61179278473,1484.22351942942
31,104,4,595,-0.5,-0.5,-0.5,1,1,1,1,561,1,1,561,1,0,1.4,1,0.150709056382366,0.150709056382366,750,1,0,congruent,0.1,572.339147961563,890.661454520419
31,104,4,596,-0.5,-0.5,0,2,NaN,1,2,492,1,1,492,1,0,1.2,1,-0.452638096788847,-0.452638096788847,750,0,0,neutral,0.1,2342.53439648565,759.474725749791
31,104,4,597,-0.5,0.5,-0.5,4,4,1,4,510,1,1,510,1,0,1,1,-0.295243187265922,-0.295243187265922,750,1,0,congruent,0.1,1010.8414312708,760.028354881608
31,104,4,598,0.5,-0.5,-0.5,2,2,1,2,641,1,1,641,1,0,1,NaN,0.850241987595367,0.850241987595367,750,1,0,congruent,1,1832.90626920409,1984.39038752856
31,104,4,599,-0.5,-0.5,0,1,NaN,1,1,636,1,1,636,1,0,1.2,1,0.806521179394555,0.806521179394555,750,0,0,neutral,0.1,1740.783082058,985.067236355757
31,104,4,600,-0.5,0.5,0.5,2,3,1,2,485,1,1,485,1,0,1.2,1,-0.513847228269984,-0.513847228269984,750,0,0,incongruent,0.1,9426.61722710047,1663.27916295907
