subid,vers,block,trial,rewlvl,efflvl,congruency,targetresp,distractorresp,rollingefflvl,resp,rt,acc,fast,accrt,isrewarded,ismiss,runavgrrgen,runavgrrcond,zrt,acczrt,rtthreshold,isdisterror,isranderror,congruence,feedback,fcz_resp_theta,fcz_resp_theta_baseline
32,104,1,1,-0.5,0.5,0,1,NaN,0.5,1,558,1,1,558,1,0,0,0,-0.477144234566077,-0.477144234566077,750,0,0,neutral,0.1,3751.57987321277,995.671585278651
32,104,1,2,0.5,-0.5,0.5,2,4,0.5,4,780,0,0,NaN,1,0,0.2,NaN,1.09771108647579,NaN,750,1,0,incongruent,1,1467.92812923966,897.671799353285
32,104,1,3,0.5,-0.5,-0.5,3,3,0.5,3,627,1,1,627,1,0,0.6,NaN,0.0123378246766651,0.0123378246766651,750,1,0,congruent,1,5270.20740011895,6481.29632578148
32,104,1,4,0.5,-0.5,0,4,NaN,0.5,4,554,1,1,554,0,0,1,NaN,-0.505520006116381,-0.505520006116381,750,0,0,neutral,0,5509.14461428239,2073.78773864345
32,104,1,5,0.5,0.5,0.5,1,4,0.5,1,917,1,0,917,0,0,1,NaN,2.0695812620737,2.0695812620737,750,0,0,incongruent,0,718.960462656092,7168.38423666165
32,104,1,6,-0.5,0.5,-0.5,3,3,0.4,3,684,1,1,684,1,0,1,0.2,0.416692569268495,0.416692569268495,750,1,0,congruent,0.1,1850.03112314613,2693.83656289045
32,104,1,7,-0.5,-0.5,0,1,NaN,0.5,1,539,1,1,539,1,0,1,0,-0.61192914943002,-0.61192914943002,750,0,0,neutral,0.1,1615.23869974469,1801.29698785736
32,104,1,8,0.5,0.5,-0.5,2,2,0.5,2,768,1,0,768,0,0,0.8,NaN,1.01258377182488,1.01258377182488,750,1,0,congruent,0,24652.8518959994,5628.82941997573
32,104,1,9,0.5,0.5,0,4,NaN,0.4,4,617,1,1,617,1,0,0.4,NaN,-0.0586016041990946,-0.0586016041990946,750,0,0,neutral,1,4622.19282019683,1166.75811890729
32,104,1,10,-0.5,0.5,0.5,2,3,0.6,2,951,1,0,951,0,0,0.8,0.4,2.31077532025128,2.31077532025128,750,0,0,incongruent,0,13035.7432052877,753.186551448964
32,104,1,11,-0.5,-0.5,-0.5,4,4,0.4,4,567,1,1,567,1,0,0.8,0.2,-0.413298748577893,-0.413298748577893,750,1,0,congruent,0.1,3834.31577696527,1897.3659362364
32,104,1,12,0.5,-0.5,-0.5,1,1,0.4,1,507,1,1,507,1,0,0.8,NaN,-0.838935321832451,-0.838935321832451,750,1,0,congruent,1,4516.00006214395,1007.6088771883
32,104,1,13,0.5,0.5,0,4,NaN,0.4,4,788,1,0,788,0,0,1,NaN,1.1544626295764,1.1544626295764,750,0,0,neutral,0,5701.62940385076,3674.27363831859
32,104,1,14,0.5,0.5,-0.5,2,2,0.4,2,600,1,1,600,1,0,1,NaN,-0.179198633287886,-0.179198633287886,750,1,0,congruent,1,3607.25704536924,3135.86476551444
32,104,1,15,-0.5,0.5,0.5,3,4,0.4,3,758,1,0,758,0,0,1,0.4,0.941644342949117,0.941644342949117,750,0,0,incongruent,0,2942.71683857092,1183.64213187164
32,104,1,16,0.5,-0.5,-0.5,1,1,0.4,1,516,1,1,516,1,0,1,NaN,-0.775089835844267,-0.775089835844267,750,1,0,congruent,1,4675.77431162294,1379.85582492248
32,104,1,17,-0.5,0.5,0,4,NaN,0.4,4,538,1,1,538,1,0,1.2,0.4,-0.619023092317596,-0.619023092317596,750,0,0,neutral,0.1,1891.34872820477,4165.46800183951
32,104,1,18,-0.5,0.5,0.5,3,4,0.4,3,810,1,0,810,0,0,1,0.6,1.31052937310307,1.31052937310307,750,0,0,incongruent,0,2106.42352834498,5461.2040441702
32,104,1,19,-0.5,0.5,-0.5,1,1,0.4,1,504,1,1,504,1,0,1,0.4,-0.860217150495179,-0.860217150495179,750,1,0,congruent,0.1,3545.99033389309,2452.37885283291
32,104,1,20,0.5,-0.5,-0.5,4,4,0.6,4,509,1,1,509,0,0,0.8,NaN,-0.824747436057299,-0.824747436057299,750,1,0,congruent,0,1026.28665457825,2220.3206709007
32,104,1,21,-0.5,-0.5,0.5,1,3,0.6,1,581,1,1,581,0,0,0.8,0.4,-0.313983548151829,-0.313983548151829,750,0,0,incongruent,0,7141.35507631347,1151.31000372414
32,104,1,22,0.5,0.5,0,2,NaN,0.6,2,646,1,1,646,1,0,0.4,NaN,0.147122739540609,0.147122739540609,750,0,0,neutral,1,5247.86185298012,813.223231372247
32,104,1,23,0.5,0.5,0.5,4,1,0.6,3,889,0,0,NaN,0,0,0.6,NaN,1.87095086122157,NaN,750,0,1,incongruent,0,5376.26532179928,10832.2046198485
32,104,1,24,0.5,-0.5,0,2,NaN,0.6,2,623,1,1,623,0,0,0.6,NaN,-0.0160379468736387,-0.0160379468736387,750,0,0,neutral,0,3364.24429700978,3135.27393489216
32,104,1,25,-0.5,0.5,-0.5,3,3,0.6,3,576,1,1,576,1,0,0.4,0.4,-0.349453262589709,-0.349453262589709,750,1,0,congruent,0.1,4523.62907413664,3166.2392340177
32,104,1,26,0.5,-0.5,0,2,NaN,0.6,2,605,1,1,605,1,0,0.6,NaN,-0.143728918850006,-0.143728918850006,750,0,0,neutral,1,1867.98891511773,4586.49979835672
32,104,1,27,0.5,-0.5,0.5,4,1,0.6,4,817,1,0,817,1,0,1,NaN,1.3601869733161,1.3601869733161,750,0,0,incongruent,1,1814.63654067159,1354.6370249568
32,104,1,28,0.5,-0.5,0,2,NaN,0.6,2,563,1,1,563,1,0,1,NaN,-0.441674520128197,-0.441674520128197,750,0,0,neutral,1,3828.08258537128,3212.38023860155
32,104,1,29,0.5,0.5,0.5,4,1,0.6,4,933,1,0,933,0,0,1.4,NaN,2.18308434827491,2.18308434827491,750,0,0,incongruent,0,1347.54102250169,2134.66457731158
32,104,1,30,0.5,0.5,-0.5,2,2,0.6,2,499,1,1,499,1,0,1.4,NaN,-0.895686864933059,-0.895686864933059,750,1,0,congruent,1,4372.4207269997,16771.4631293045
32,104,1,31,-0.5,-0.5,0.5,3,1,0.6,1,704,0,1,NaN,1,0,1.6,0.4,0.558571427020015,NaN,750,1,0,incongruent,0.1,35795.7246624478,2477.74993604364
32,104,1,32,0.5,-0.5,0,1,NaN,0.6,1,538,1,1,538,1,0,1.4,NaN,-0.619023092317596,-0.619023092317596,750,0,0,neutral,1,3804.36616574199,661.251195285126
32,104,1,33,0.5,0.5,-0.5,3,3,0.6,3,496,1,1,496,1,0,1.4,NaN,-0.916968693595787,-0.916968693595787,750,1,0,congruent,1,2517.86476287209,2026.02756691854
32,104,1,34,0.5,-0.5,0.5,4,2,0.6,4,822,1,0,822,1,0,1.4,NaN,1.39565668775398,1.39565668775398,750,0,0,incongruent,1,2158.99763183642,5476.14849045419
32,104,1,35,0.5,-0.5,-0.5,1,1,0.6,1,535,1,1,535,1,0,1.8,NaN,-0.640304920980324,-0.640304920980324,750,1,0,congruent,1,3773.02935314521,1246.4464856678
32,104,1,36,0.5,0.5,-0.5,2,2,0.6,2,552,1,1,552,1,0,1.8,NaN,-0.519707891891532,-0.519707891891532,750,1,0,congruent,1,2831.27122434998,1352.95990739644
32,104,1,37,-0.5,-0.5,0,1,NaN,0.8,1,458,1,1,458,1,0,2,0.6,-1.18653852332367,-1.18653852332367,750,0,0,neutral,0.1,7820.49793296317,1085.15184950751
32,104,1,38,-0.5,-0.5,-0.5,4,4,0.8,4,433,1,1,433,1,0,1.8,0.8,-1.36388709551307,-1.36388709551307,750,1,0,congruent,0.1,4933.8134937285,3472.33869297395
32,104,1,39,0.5,-0.5,-0.5,3,3,0.8,3,549,1,1,549,1,0,1.6,NaN,-0.54098972055426,-0.54098972055426,750,1,0,congruent,1,2858.29048198816,5175.66076839713
32,104,1,40,0.5,0.5,0,1,NaN,0.8,1,487,1,1,487,1,0,1.6,NaN,-0.98081417958397,-0.98081417958397,750,0,0,neutral,1,2654.86919281116,911.065210667609
32,104,1,41,-0.5,-0.5,0.5,3,1,0.8,3,802,1,0,802,1,0,1.6,0.8,1.25377783000246,1.25377783000246,750,0,0,incongruent,0.1,7792.83203734012,1803.46509343885
32,104,1,42,-0.5,0.5,0,2,NaN,0.8,2,580,1,1,580,1,0,1.4,0.6,-0.321077491039405,-0.321077491039405,750,0,0,neutral,0.1,1763.55928711222,1920.84097647735
32,104,1,44,-0.5,-0.5,0.5,1,3,0.8,1,859,1,0,859,0,0,1.2,0.8,1.65813257459429,1.65813257459429,750,0,0,incongruent,0,5501.49838456394,5858.27962216416
32,104,1,45,0.5,0.5,0.5,2,1,0.8,2,673,1,1,673,1,0,0.8,NaN,0.33865919750516,0.33865919750516,750,0,0,incongruent,1,3030.96447066086,3415.89601735423
32,104,1,47,0.5,0.5,0,2,NaN,0.6,2,558,1,1,558,1,0,0.6,NaN,-0.477144234566077,-0.477144234566077,750,0,0,neutral,1,1362.7494483259,1235.32686482133
32,104,1,48,0.5,-0.5,-0.5,3,3,0.6,3,945,1,0,945,1,0,0.8,NaN,2.26821166292582,2.26821166292582,750,1,0,congruent,1,4941.22363326866,8319.10643138092
32,104,1,49,0.5,0.5,0.5,1,2,0.6,1,876,1,0,876,0,0,1.2,NaN,1.77872960368308,1.77872960368308,750,0,0,incongruent,0,4498.263035967,920.991226397139
32,104,1,51,-0.5,0.5,-0.5,4,4,0.4,4,485,1,1,485,1,0,1.2,0.6,-0.995002065359122,-0.995002065359122,750,1,0,congruent,0.1,2034.90394984483,2383.28709173108
32,104,1,52,0.5,-0.5,0,3,NaN,0.6,3,599,1,1,599,1,0,1.4,NaN,-0.186292576175462,-0.186292576175462,750,0,0,neutral,1,1253.98231158016,1381.63724842083
32,104,1,53,-0.5,0.5,0.5,4,2,0.6,2,571,0,1,NaN,0,0,1.4,0.8,-0.384922977027589,NaN,750,1,0,incongruent,0,6328.37375613151,1649.68233157564
32,104,1,54,0.5,-0.5,0,2,NaN,0.4,1,488,0,1,NaN,0,0,1,NaN,-0.973720236696394,NaN,750,0,1,neutral,0,1433.48363964979,3953.61482195534
32,104,1,55,0.5,-0.5,-0.5,4,4,0.4,4,495,1,1,495,0,0,1,NaN,-0.924062636483363,-0.924062636483363,750,1,0,congruent,0,2863.23243839131,2254.24724504895
32,104,1,56,-0.5,-0.5,0,2,NaN,0.4,2,480,1,1,480,1,0,0.6,0.8,-1.030471779797,-1.030471779797,750,0,0,neutral,0.1,3254.40888092727,5430.76160838357
32,104,1,57,0.5,0.5,0.5,1,2,0.4,1,825,1,0,825,0,0,0.6,NaN,1.41693851641671,1.41693851641671,750,0,0,incongruent,0,5381.50588613866,2150.69253615173
32,104,1,58,0.5,0.5,-0.5,4,4,0.4,4,452,1,1,452,1,0,0.2,NaN,-1.22910218064913,-1.22910218064913,750,1,0,congruent,1,2444.59778366919,1916.43602852617
32,104,1,59,0.5,-0.5,0,1,NaN,0.4,1,422,1,1,422,0,0,0.6,NaN,-1.44192046727641,-1.44192046727641,750,0,0,neutral,0,8341.1658449805,1704.59420010266
32,104,1,60,0.5,0.5,-0.5,2,2,0.4,2,602,1,1,602,1,0,0.6,NaN,-0.165010747512734,-0.165010747512734,750,1,0,congruent,1,2738.08431207429,3590.25735237736
32,104,1,61,-0.5,-0.5,0.5,3,1,0.6,1,384,0,1,NaN,0,0,1,0.8,-1.7114902970043,NaN,750,1,0,incongruent,0,4097.53155475432,1191.45812826962
32,104,1,62,0.5,-0.5,-0.5,2,2,0.6,2,454,1,1,454,1,0,0.8,NaN,-1.21491429487398,-1.21491429487398,750,1,0,congruent,1,8044.52006999702,1383.42644339822
32,104,1,63,0.5,-0.5,-0.5,1,1,0.6,1,459,1,1,459,0,0,1.2,NaN,-1.1794445804361,-1.1794445804361,750,1,0,congruent,0,1636.10090095353,1030.96306437073
32,104,1,64,-0.5,0.5,-0.5,3,3,0.6,3,553,1,1,553,1,0,0.8,0.6,-0.512613949003957,-0.512613949003957,750,1,0,congruent,0.1,7862.67449645526,3378.90550038761
32,104,1,65,0.5,-0.5,0.5,1,2,0.6,2,519,0,1,NaN,0,0,1,NaN,-0.753808007181539,NaN,750,1,0,incongruent,0,7727.77933327191,1933.55740733408
32,104,1,67,-0.5,0.5,0,3,NaN,0.6,3,509,1,1,509,1,0,0.6,0.4,-0.824747436057299,-0.824747436057299,750,0,0,neutral,0.1,2786.98317115718,2385.55024788733
32,104,1,68,-0.5,0.5,0.5,1,3,0.8,2,800,0,0,NaN,0,0,0.4,0.6,1.23958994422731,NaN,750,0,1,incongruent,0,2621.28611815651,3537.87266876697
32,104,1,69,0.5,0.5,0.5,4,1,0.6,3,916,0,0,NaN,0,0,0.4,NaN,2.06248731918612,NaN,750,0,1,incongruent,0,5291.14380903662,6736.5452817296
32,104,1,70,0.5,0.5,0.5,2,4,0.4,4,640,0,1,NaN,0,0,0.2,NaN,0.104559082215153,NaN,750,1,0,incongruent,0,2357.79003059898,3760.73241119602
32,104,1,71,0.5,0.5,-0.5,3,3,0.2,3,673,1,1,673,1,0,0.2,NaN,0.33865919750516,0.33865919750516,750,1,0,congruent,1,2487.58917065951,2289.77348072462
32,104,1,73,0.5,-0.5,0,2,NaN,0.2,2,506,1,1,506,0,0,0.4,NaN,-0.846029264720027,-0.846029264720027,750,0,0,neutral,0,3464.29197459979,2585.78468355961
32,104,1,74,-0.5,0.5,-0.5,4,4,0.2,4,780,1,0,780,0,0,0.4,0.4,1.09771108647579,1.09771108647579,750,1,0,congruent,0,2988.0448289979,2138.63016434239
32,104,1,75,-0.5,0.5,-0.5,3,3,0.2,3,648,1,1,648,1,0,0.4,0.4,0.16131062531576,0.16131062531576,750,1,0,congruent,0.1,1659.6143905512,4404.05338756789
32,104,1,76,-0.5,0.5,0,2,NaN,0.4,2,567,1,1,567,1,0,0.6,0.4,-0.413298748577893,-0.413298748577893,750,0,0,neutral,0.1,4778.37741636967,1070.42695030893
32,104,1,77,0.5,-0.5,-0.5,3,3,0.6,3,752,1,0,752,0,0,0.4,NaN,0.899080685623661,0.899080685623661,750,1,0,congruent,0,11867.5995231484,3676.96764564252
32,104,1,78,-0.5,-0.5,0.5,1,2,0.6,1,620,1,1,620,1,0,0.4,0.6,-0.0373197755363667,-0.0373197755363667,750,0,0,incongruent,0.1,9183.01411455909,943.220704607807
32,104,1,79,-0.5,-0.5,-0.5,4,4,0.6,4,416,1,1,416,1,0,0.6,0.6,-1.48448412460186,-1.48448412460186,750,1,0,congruent,0.1,1002.64184918769,1097.83948508815
32,104,1,80,-0.5,-0.5,0.5,2,3,0.6,3,632,0,1,NaN,1,0,0.8,0.6,0.047807539114545,NaN,750,1,0,incongruent,0.1,3484.32883388455,881.252935599101
32,104,1,81,0.5,-0.5,0,1,NaN,0.6,1,462,1,1,462,0,0,0.8,NaN,-1.15816275177337,-1.15816275177337,750,0,0,neutral,0,1323.42214012883,1815.32167252211
32,104,1,82,-0.5,0.5,-0.5,3,3,0.6,3,634,1,1,634,1,0,0.6,0.6,0.0619954248896969,0.0619954248896969,750,1,0,congruent,0.1,2946.67221019965,6269.9666750798
32,104,1,83,0.5,-0.5,0.5,1,2,0.6,1,628,1,1,628,0,0,0.8,NaN,0.0194317675642411,0.0194317675642411,750,0,0,incongruent,0,1645.11074361148,1489.49826418163
32,104,1,84,0.5,0.5,-0.5,4,4,0.6,4,494,1,1,494,1,0,0.6,NaN,-0.931156579370939,-0.931156579370939,750,1,0,congruent,1,4005.30316872724,4135.59869428384
32,104,1,85,-0.5,0.5,0,3,NaN,0.8,3,606,1,1,606,1,0,0.8,0.6,-0.13663497596243,-0.13663497596243,750,0,0,neutral,0.1,5640.96551217619,3291.04011801411
32,104,1,86,0.5,0.5,-0.5,4,4,1,4,473,1,1,473,1,0,0.8,NaN,-1.08012938001003,-1.08012938001003,750,1,0,congruent,1,12937.7704661051,3191.09457229459
32,104,1,87,0.5,0.5,-0.5,2,2,1,2,680,1,1,680,1,0,1.2,NaN,0.388316797718191,0.388316797718191,750,1,0,congruent,1,2702.83961505607,876.939872809219
32,104,1,88,0.5,0.5,0,1,NaN,1,1,400,1,1,400,1,0,1.4,NaN,-1.59798721080308,-1.59798721080308,750,0,0,neutral,1,3209.97235163379,1950.79907379911
32,104,1,89,-0.5,-0.5,0.5,4,1,1,4,857,1,0,857,1,0,1.8,0.8,1.64394468881914,1.64394468881914,750,0,0,incongruent,0.1,3123.42177634862,6358.91193578639
32,104,1,90,-0.5,-0.5,0.5,1,2,1,1,736,1,1,736,1,0,1.6,0.8,0.785577599422446,0.785577599422446,750,0,0,incongruent,0.1,15288.9215116462,4643.04531604615
32,104,1,91,0.5,0.5,0.5,2,4,1,3,971,0,0,NaN,0,0,1.6,NaN,2.4526541780028,NaN,750,0,1,incongruent,0,2649.53323188985,873.556285735951
32,104,1,92,0.5,0.5,0,4,NaN,0.8,4,470,1,1,470,1,0,1.2,NaN,-1.10141120867276,-1.10141120867276,750,0,0,neutral,1,3037.56724956571,4064.91396106308
32,104,1,93,0.5,-0.5,-0.5,2,2,0.8,2,634,1,1,634,1,0,1.2,NaN,0.0619954248896969,0.0619954248896969,750,1,0,congruent,1,1591.50933498618,3522.79262026579
32,104,1,94,-0.5,0.5,0.5,1,3,0.8,1,938,1,0,938,0,0,1.2,0.8,2.21855406271279,2.21855406271279,750,0,0,incongruent,0,2679.70782769579,4763.20352087391
32,104,1,95,-0.5,0.5,-0.5,4,4,0.6,4,501,1,1,501,1,0,1,0.8,-0.881498979157907,-0.881498979157907,750,1,0,congruent,0.1,2962.90162368687,3053.49160393513
32,104,1,96,0.5,0.5,-0.5,1,1,0.6,1,510,1,1,510,1,0,1,NaN,-0.817653493169723,-0.817653493169723,750,1,0,congruent,1,3532.97215077223,1732.64138890071
32,104,1,97,0.5,-0.5,0.5,2,3,0.6,2,928,1,0,928,0,0,1.4,NaN,2.14761463383703,2.14761463383703,750,0,0,incongruent,0,1644.3327589356,4011.633569946
32,104,1,99,0.5,-0.5,0.5,2,3,0.6,1,900,0,0,NaN,1,0,0.8,NaN,1.9489842329849,NaN,750,0,1,incongruent,1,8164.32798547358,3945.28224864945
32,104,1,100,-0.5,0.5,0,3,NaN,0.6,4,559,0,1,NaN,0,0,1.2,0.8,-0.470050291678501,NaN,750,0,1,neutral,0,4990.88659320008,2005.96640046193
32,104,1,101,0.5,-0.5,-0.5,4,4,0.6,4,516,1,1,516,0,0,1,NaN,-0.775089835844267,-0.775089835844267,750,1,0,congruent,0,3761.06810691857,783.377847224075
32,104,1,102,-0.5,0.5,0,2,NaN,0.6,2,740,1,1,740,1,0,0.6,0.6,0.81395337097275,0.81395337097275,750,0,0,neutral,0.1,2683.11740423281,4127.25389786312
32,104,1,103,-0.5,0.5,-0.5,4,4,0.6,4,523,1,1,523,1,0,0.8,0.6,-0.725432235631236,-0.725432235631236,750,1,0,congruent,0.1,2515.71181631901,2309.15950147051
32,104,1,104,-0.5,-0.5,-0.5,1,1,0.8,1,478,1,1,478,1,0,0.8,1,-1.04465966557215,-1.04465966557215,750,1,0,congruent,0.1,2812.91718965972,4199.52403734135
32,104,1,105,-0.5,-0.5,0.5,3,2,0.8,3,940,1,0,940,0,0,0.6,1,2.23274194848794,2.23274194848794,750,0,0,incongruent,0,3020.95292915029,1146.78765085135
32,104,1,106,0.5,0.5,0.5,2,4,0.8,4,824,0,0,NaN,0,0,0.6,NaN,1.40984457352913,NaN,750,1,0,incongruent,0,5210.24262502781,2459.88699232294
32,104,1,107,-0.5,0.5,0.5,4,1,0.6,4,767,1,0,767,0,0,0.6,0.6,1.0054898289373,1.0054898289373,750,0,0,incongruent,0,2225.78090265152,5303.79665566121
32,104,1,108,-0.5,0.5,-0.5,3,3,0.4,3,610,1,1,610,1,0,0.4,0.6,-0.108259204412126,-0.108259204412126,750,1,0,congruent,0.1,3827.96266301304,940.31919613858
32,104,1,109,0.5,-0.5,-0.5,1,1,0.6,1,453,1,1,453,1,0,0.4,NaN,-1.22200823776155,-1.22200823776155,750,1,0,congruent,1,16043.7669664771,5019.60066059344
32,104,1,110,0.5,0.5,-0.5,4,4,0.6,4,532,1,1,532,1,0,0.6,NaN,-0.661586749643052,-0.661586749643052,750,1,0,congruent,1,4921.94290408715,2982.70214720243
32,104,1,111,0.5,-0.5,0,1,NaN,0.6,2,504,0,1,NaN,0,0,1,NaN,-0.860217150495179,NaN,750,0,1,neutral,0,19654.4457098672,4497.15479830031
32,104,1,112,-0.5,0.5,-0.5,2,2,0.6,2,426,1,1,426,1,0,1,0.6,-1.4135446957261,-1.4135446957261,750,1,0,congruent,0.1,5115.44771118016,4319.3934628237
32,104,1,113,-0.5,-0.5,-0.5,1,1,0.6,1,820,1,0,820,1,0,1.2,0.8,1.38146880197883,1.38146880197883,750,1,0,congruent,0.1,1987.32250000495,4569.42108556564
32,104,1,114,-0.5,-0.5,0.5,3,2,0.6,2,653,0,1,NaN,1,0,1.2,0.8,0.19678033975364,NaN,750,1,0,incongruent,0.1,3926.34402631129,5390.52239367949
32,104,1,115,-0.5,0.5,0.5,4,1,0.6,1,486,0,1,NaN,0,0,1,0.8,-0.987908122471546,NaN,750,1,0,incongruent,0,6227.84080298838,2352.38135622448
32,104,1,116,0.5,-0.5,-0.5,2,2,0.6,2,671,1,1,671,0,0,0.6,NaN,0.324471311730008,0.324471311730008,750,1,0,congruent,0,3250.52359382496,1533.96428878245
32,104,1,117,0.5,0.5,0,4,NaN,0.6,4,726,1,1,726,1,0,0.6,NaN,0.714638170546686,0.714638170546686,750,0,0,neutral,1,6559.93402774725,6113.52730145309
32,104,1,118,-0.5,0.5,-0.5,1,1,0.8,1,498,1,1,498,1,0,0.8,0.6,-0.902780807820635,-0.902780807820635,750,1,0,congruent,0.1,3377.0924751164,3078.34391762159
32,104,1,119,0.5,0.5,0,3,NaN,0.8,4,457,0,1,NaN,0,0,0.8,NaN,-1.19363246621125,NaN,750,0,1,neutral,0,1627.57448593706,3261.82674669927
32,104,1,120,-0.5,-0.5,0.5,1,4,0.6,4,401,0,1,NaN,0,0,0.6,0.8,-1.5908932679155,NaN,750,1,0,incongruent,0,4482.02366564731,7385.07478084521
32,104,1,121,-0.5,-0.5,-0.5,3,3,0.6,4,574,0,1,NaN,1,0,0.6,0.6,-0.363641148364861,NaN,750,0,1,congruent,0.1,10899.9654341189,3899.15981340454
32,104,1,122,-0.5,-0.5,0,2,NaN,0.6,2,584,1,1,584,0,0,0.8,0.6,-0.292701719489102,-0.292701719489102,750,0,0,neutral,0,1995.62992110783,657.519915920632
32,104,1,123,0.5,-0.5,-0.5,3,3,0.6,3,624,1,1,624,1,0,0.4,NaN,-0.00894400398606278,-0.00894400398606278,750,1,0,congruent,1,7928.62306036106,3245.22608689183
32,104,1,124,-0.5,-0.5,-0.5,2,2,0.6,2,480,1,1,480,0,0,0.6,0.6,-1.030471779797,-1.030471779797,750,1,0,congruent,0,1708.00455269537,517.774862006062
32,104,1,125,0.5,-0.5,0,4,NaN,0.6,4,526,1,1,526,1,0,0.6,NaN,-0.704150406968508,-0.704150406968508,750,0,0,neutral,1,1250.38016281537,1988.13036831595
32,104,1,126,0.5,-0.5,0.5,3,1,0.6,1,623,0,1,NaN,0,0,1,NaN,-0.0160379468736387,NaN,750,1,0,incongruent,0,6588.95760961998,668.399929038972
32,104,1,128,0.5,0.5,-0.5,2,2,0.4,2,630,1,1,630,1,0,0.8,NaN,0.033619653339393,0.033619653339393,750,1,0,congruent,1,3793.17988958554,2115.89726625331
32,104,1,129,0.5,0.5,0,3,NaN,0.6,3,682,1,1,682,1,0,0.8,NaN,0.402504683493343,0.402504683493343,750,0,0,neutral,1,1255.03033177204,3480.38795012462
32,104,1,130,0.5,0.5,-0.5,4,4,0.6,4,494,1,1,494,1,0,1.2,NaN,-0.931156579370939,-0.931156579370939,750,1,0,congruent,1,1952.88429289906,1921.15461970899
32,104,1,131,0.5,-0.5,0,2,NaN,0.6,2,694,1,1,694,1,0,1.2,NaN,0.487631998144255,0.487631998144255,750,0,0,neutral,1,1277.77518250525,3116.84539958078
32,104,1,133,-0.5,0.5,-0.5,1,1,0.6,1,574,1,1,574,1,0,1.6,0.6,-0.363641148364861,-0.363641148364861,750,1,0,congruent,0.1,1310.58874917667,1068.26342355052
32,104,1,134,0.5,-0.5,0,3,NaN,0.8,3,594,1,1,594,1,0,1.4,NaN,-0.221762290613342,-0.221762290613342,750,0,0,neutral,1,15157.7949658792,2030.87154177772
32,104,1,135,0.5,-0.5,-0.5,2,2,0.8,2,587,1,1,587,0,0,1.4,NaN,-0.271419890826374,-0.271419890826374,750,1,0,congruent,0,4213.55226022967,1502.97545358371
32,104,1,136,0.5,-0.5,0,4,NaN,0.8,4,465,1,1,465,1,0,1,NaN,-1.13688092311064,-1.13688092311064,750,0,0,neutral,1,5768.51310256587,3705.17101844809
32,104,1,137,-0.5,0.5,-0.5,2,2,0.8,2,688,1,1,688,1,0,1,0.6,0.445068340818799,0.445068340818799,750,1,0,congruent,0.1,3636.43158307743,4311.96326798119
32,104,1,138,-0.5,-0.5,0.5,3,1,0.8,1,584,0,1,NaN,0,0,1.2,0.4,-0.292701719489102,NaN,750,1,0,incongruent,0,17090.8463786013,6303.10101509753
32,104,1,139,-0.5,0.5,0,4,NaN,0.8,4,584,1,1,584,1,0,1,0.6,-0.292701719489102,-0.292701719489102,750,0,0,neutral,0.1,4955.82914265106,2261.02671380796
32,104,1,140,0.5,0.5,-0.5,2,2,0.8,2,665,1,1,665,1,0,0.8,NaN,0.281907654404552,0.281907654404552,750,1,0,congruent,1,5694.66084499211,11295.1511229076
32,104,1,141,0.5,-0.5,0.5,3,4,0.8,3,950,1,0,950,1,0,1.2,NaN,2.3036813773637,2.3036813773637,750,0,0,incongruent,1,2669.85075412386,6567.12196711047
32,104,1,142,0.5,0.5,-0.5,2,2,0.8,2,671,1,1,671,1,0,1.2,NaN,0.324471311730008,0.324471311730008,750,1,0,congruent,1,6521.32599169542,1333.54942813542
32,104,1,143,0.5,0.5,-0.5,3,3,1,3,629,1,1,629,1,0,1.4,NaN,0.0265257104518171,0.0265257104518171,750,1,0,congruent,1,2040.09293810721,1526.17432856765
32,104,1,144,-0.5,0.5,0,1,NaN,1,1,432,1,1,432,1,0,1.8,0.8,-1.37098103840065,-1.37098103840065,750,0,0,neutral,0.1,7771.28094166017,1966.41034407297
32,104,1,145,0.5,0.5,-0.5,4,4,1,4,362,1,1,362,1,0,1.8,NaN,-1.86755704053097,-1.86755704053097,750,1,0,congruent,1,3071.10602977936,2066.33549871138
32,104,1,146,0.5,0.5,-0.5,3,3,1,3,443,1,1,443,1,0,1.8,NaN,-1.29294766663731,-1.29294766663731,750,1,0,congruent,1,4760.33640759379,1756.64315650233
32,104,1,147,-0.5,0.5,0,4,NaN,1,4,508,1,1,508,1,0,1.8,0.8,-0.831841378944875,-0.831841378944875,750,0,0,neutral,0.1,2350.00009286358,4473.40138898185
32,104,1,148,-0.5,0.5,0.5,2,3,1,2,704,1,1,704,1,0,1.6,1,0.558571427020015,0.558571427020015,750,0,0,incongruent,0.1,1934.1373863793,2741.47956278276
32,104,1,149,-0.5,0.5,0,4,NaN,1,4,496,1,1,496,1,0,1.4,1,-0.916968693595787,-0.916968693595787,750,0,0,neutral,0.1,3251.42975242001,1861.44668334663
32,104,1,150,-0.5,-0.5,-0.5,2,2,1,2,509,1,1,509,1,0,1.4,0.2,-0.824747436057299,-0.824747436057299,750,1,0,congruent,0.1,4543.92539401665,2360.8941573287
32,104,2,151,0.5,-0.5,-0.5,1,1,1,1,461,1,1,461,1,0,1.2,NaN,-1.16525669466095,-1.16525669466095,750,1,0,congruent,1,4083.53723486832,1972.18312732612
32,104,2,152,-0.5,-0.5,0,2,NaN,1,2,610,1,1,610,1,0,1.2,0.4,-0.108259204412126,-0.108259204412126,750,0,0,neutral,0.1,7016.5610350167,4783.32924794505
32,104,2,153,0.5,0.5,0.5,4,3,1,4,754,1,0,754,0,0,1.2,NaN,0.913268571398813,0.913268571398813,750,0,0,incongruent,0,2264.18020950684,6903.96347636401
32,104,2,154,0.5,-0.5,-0.5,2,2,0.8,3,490,0,1,NaN,1,0,1,NaN,-0.959532350921243,NaN,750,0,1,congruent,1,20048.6956466018,4129.18912498521
32,104,2,155,0.5,-0.5,0,3,NaN,0.8,3,542,1,1,542,1,0,1.2,NaN,-0.590647320767292,-0.590647320767292,750,0,0,neutral,1,2611.22670631573,2581.92582728369
32,104,2,156,-0.5,-0.5,-0.5,2,2,0.8,2,942,1,0,942,1,0,1.4,0.4,2.2469298342631,2.2469298342631,750,1,0,congruent,0.1,6998.90870001175,1983.63107338603
32,104,2,157,0.5,0.5,0.5,4,3,0.8,4,648,1,1,648,1,0,1.2,NaN,0.16131062531576,0.16131062531576,750,0,0,incongruent,1,4581.665116449,3419.56628197815
32,104,2,158,-0.5,0.5,0,1,NaN,0.8,1,568,1,1,568,1,0,1.4,1,-0.406204805690317,-0.406204805690317,750,0,0,neutral,0.1,4958.1930803771,4426.53079845525
32,104,2,159,0.5,0.5,-0.5,4,4,0.8,4,562,1,1,562,1,0,1.6,NaN,-0.448768463015773,-0.448768463015773,750,1,0,congruent,1,963.427800457122,2404.74673969507
32,104,2,160,-0.5,-0.5,0.5,3,1,0.8,1,629,0,1,NaN,1,0,1.6,0.6,0.0265257104518171,NaN,750,1,0,incongruent,0.1,2803.43259542159,4570.0922006269
32,104,2,161,0.5,0.5,0,1,NaN,0.8,1,571,1,1,571,1,0,1.4,NaN,-0.384922977027589,-0.384922977027589,750,0,0,neutral,1,3212.64814722608,3690.18693343091
32,104,2,162,0.5,-0.5,-0.5,4,4,0.8,4,545,1,1,545,1,0,1.6,NaN,-0.569365492104564,-0.569365492104564,750,1,0,congruent,1,6876.2820271972,6810.54902030089
32,104,2,163,-0.5,0.5,0,2,NaN,0.8,1,542,0,1,NaN,0,0,1.6,1,-0.590647320767292,NaN,750,0,1,neutral,0,18085.1086732668,4022.76193697749
32,104,2,164,-0.5,-0.5,-0.5,3,3,0.8,3,713,1,1,713,0,0,1.4,0.8,0.622416913008198,0.622416913008198,750,1,0,congruent,0,1345.3669126279,1877.07562301125
32,104,2,166,-0.5,0.5,-0.5,4,4,0.6,4,519,1,1,519,1,0,0.8,0.8,-0.753808007181539,-0.753808007181539,750,1,0,congruent,0.1,2325.06029211235,4127.98079576438
32,104,2,167,-0.5,0.5,0,3,NaN,0.6,3,701,1,1,701,1,0,0.6,0.8,0.537289598357287,0.537289598357287,750,0,0,neutral,0.1,3890.13266189564,2709.45703358594
32,104,2,168,0.5,0.5,0.5,4,2,0.6,4,981,1,0,981,0,0,0.4,NaN,2.52359360687856,2.52359360687856,750,0,0,incongruent,0,1334.76435896828,2332.2112470401
32,104,2,169,-0.5,-0.5,0,1,NaN,0.4,1,450,1,1,450,1,0,0.4,0.8,-1.24329006642428,-1.24329006642428,750,0,0,neutral,0.1,4604.13458004599,5703.8321723212
32,104,2,170,0.5,-0.5,-0.5,2,2,0.4,2,478,1,1,478,0,0,0.6,NaN,-1.04465966557215,-1.04465966557215,750,1,0,congruent,0,2765.67083628222,2346.41803621924
32,104,2,171,0.5,0.5,-0.5,1,1,0.4,1,513,1,1,513,1,0,0.6,NaN,-0.796371664506995,-0.796371664506995,750,1,0,congruent,1,5799.30946174826,756.657195988015
32,104,2,172,-0.5,-0.5,0.5,3,4,0.6,4,490,0,1,NaN,0,0,0.8,0.8,-0.959532350921243,NaN,750,1,0,incongruent,0,4871.53136862526,3944.3511764427
32,104,2,174,-0.5,-0.5,0.5,2,3,0.6,2,882,1,0,882,0,0,0.8,0.6,1.82129326100854,1.82129326100854,750,0,0,incongruent,0,1870.56297176575,3457.67476246586
32,104,2,175,-0.5,0.5,-0.5,1,1,0.6,1,449,1,1,449,1,0,0.6,0.8,-1.25038400931186,-1.25038400931186,750,1,0,congruent,0.1,3439.26172718745,1232.94130413335
32,104,2,176,0.5,0.5,-0.5,3,3,0.8,3,598,1,1,598,1,0,0.8,NaN,-0.193386519063038,-0.193386519063038,750,1,0,congruent,1,2927.27243892404,2989.07816290305
32,104,2,177,0.5,0.5,0.5,2,4,0.8,4,521,0,1,NaN,0,0,0.8,NaN,-0.739620121406388,NaN,750,1,0,incongruent,0,9281.76010155,3518.01641895847
32,104,2,178,0.5,0.5,0,3,NaN,0.6,3,560,1,1,560,1,0,0.8,NaN,-0.462956348790925,-0.462956348790925,750,0,0,neutral,1,1814.22751323631,2674.66970156785
32,104,2,179,-0.5,0.5,-0.5,2,2,0.8,2,544,1,1,544,1,0,1,0.8,-0.57645943499214,-0.57645943499214,750,1,0,congruent,0.1,2441.68834387758,6204.5060727398
32,104,2,180,0.5,0.5,-0.5,4,4,0.8,4,490,1,1,490,1,0,1.2,NaN,-0.959532350921243,-0.959532350921243,750,1,0,congruent,1,4003.08405117402,9808.59295454236
32,104,2,181,0.5,0.5,0,3,NaN,0.8,3,486,1,1,486,1,0,1.4,NaN,-0.987908122471546,-0.987908122471546,750,0,0,neutral,1,8230.34151249814,3176.3555689948
32,104,2,182,0.5,0.5,-0.5,1,1,0.8,1,431,1,1,431,1,0,1.4,NaN,-1.37807498128822,-1.37807498128822,750,1,0,congruent,1,4585.48910821777,9315.8015162437
32,104,2,183,0.5,0.5,0,2,NaN,1,2,654,1,1,654,1,0,1.8,NaN,0.203874282641216,0.203874282641216,750,0,0,neutral,1,1292.5743925203,2194.93412279582
32,104,2,184,0.5,0.5,-0.5,3,3,1,3,656,1,1,656,1,0,1.8,NaN,0.218062168416368,0.218062168416368,750,1,0,congruent,1,2293.94659893094,7351.23651750268
32,104,2,185,-0.5,-0.5,-0.5,1,1,1,1,558,1,1,558,1,0,2,0.4,-0.477144234566077,-0.477144234566077,750,1,0,congruent,0.1,3099.106645365,996.998621902407
32,104,2,186,-0.5,-0.5,0,2,NaN,1,1,485,0,1,NaN,1,0,1.8,0.6,-0.995002065359122,NaN,750,0,1,neutral,0.1,10238.582953302,5217.55898790822
32,104,2,187,0.5,0.5,-0.5,1,1,1,1,462,1,1,462,1,0,1.6,NaN,-1.15816275177337,-1.15816275177337,750,1,0,congruent,1,2542.74778754605,1478.18077244871
32,104,2,188,-0.5,0.5,0.5,3,4,1,4,617,0,1,NaN,0,0,1.6,0.8,-0.0586016041990946,NaN,750,1,0,incongruent,0,3864.27326892023,6774.53458539265
32,104,2,189,-0.5,0.5,-0.5,2,2,0.8,2,577,1,1,577,1,0,1.2,0.8,-0.342359319702133,-0.342359319702133,750,1,0,congruent,0.1,1641.65138223763,1524.72581856378
32,104,2,190,-0.5,0.5,-0.5,4,4,0.8,4,524,1,1,524,1,0,1,0.8,-0.71833829274366,-0.71833829274366,750,1,0,congruent,0.1,5001.99386070821,1878.66478986675
32,104,2,191,0.5,0.5,0.5,1,2,0.8,1,628,1,1,628,1,0,1,NaN,0.0194317675642411,0.0194317675642411,750,0,0,incongruent,1,1114.6639714773,1961.0697173327
32,104,2,192,-0.5,-0.5,0,3,NaN,0.8,3,561,1,1,561,1,0,1.2,0.6,-0.455862405903349,-0.455862405903349,750,0,0,neutral,0.1,3372.62849742921,1368.66781931309
32,104,2,193,-0.5,0.5,-0.5,4,4,0.8,4,459,1,1,459,1,0,1,0.8,-1.1794445804361,-1.1794445804361,750,1,0,congruent,0.1,10956.1736613314,1316.73248765419
32,104,2,194,-0.5,-0.5,-0.5,2,2,0.8,2,658,1,1,658,1,0,1.2,0.8,0.23225005419152,0.23225005419152,750,1,0,congruent,0.1,2723.75611290978,2311.97521176567
32,104,2,195,0.5,0.5,-0.5,4,4,0.8,4,520,1,1,520,1,0,1.2,NaN,-0.746714064293963,-0.746714064293963,750,1,0,congruent,1,2159.47559159055,2224.94903403465
32,104,2,196,-0.5,0.5,0,2,NaN,1,2,736,1,1,736,1,0,1.4,0.8,0.785577599422446,0.785577599422446,750,0,0,neutral,0.1,2220.56009287242,2432.5626377615
32,104,2,197,0.5,0.5,0.5,1,4,1,4,690,0,1,NaN,0,0,1.2,NaN,0.459256226593951,NaN,750,1,0,incongruent,0,4783.2299480257,2657.99456048878
32,104,2,198,-0.5,-0.5,0,4,NaN,0.8,4,548,1,1,548,1,0,1,0.8,-0.548083663441836,-0.548083663441836,750,0,0,neutral,0.1,8370.01135436702,2366.21857212738
32,104,2,200,0.5,-0.5,-0.5,4,4,0.6,4,488,1,1,488,1,0,0.8,NaN,-0.973720236696394,-0.973720236696394,750,1,0,congruent,1,4578.96287824875,4283.70116316475
32,104,2,201,-0.5,0.5,-0.5,2,2,0.6,2,615,1,1,615,1,0,0.8,0.8,-0.0727894899742465,-0.0727894899742465,750,1,0,congruent,0.1,2468.84877305321,1296.18905578531
32,104,2,202,-0.5,-0.5,-0.5,3,3,0.6,2,904,0,0,NaN,0,0,0.8,1,1.97736000453521,NaN,750,0,1,congruent,0,2339.9357822695,2526.92079577254
32,104,2,203,0.5,0.5,0,4,NaN,0.6,3,519,0,1,NaN,0,0,0.8,NaN,-0.753808007181539,NaN,750,0,1,neutral,0,8497.48223697611,3603.75186694134
32,104,2,204,-0.5,-0.5,-0.5,3,3,0.4,2,648,0,1,NaN,0,0,0.6,0.8,0.16131062531576,NaN,750,0,1,congruent,0,3859.82408426798,6511.85300209746
32,104,2,205,0.5,-0.5,0,2,NaN,0.4,2,612,1,1,612,1,0,0.6,NaN,-0.0940713186369744,-0.0940713186369744,750,0,0,neutral,1,3322.16803433938,1535.65927251836
32,104,2,206,0.5,0.5,0.5,3,2,0.4,3,901,1,0,901,0,0,0.6,NaN,1.95607817587248,1.95607817587248,750,0,0,incongruent,0,3511.19328393038,4667.73683539909
32,104,2,207,0.5,0.5,0,2,NaN,0.2,2,490,1,1,490,1,0,0.4,NaN,-0.959532350921243,-0.959532350921243,750,0,0,neutral,1,2420.50357187787,6234.87688164179
32,104,2,208,0.5,0.5,-0.5,3,3,0.4,3,537,1,1,537,1,0,0.8,NaN,-0.626117035205172,-0.626117035205172,750,1,0,congruent,1,1523.36489626055,2847.87996467943
32,104,2,209,0.5,0.5,0.5,4,1,0.6,1,565,0,1,NaN,0,0,1.2,NaN,-0.427486634353045,NaN,750,1,0,incongruent,0,6741.11737231376,2936.24819723251
32,104,2,210,0.5,-0.5,0,1,NaN,0.4,1,563,1,1,563,0,0,1.2,NaN,-0.441674520128197,-0.441674520128197,750,0,0,neutral,0,7885.81858048599,2359.21584750818
32,104,2,211,-0.5,0.5,0.5,2,3,0.4,2,999,1,0,999,0,0,0.8,0.8,2.65128457885493,2.65128457885493,750,0,0,incongruent,0,3917.24005730719,2425.46090524968
32,104,2,213,-0.5,0.5,-0.5,4,4,0.6,4,713,1,1,713,1,0,0.6,0.6,0.622416913008198,0.622416913008198,750,1,0,congruent,0.1,6659.25217741968,10064.6225726893
32,104,2,214,0.5,-0.5,0,3,NaN,0.6,3,463,1,1,463,1,0,0.4,NaN,-1.15106880888579,-1.15106880888579,750,0,0,neutral,1,1696.0005808857,1531.21748773714
32,104,2,215,0.5,0.5,-0.5,2,2,0.6,2,549,1,1,549,1,0,0.8,NaN,-0.54098972055426,-0.54098972055426,750,1,0,congruent,1,5012.88309013201,2480.43322574141
32,104,2,216,-0.5,-0.5,0.5,4,3,0.6,4,843,1,0,843,0,0,1.2,0.6,1.54462948839307,1.54462948839307,750,0,0,incongruent,0,12246.0180030355,3675.68427511006
32,104,2,217,0.5,-0.5,0.5,1,4,0.6,1,692,1,1,692,0,0,1.2,NaN,0.473444112369103,0.473444112369103,750,0,0,incongruent,0,2117.43150614261,12646.680648355
32,104,2,218,0.5,0.5,-0.5,2,2,0.6,2,562,1,1,562,1,0,1,NaN,-0.448768463015773,-0.448768463015773,750,1,0,congruent,1,4601.04301983296,7140.71906283582
32,104,2,219,-0.5,0.5,-0.5,3,3,0.8,3,616,1,1,616,1,0,1.2,0.6,-0.0656955470866705,-0.0656955470866705,750,1,0,congruent,0.1,3791.70867625736,5632.20825006589
32,104,2,220,0.5,-0.5,-0.5,2,2,1,2,516,1,1,516,1,0,1,NaN,-0.775089835844267,-0.775089835844267,750,1,0,congruent,1,3272.55685388564,1476.6676867864
32,104,2,221,0.5,0.5,-0.5,1,1,1,1,455,1,1,455,1,0,1,NaN,-1.2078203519864,-1.2078203519864,750,1,0,congruent,1,1331.7204182808,1290.27228789893
32,104,2,222,0.5,-0.5,0.5,4,2,1,4,619,1,1,619,1,0,1.4,NaN,-0.0444137184239426,-0.0444137184239426,750,0,0,incongruent,1,1408.37130087191,2437.32110967817
32,104,2,223,-0.5,-0.5,-0.5,1,1,1,1,516,1,1,516,1,0,1.8,0.4,-0.775089835844267,-0.775089835844267,750,1,0,congruent,0.1,868.596688420912,2992.78333316881
32,104,2,224,0.5,-0.5,-0.5,4,4,1,4,492,1,1,492,1,0,1.6,NaN,-0.945344465146091,-0.945344465146091,750,1,0,congruent,1,1058.10828432741,3332.93243088019
32,104,2,226,0.5,0.5,0.5,2,4,1,4,651,0,1,NaN,0,0,1.8,NaN,0.182592453978488,NaN,750,1,0,incongruent,0,7502.28277856581,10582.8429256586
32,104,2,228,-0.5,0.5,-0.5,3,3,0.8,3,510,1,1,510,1,0,1.4,0.8,-0.817653493169723,-0.817653493169723,750,1,0,congruent,0.1,3094.55627247485,2551.85062326547
32,104,2,229,-0.5,-0.5,-0.5,4,4,0.8,4,458,1,1,458,1,0,1.4,0.4,-1.18653852332367,-1.18653852332367,750,1,0,congruent,0.1,6779.45450520203,8315.0912033386
32,104,2,230,-0.5,-0.5,-0.5,2,2,0.8,2,728,1,1,728,0,0,1.2,0.4,0.728826056321838,0.728826056321838,750,1,0,congruent,0,2328.70616073761,4798.58483985011
32,104,2,231,-0.5,0.5,0.5,3,1,0.8,3,907,1,0,907,0,0,0.8,0.8,1.99864183319794,1.99864183319794,750,0,0,incongruent,0,591.669101217212,3012.89947168627
32,104,2,232,-0.5,-0.5,-0.5,4,4,0.6,4,488,1,1,488,1,0,0.8,0.4,-0.973720236696394,-0.973720236696394,750,1,0,congruent,0.1,3966.89816533678,4402.51380031612
32,104,2,233,-0.5,-0.5,-0.5,3,3,0.6,3,681,1,1,681,1,0,0.6,0.6,0.395410740605767,0.395410740605767,750,1,0,congruent,0.1,10900.0476546409,2326.86499166567
32,104,2,234,0.5,0.5,0,4,NaN,0.6,4,497,1,1,497,1,0,0.6,NaN,-0.909874750708211,-0.909874750708211,750,0,0,neutral,1,4676.52592735912,1559.40964631247
32,104,2,235,-0.5,0.5,-0.5,1,1,0.6,1,546,1,1,546,1,0,0.8,0.8,-0.562271549216988,-0.562271549216988,750,1,0,congruent,0.1,2802.31915007846,1628.98839696693
32,104,2,236,-0.5,-0.5,0.5,3,2,0.6,3,763,1,0,763,1,0,1,0.8,0.977114057386997,0.977114057386997,750,0,0,incongruent,0.1,5250.88021196527,4857.96064278817
32,104,2,237,0.5,-0.5,0.5,2,3,0.6,2,816,1,0,816,1,0,1.2,NaN,1.35309303042852,1.35309303042852,750,0,0,incongruent,1,2301.33533116782,2588.61720769416
32,104,2,239,0.5,-0.5,-0.5,2,2,0.8,2,515,1,1,515,1,0,1.6,NaN,-0.782183778731843,-0.782183778731843,750,1,0,congruent,1,3328.9570652019,3467.55028325117
32,104,2,240,-0.5,-0.5,0.5,4,3,0.8,4,764,1,0,764,1,0,1.6,0.8,0.984208000274573,0.984208000274573,750,0,0,incongruent,0.1,1982.77523125346,3408.59051431924
32,104,2,241,0.5,0.5,0,3,NaN,0.8,3,608,1,1,608,1,0,1.6,NaN,-0.122447090187278,-0.122447090187278,750,0,0,neutral,1,4401.59495754846,894.442295559724
32,104,2,242,0.5,0.5,-0.5,4,4,0.8,4,513,1,1,513,1,0,1.8,NaN,-0.796371664506995,-0.796371664506995,750,1,0,congruent,1,1479.95659117133,2848.74303077743
32,104,2,243,-0.5,-0.5,0.5,2,1,1,1,613,0,1,NaN,1,0,1.8,0.8,-0.0869773757493984,NaN,750,1,0,incongruent,0.1,5896.79618636655,1840.36436475754
32,104,2,244,0.5,0.5,-0.5,3,3,1,3,815,1,0,815,0,0,1.6,NaN,1.34599908754095,1.34599908754095,750,1,0,congruent,0,5287.86358082205,6246.07483115474
32,104,2,245,0.5,0.5,-0.5,1,1,0.8,1,578,1,1,578,1,0,1.2,NaN,-0.335265376814557,-0.335265376814557,750,1,0,congruent,1,5464.55127609065,4779.18509536214
32,104,2,247,0.5,0.5,0,3,NaN,0.6,3,586,1,1,586,1,0,1,NaN,-0.27851383371395,-0.27851383371395,750,0,0,neutral,1,4291.39082335636,6244.52503969893
32,104,2,248,0.5,-0.5,-0.5,2,2,0.6,2,626,1,1,626,1,0,1,NaN,0.00524388178908916,0.00524388178908916,750,1,0,congruent,1,3135.46463406818,6200.56322721445
32,104,2,249,0.5,0.5,0.5,4,1,0.6,1,697,0,1,NaN,0,0,1.2,NaN,0.508913826806983,NaN,750,1,0,incongruent,0,3389.27040377552,2281.72521311661
32,104,2,250,-0.5,-0.5,0,1,NaN,0.4,1,417,1,1,417,1,0,1.2,1,-1.47739018171429,-1.47739018171429,750,0,0,neutral,0.1,6930.02015235855,1804.76468283632
32,104,2,251,-0.5,-0.5,-0.5,3,3,0.4,3,628,1,1,628,0,0,1,1,0.0194317675642411,0.0194317675642411,750,1,0,congruent,0,3317.79342386748,1642.27251490763
32,104,2,252,-0.5,-0.5,0,1,NaN,0.4,1,569,1,1,569,1,0,1,0.8,-0.399110862802741,-0.399110862802741,750,0,0,neutral,0.1,2406.06954139015,2342.72244369278
32,104,2,253,-0.5,0.5,-0.5,2,2,0.4,2,594,1,1,594,1,0,0.8,0.6,-0.221762290613342,-0.221762290613342,750,1,0,congruent,0.1,3229.99421149425,5337.52813980075
32,104,2,254,0.5,0.5,-0.5,4,4,0.6,4,685,1,1,685,1,0,0.6,NaN,0.423786512156071,0.423786512156071,750,1,0,congruent,1,4401.28315570579,3509.82641053138
32,104,2,255,0.5,0.5,-0.5,1,1,0.6,1,541,1,1,541,1,0,1,NaN,-0.597741263654868,-0.597741263654868,750,1,0,congruent,1,3049.79316129147,4243.58378882627
32,104,2,256,0.5,0.5,0,2,NaN,0.8,2,532,1,1,532,1,0,1.2,NaN,-0.661586749643052,-0.661586749643052,750,0,0,neutral,1,5549.00971210821,493.446023634398
32,104,2,257,0.5,0.5,-0.5,3,3,0.8,3,599,1,1,599,1,0,1.6,NaN,-0.186292576175462,-0.186292576175462,750,1,0,congruent,1,2460.65435033096,4430.7222547945
32,104,2,258,-0.5,0.5,0.5,1,4,1,4,460,0,1,NaN,0,0,1.8,0.6,-1.17235063754852,NaN,750,1,0,incongruent,0,7113.03737334946,539.753505466886
32,104,2,259,0.5,-0.5,0.5,4,3,0.8,4,952,1,0,952,1,0,1.6,NaN,2.31786926313885,2.31786926313885,750,0,0,incongruent,1,2151.8120254736,3540.41996276485
32,104,2,260,0.5,-0.5,-0.5,2,2,0.8,2,484,1,1,484,1,0,1.6,NaN,-1.0020960082467,-1.0020960082467,750,1,0,congruent,1,2953.96004443664,3411.16563565881
32,104,2,261,0.5,0.5,-0.5,3,3,0.8,3,507,1,1,507,1,0,1.6,NaN,-0.838935321832451,-0.838935321832451,750,1,0,congruent,1,2970.96813532394,2677.90447031652
32,104,2,262,-0.5,0.5,-0.5,2,2,0.8,2,652,1,1,652,1,0,1.6,0.4,0.189686396866064,0.189686396866064,750,1,0,congruent,0.1,2588.92723341742,3811.86180390155
32,104,2,263,-0.5,0.5,0.5,1,3,0.8,1,709,1,1,709,1,0,1.4,0.6,0.594041141457895,0.594041141457895,750,0,0,incongruent,0.1,3109.22721508192,1822.07223983869
32,104,2,264,0.5,-0.5,0,3,NaN,0.8,3,552,1,1,552,1,0,1.6,NaN,-0.519707891891532,-0.519707891891532,750,0,0,neutral,1,2884.99730556351,1099.97023754859
32,104,2,265,0.5,-0.5,0.5,4,3,0.8,4,635,1,1,635,1,0,1.6,NaN,0.0690893677772729,0.0690893677772729,750,0,0,incongruent,1,2101.91878427042,1288.56099681281
32,104,2,266,-0.5,0.5,0.5,3,2,0.8,2,654,0,1,NaN,0,0,1.6,0.6,0.203874282641216,NaN,750,1,0,incongruent,0,5394.41033504736,4900.04550278624
32,104,2,267,-0.5,-0.5,0,4,NaN,0.6,4,528,1,1,528,0,0,1.2,0.8,-0.689962521193356,-0.689962521193356,750,0,0,neutral,0,2297.34166129876,2075.43235661769
32,104,2,268,-0.5,-0.5,0.5,1,4,0.6,1,916,1,0,916,1,0,1,0.6,2.06248731918612,2.06248731918612,750,0,0,incongruent,0.1,962.350900192833,12590.5264542332
32,104,2,269,0.5,-0.5,-0.5,3,3,0.6,3,557,1,1,557,1,0,1,NaN,-0.484238177453653,-0.484238177453653,750,1,0,congruent,1,6928.02602340541,4786.94138719247
32,104,2,270,0.5,0.5,-0.5,1,1,0.6,1,503,1,1,503,1,0,1,NaN,-0.867311093382755,-0.867311093382755,750,1,0,congruent,1,4339.05476506965,5270.36721566032
32,104,2,271,-0.5,-0.5,-0.5,4,4,0.8,4,512,1,1,512,1,0,1,0.6,-0.803465607394571,-0.803465607394571,750,1,0,congruent,0.1,4784.66328406463,2511.05831535882
32,104,2,272,-0.5,0.5,0.5,1,3,0.8,1,787,1,0,787,0,0,1.2,0.6,1.14736868668882,1.14736868668882,750,0,0,incongruent,0,1377.19153997736,6347.84100203903
32,104,2,273,0.5,0.5,0.5,3,2,0.6,3,983,1,0,983,0,0,1.2,NaN,2.53778149265371,2.53778149265371,750,0,0,incongruent,0,5045.21937960617,5492.4015687384
32,104,2,274,-0.5,-0.5,-0.5,1,1,0.4,1,473,1,1,473,1,0,1,0.6,-1.08012938001003,-1.08012938001003,750,1,0,congruent,0.1,6103.22108542618,5299.31886526395
32,104,2,276,-0.5,-0.5,0.5,4,3,0.4,4,806,1,0,806,1,0,0.4,0.6,1.28215360155276,1.28215360155276,750,0,0,incongruent,0.1,1981.9340795137,4335.43178058313
32,104,2,277,0.5,0.5,0,1,NaN,0.4,1,435,1,1,435,1,0,0.4,NaN,-1.34969920973792,-1.34969920973792,750,0,0,neutral,1,6398.63905237546,3499.20393284659
32,104,2,278,0.5,-0.5,-0.5,3,3,0.4,3,485,1,1,485,0,0,0.8,NaN,-0.995002065359122,-0.995002065359122,750,1,0,congruent,0,3952.38039106512,5204.6050662031
32,104,2,279,-0.5,-0.5,0.5,1,4,0.4,4,594,0,1,NaN,0,0,0.8,0.8,-0.221762290613342,NaN,750,1,0,incongruent,0,9020.97446346011,4154.49636244411
32,104,2,280,0.5,0.5,0,2,NaN,0.4,2,604,1,1,604,1,0,0.6,NaN,-0.150822861737582,-0.150822861737582,750,0,0,neutral,1,3994.46209955689,6093.61957649831
32,104,2,281,-0.5,0.5,-0.5,1,1,0.6,1,510,1,1,510,1,0,1,0.4,-0.817653493169723,-0.817653493169723,750,1,0,congruent,0.1,4041.72014583167,1798.11817254612
32,104,2,282,0.5,0.5,0,2,NaN,0.6,2,588,1,1,588,1,0,1,NaN,-0.264325947938798,-0.264325947938798,750,0,0,neutral,1,5142.44217247766,873.402340059397
32,104,2,283,-0.5,-0.5,0.5,4,2,0.8,3,743,0,1,NaN,1,0,1,0.6,0.835235199635477,NaN,750,0,1,incongruent,0.1,6727.46236437118,1441.05903695553
32,104,2,284,-0.5,0.5,-0.5,1,1,0.8,1,544,1,1,544,1,0,1.2,0.6,-0.57645943499214,-0.57645943499214,750,1,0,congruent,0.1,8681.49613421419,4861.92296616082
32,104,2,285,-0.5,0.5,0,4,NaN,1,4,493,1,1,493,1,0,1.4,0.6,-0.938250522258515,-0.938250522258515,750,0,0,neutral,0.1,2664.48677062608,1505.25302404832
32,104,2,286,0.5,0.5,0.5,1,4,1,1,779,1,0,779,0,0,1.2,NaN,1.09061714358821,1.09061714358821,750,0,0,incongruent,0,1213.29352514269,982.129999136793
32,104,2,287,0.5,0.5,0,4,NaN,0.8,4,492,1,1,492,1,0,1,NaN,-0.945344465146091,-0.945344465146091,750,0,0,neutral,1,4548.79129898008,7806.42480429518
32,104,2,288,-0.5,-0.5,-0.5,1,1,0.8,1,509,1,1,509,0,0,1,0.6,-0.824747436057299,-0.824747436057299,750,1,0,congruent,0,8291.65392585358,4280.86890674333
32,104,2,289,-0.5,0.5,0,4,NaN,0.8,4,551,1,1,551,1,0,0.8,0.6,-0.526801834779108,-0.526801834779108,750,0,0,neutral,0.1,2773.23188737046,2889.30515043179
32,104,2,290,0.5,0.5,-0.5,2,2,0.8,2,558,1,1,558,1,0,0.8,NaN,-0.477144234566077,-0.477144234566077,750,1,0,congruent,1,4621.01418128261,4976.52601144709
32,104,2,291,-0.5,-0.5,0,3,NaN,0.8,4,509,0,1,NaN,1,0,1,0.4,-0.824747436057299,NaN,750,0,1,neutral,0.1,1332.37545455021,3141.26994896401
32,104,2,292,-0.5,0.5,0.5,2,3,0.8,2,990,1,0,990,0,0,1.2,0.8,2.58743909286674,2.58743909286674,750,0,0,incongruent,0,3949.99128137924,4155.29655333146
32,104,2,293,-0.5,-0.5,-0.5,4,4,0.6,4,590,1,1,590,0,0,0.8,0.6,-0.250138062163646,-0.250138062163646,750,1,0,congruent,0,17180.783778371,7654.66131412008
32,104,2,295,-0.5,0.5,-0.5,2,2,0.8,2,501,1,1,501,1,0,1,0.8,-0.881498979157907,-0.881498979157907,750,1,0,congruent,0.1,2028.34380875264,3345.99947496005
32,104,2,296,0.5,0.5,-0.5,1,1,0.8,1,452,1,1,452,1,0,0.8,NaN,-1.22910218064913,-1.22910218064913,750,1,0,congruent,1,6488.51261877227,9523.20069890191
32,104,2,298,-0.5,-0.5,-0.5,4,4,0.6,4,578,1,1,578,0,0,1,0.4,-0.335265376814557,-0.335265376814557,750,1,0,congruent,0,1566.2775794579,4980.75535420187
32,104,3,301,0.5,-0.5,0.5,3,1,0.6,1,569,0,1,NaN,0,0,0.8,NaN,-0.399110862802741,NaN,750,1,0,incongruent,0,3538.9457006369,5211.03520655942
32,104,3,302,0.5,0.5,0.5,4,3,0.6,3,927,0,0,NaN,0,0,0.4,NaN,2.14052069094946,NaN,750,1,0,incongruent,0,1847.74006412755,1952.15887273244
32,104,3,303,0.5,0.5,0.5,3,4,0.6,3,856,1,0,856,0,0,0.4,NaN,1.63685074593156,1.63685074593156,750,0,0,incongruent,0,3759.35839520498,3092.30114645246
32,104,3,304,-0.5,0.5,0.5,4,1,0.4,4,966,1,0,966,0,0,0.4,0.6,2.41718446356492,2.41718446356492,750,0,0,incongruent,0,2212.12424092052,1680.40390322803
32,104,3,305,-0.5,-0.5,-0.5,2,2,0.2,2,703,1,1,703,0,0,0.4,0.2,0.551477484132439,0.551477484132439,750,1,0,congruent,0,5964.20372714072,6536.91430294528
32,104,3,306,-0.5,-0.5,0,1,NaN,0.2,1,553,1,1,553,1,0,0,0.2,-0.512613949003957,-0.512613949003957,750,0,0,neutral,0.1,5477.03784766201,2386.17371575075
32,104,3,307,-0.5,0.5,-0.5,3,3,0.2,3,901,1,0,901,0,0,0.2,0.4,1.95607817587248,1.95607817587248,750,1,0,congruent,0,2683.03665000873,4239.15793440483
32,104,3,308,-0.5,-0.5,0,4,NaN,0,4,546,1,1,546,0,0,0.2,0.2,-0.562271549216988,-0.562271549216988,750,0,0,neutral,0,5132.70980053159,4213.66034070639
32,104,3,309,-0.5,0.5,0.5,2,3,0,2,694,1,1,694,1,0,0.2,0.2,0.487631998144255,0.487631998144255,750,0,0,incongruent,0.1,796.055799869456,5510.78138215671
32,104,3,310,0.5,0.5,0,1,NaN,0.2,1,584,1,1,584,1,0,0.4,NaN,-0.292701719489102,-0.292701719489102,750,0,0,neutral,1,4161.77417107702,3146.21177546059
32,104,3,311,0.5,0.5,-0.5,4,4,0.4,4,618,1,1,618,1,0,0.8,NaN,-0.0515076613115186,-0.0515076613115186,750,1,0,congruent,1,969.266207886388,3482.70123802986
32,104,3,312,-0.5,-0.5,0,3,NaN,0.6,3,688,1,1,688,1,0,1,0.2,0.445068340818799,0.445068340818799,750,0,0,neutral,0.1,8073.3301671814,2857.16456572677
32,104,3,314,0.5,-0.5,0,3,NaN,0.6,3,725,1,1,725,0,0,1.6,NaN,0.70754422765911,0.70754422765911,750,0,0,neutral,0,8122.26451921176,3322.88126842122
32,104,3,315,-0.5,-0.5,-0.5,1,1,0.6,1,516,1,1,516,1,0,1.4,0.4,-0.775089835844267,-0.775089835844267,750,1,0,congruent,0.1,3105.6178183416,6299.28022591605
32,104,3,316,-0.5,-0.5,-0.5,2,2,0.6,2,628,1,1,628,0,0,1.2,0.6,0.0194317675642411,0.0194317675642411,750,1,0,congruent,0,1336.05863559006,2348.78523171265
32,104,3,318,-0.5,-0.5,0.5,1,4,0.6,1,790,1,0,790,1,0,0.6,0.6,1.16865051535155,1.16865051535155,750,0,0,incongruent,0.1,2874.63245638709,5447.35594187709
32,104,3,319,-0.5,-0.5,0.5,3,2,0.6,3,696,1,1,696,1,0,0.4,0.6,0.501819883919407,0.501819883919407,750,0,0,incongruent,0.1,2331.40590547877,4448.79648551721
32,104,3,320,0.5,-0.5,0.5,1,3,0.6,1,667,1,1,667,0,0,0.6,NaN,0.296095540179704,0.296095540179704,750,0,0,incongruent,0,2135.7795569964,5132.89525619782
32,104,3,321,-0.5,0.5,0,3,NaN,0.6,3,567,1,1,567,1,0,0.4,0.2,-0.413298748577893,-0.413298748577893,750,0,0,neutral,0.1,11129.5524121206,2054.37831639495
32,104,3,322,0.5,0.5,0.5,4,3,0.8,4,684,1,1,684,1,0,0.6,NaN,0.416692569268495,0.416692569268495,750,0,0,incongruent,1,3256.16242124051,4571.57508274867
32,104,3,323,-0.5,0.5,0.5,1,2,0.8,1,892,1,0,892,0,0,1,0.4,1.8922326898843,1.8922326898843,750,0,0,incongruent,0,3145.43910152506,4752.83866356042
32,104,3,324,0.5,-0.5,0,3,NaN,0.6,3,610,1,1,610,0,0,0.8,NaN,-0.108259204412126,-0.108259204412126,750,0,0,neutral,0,8226.25293023407,9079.78995094823
32,104,3,325,-0.5,-0.5,-0.5,2,2,0.6,2,661,1,1,661,1,0,0.6,0.8,0.253531882854248,0.253531882854248,750,1,0,congruent,0.1,4159.26801598967,7885.8857294729
32,104,3,326,-0.5,-0.5,0.5,3,4,0.6,3,809,1,0,809,1,0,0.8,0.8,1.30343543021549,1.30343543021549,750,0,0,incongruent,0.1,3350.0605759211,14232.6530239028
32,104,3,327,-0.5,-0.5,0.5,1,2,0.6,1,653,1,1,653,0,0,0.8,0.8,0.19678033975364,0.19678033975364,750,0,0,incongruent,0,8496.01069233291,1316.06613162289
32,104,3,328,0.5,-0.5,0,3,NaN,0.6,3,562,1,1,562,1,0,0.4,NaN,-0.448768463015773,-0.448768463015773,750,0,0,neutral,1,1794.24987617307,1734.21842232209
32,104,3,329,0.5,0.5,-0.5,4,4,0.6,4,582,1,1,582,1,0,0.8,NaN,-0.306889605264253,-0.306889605264253,750,1,0,congruent,1,15970.3150953766,6406.93659261951
32,104,3,331,-0.5,-0.5,-0.5,2,2,0.6,2,594,1,1,594,1,0,1.2,0.8,-0.221762290613342,-0.221762290613342,750,1,0,congruent,0.1,7597.55950099724,3151.9097487756
32,104,3,332,0.5,0.5,0,3,NaN,0.6,3,582,1,1,582,1,0,1.2,NaN,-0.306889605264253,-0.306889605264253,750,0,0,neutral,1,2523.60678694754,1735.9132727589
32,104,3,333,0.5,0.5,-0.5,2,2,0.8,2,573,1,1,573,1,0,1.6,NaN,-0.370735091252437,-0.370735091252437,750,1,0,congruent,1,2176.21109151634,3394.1008975639
32,104,3,334,0.5,-0.5,0.5,4,1,0.8,1,569,0,1,NaN,1,0,1.6,NaN,-0.399110862802741,NaN,750,1,0,incongruent,1,8647.97913541051,1439.18925708728
32,104,3,335,-0.5,-0.5,0,1,NaN,0.8,1,903,1,0,903,1,0,1.6,0.8,1.97026606164763,1.97026606164763,750,0,0,neutral,0.1,6667.03215183359,7555.71419296854
32,104,3,336,-0.5,0.5,-0.5,2,2,0.8,3,964,0,0,NaN,0,0,1.6,0.4,2.40299657778977,NaN,750,0,1,congruent,0,1778.22759884585,2104.15758311603
32,104,3,337,-0.5,0.5,0,1,NaN,0.6,1,538,1,1,538,1,0,1.4,0.4,-0.619023092317596,-0.619023092317596,750,0,0,neutral,0.1,9482.05210433491,2606.26363118178
32,104,3,338,-0.5,0.5,-0.5,2,2,0.8,2,514,1,1,514,1,0,1.2,0.4,-0.789277721619419,-0.789277721619419,750,1,0,congruent,0.1,10114.4450381636,3221.25114698556
32,104,3,340,0.5,-0.5,0.5,4,1,0.6,1,547,0,1,NaN,0,0,0.6,NaN,-0.555177606329412,NaN,750,1,0,incongruent,0,9214.03604032334,3132.92277950061
32,104,3,342,-0.5,0.5,0.5,3,1,0.6,3,888,1,0,888,0,0,0.4,0.6,1.86385691833399,1.86385691833399,750,0,0,incongruent,0,2356.89195046178,5845.81536756848
32,104,3,343,-0.5,0.5,0.5,1,3,0.4,1,618,1,1,618,1,0,0.2,0.4,-0.0515076613115186,-0.0515076613115186,750,0,0,incongruent,0.1,4965.42142122545,9999.35456242563
32,104,3,344,-0.5,0.5,0,4,NaN,0.6,4,535,1,1,535,1,0,0.2,0.6,-0.640304920980324,-0.640304920980324,750,0,0,neutral,0.1,4225.76793846076,1364.44535944028
32,104,3,345,-0.5,-0.5,0.5,1,4,0.6,1,962,1,0,962,1,0,0.4,0.6,2.38880869201461,2.38880869201461,750,0,0,incongruent,0.1,8350.38408755556,3983.22062271123
32,104,3,346,0.5,0.5,0.5,3,1,0.6,3,973,1,0,973,0,0,0.6,NaN,2.46684206377795,2.46684206377795,750,0,0,incongruent,0,5275.37069993698,11366.2701128333
32,104,3,347,0.5,-0.5,0.5,1,4,0.4,1,721,1,1,721,1,0,0.6,NaN,0.679168456108806,0.679168456108806,750,0,0,incongruent,1,4000.91897106643,8757.4776044419
32,104,3,348,0.5,-0.5,-0.5,3,3,0.4,3,615,1,1,615,0,0,1,NaN,-0.0727894899742465,-0.0727894899742465,750,1,0,congruent,0,2567.93676585441,1676.29737593926
32,104,3,349,0.5,-0.5,-0.5,2,2,0.4,2,643,1,1,643,0,0,0.8,NaN,0.125840910877881,0.125840910877881,750,1,0,congruent,0,4119.26801819289,2163.07232300179
32,104,3,350,0.5,-0.5,-0.5,1,1,0.4,2,986,0,0,NaN,1,0,0.6,NaN,2.55906332131644,NaN,750,0,1,congruent,1,2683.15206509595,1415.42050481635
32,104,3,351,0.5,0.5,0.5,3,4,0.4,3,877,1,0,877,0,0,0.8,NaN,1.78582354657066,1.78582354657066,750,0,0,incongruent,0,10849.7119505198,5952.74171150405
32,104,3,352,-0.5,0.5,0,2,NaN,0.4,2,811,1,0,811,0,0,0.8,0.8,1.31762331599064,1.31762331599064,750,0,0,neutral,0,3286.49418134975,4265.14155132298
32,104,3,353,0.5,0.5,0.5,3,4,0.4,3,658,1,1,658,1,0,0.4,NaN,0.23225005419152,0.23225005419152,750,0,0,incongruent,1,1138.38944070099,1814.62630910542
32,104,3,354,-0.5,-0.5,-0.5,1,1,0.4,1,738,1,1,738,1,0,0.8,0.8,0.799765485197598,0.799765485197598,750,1,0,congruent,0.1,17962.643071557,1794.31341932452
32,104,3,356,-0.5,0.5,0.5,1,3,0.4,2,904,0,0,NaN,0,0,1,0.6,1.97736000453521,NaN,750,0,1,incongruent,0,2675.78919318419,4010.004678615
32,104,3,357,-0.5,-0.5,0.5,4,1,0.2,1,733,0,1,NaN,1,0,1,0.8,0.764295770759718,NaN,750,1,0,incongruent,0.1,6247.28740681898,4067.93061578179
32,104,3,358,0.5,-0.5,0,1,NaN,0.2,1,632,1,1,632,0,0,1.2,NaN,0.047807539114545,0.047807539114545,750,0,0,neutral,0,5840.42135246592,7000.35329651227
32,104,3,360,-0.5,0.5,0,1,NaN,0.2,1,540,1,1,540,1,0,0.6,0.4,-0.604835206542444,-0.604835206542444,750,0,0,neutral,0.1,10952.4310663562,8375.90320879525
32,104,3,361,0.5,-0.5,-0.5,3,3,0.4,3,606,1,1,606,0,0,0.4,NaN,-0.13663497596243,-0.13663497596243,750,1,0,congruent,0,6877.97215159251,2822.26959036402
32,104,3,362,0.5,0.5,0.5,4,1,0.4,1,567,0,1,NaN,0,0,0.4,NaN,-0.413298748577893,NaN,750,1,0,incongruent,0,3075.0108491442,2701.71412406187
32,104,3,363,0.5,0.5,0.5,2,4,0.4,2,854,1,0,854,0,0,0.2,NaN,1.62266286015641,1.62266286015641,750,0,0,incongruent,0,4913.76075678617,9731.07325394032
32,104,3,364,0.5,0.5,-0.5,1,1,0.4,1,510,1,1,510,1,0,0.2,NaN,-0.817653493169723,-0.817653493169723,750,1,0,congruent,1,14323.932676942,3115.24112893061
32,104,3,365,-0.5,0.5,-0.5,2,2,0.4,2,670,1,1,670,1,0,0.6,0.6,0.317377368842432,0.317377368842432,750,1,0,congruent,0.1,5038.12994697652,1587.15387682441
32,104,3,366,-0.5,-0.5,0.5,4,3,0.6,3,772,0,0,NaN,0,0,0.6,0.8,1.04095954337518,NaN,750,1,0,incongruent,0,4252.23663575068,8389.55728139605
32,104,3,367,-0.5,0.5,0.5,1,4,0.6,1,719,1,1,719,1,0,0.6,0.6,0.664980570333654,0.664980570333654,750,0,0,incongruent,0.1,8882.03040862408,6201.44043854786
32,104,3,368,-0.5,0.5,-0.5,3,3,0.6,3,626,1,1,626,1,0,0.8,0.6,0.00524388178908916,0.00524388178908916,750,1,0,congruent,0.1,3613.38120287119,4611.65136720332
32,104,3,369,0.5,0.5,-0.5,4,4,0.8,4,597,1,1,597,1,0,1,NaN,-0.200480461950614,-0.200480461950614,750,1,0,congruent,1,3093.41663268992,3670.39235782737
32,104,3,370,0.5,0.5,0.5,1,3,1,1,563,1,1,563,1,0,1,NaN,-0.441674520128197,-0.441674520128197,750,0,0,incongruent,1,6233.62256939641,3135.1150196833
32,104,3,371,-0.5,-0.5,0.5,4,1,1,1,604,0,1,NaN,1,0,1.2,0.6,-0.150822861737582,NaN,750,1,0,incongruent,0.1,7425.50022996846,10026.1481234489
32,104,3,372,0.5,0.5,0.5,1,2,1,1,831,1,0,831,0,0,1.4,NaN,1.45950217374216,1.45950217374216,750,0,0,incongruent,0,5222.22997589134,1914.11665656957
32,104,3,373,0.5,-0.5,0,4,NaN,0.8,4,525,1,1,525,1,0,1.2,NaN,-0.711244349856084,-0.711244349856084,750,0,0,neutral,1,1090.06159119518,2434.09247162567
32,104,3,374,-0.5,-0.5,0.5,3,2,0.8,3,781,1,0,781,1,0,1.4,0.8,1.10480502936336,1.10480502936336,750,0,0,incongruent,0.1,2528.81422039243,5520.86942482895
32,104,3,375,-0.5,0.5,0,2,NaN,0.8,1,466,0,1,NaN,0,0,1.2,0.8,-1.12978698022307,NaN,750,0,1,neutral,0,1031.53460462419,2806.76232585983
32,104,3,377,-0.5,0.5,-0.5,3,3,0.6,3,524,1,1,524,1,0,0.8,0.8,-0.71833829274366,-0.71833829274366,750,1,0,congruent,0.1,547.151801085088,1549.51492811678
32,104,3,378,-0.5,0.5,-0.5,2,2,0.6,2,408,1,1,408,1,0,1,0.8,-1.54123566770247,-1.54123566770247,750,1,0,congruent,0.1,4463.10466752448,2466.21401178887
32,104,3,379,0.5,-0.5,0.5,4,1,0.6,4,290,1,1,290,0,0,0.8,NaN,-2.37832092843644,-2.37832092843644,750,0,0,incongruent,0,19866.1023438781,730.932087298371
32,104,3,380,0.5,-0.5,0,1,NaN,0.6,1,777,1,0,777,0,0,0.6,NaN,1.07642925781306,1.07642925781306,750,0,0,neutral,0,1112.13600766875,2162.4156129802
32,104,3,381,-0.5,0.5,0.5,4,1,0.6,1,535,0,1,NaN,0,0,0.6,0.8,-0.640304920980324,NaN,750,1,0,incongruent,0,8319.47180632296,3642.58519144759
32,104,3,382,0.5,0.5,0,2,NaN,0.4,2,566,1,1,566,1,0,0.4,NaN,-0.420392691465469,-0.420392691465469,750,0,0,neutral,1,1926.68487390014,4631.74648382751
32,104,3,383,-0.5,0.5,-0.5,3,3,0.6,3,551,1,1,551,1,0,0.6,0.6,-0.526801834779108,-0.526801834779108,750,1,0,congruent,0.1,5377.4732638853,3251.19484140671
32,104,3,384,-0.5,0.5,0.5,2,4,0.8,2,540,1,1,540,1,0,0.6,0.6,-0.604835206542444,-0.604835206542444,750,0,0,incongruent,0.1,5861.87980247427,977.908573837563
32,104,3,385,-0.5,-0.5,0,4,NaN,0.8,4,529,1,1,529,1,0,0.8,0.8,-0.68286857830578,-0.68286857830578,750,0,0,neutral,0.1,1700.57388085863,4299.3579530012
32,104,3,386,0.5,-0.5,-0.5,1,1,0.8,1,508,1,1,508,1,0,1,NaN,-0.831841378944875,-0.831841378944875,750,1,0,congruent,1,3137.8822054497,2434.91477477152
32,104,3,387,-0.5,-0.5,0,4,NaN,0.8,4,660,1,1,660,0,0,1.4,0.8,0.246437939966672,0.246437939966672,750,0,0,neutral,0,5438.48975411511,1982.12657933093
32,104,3,388,0.5,-0.5,-0.5,2,2,0.8,2,514,1,1,514,1,0,1,NaN,-0.789277721619419,-0.789277721619419,750,1,0,congruent,1,3291.49871794086,1356.44059481706
32,104,3,389,0.5,-0.5,0.5,1,3,0.8,1,648,1,1,648,1,0,1.2,NaN,0.16131062531576,0.16131062531576,750,0,0,incongruent,1,1444.20672540259,3756.22061391565
32,104,3,390,-0.5,0.5,0,3,NaN,0.8,4,545,0,1,NaN,0,0,1.4,0.8,-0.569365492104564,NaN,750,0,1,neutral,0,13255.8303254748,4088.98016664605
32,104,3,391,-0.5,-0.5,0.5,1,4,0.6,3,953,0,0,NaN,0,0,1.2,0.8,2.32496320602643,NaN,750,0,1,incongruent,0,5664.55173597807,1612.08391765213
32,104,3,393,-0.5,-0.5,-0.5,2,2,0.8,2,497,1,1,497,1,0,1.2,0.6,-0.909874750708211,-0.909874750708211,750,1,0,congruent,0.1,1081.69172030867,2131.32916850219
32,104,3,394,0.5,0.5,0,1,NaN,0.8,1,493,1,1,493,1,0,1,NaN,-0.938250522258515,-0.938250522258515,750,0,0,neutral,1,8407.4860070152,4544.32925292419
32,104,3,395,-0.5,-0.5,0.5,2,3,0.8,3,815,0,0,NaN,0,0,1,0.6,1.34599908754095,NaN,750,1,0,incongruent,0,1801.53983557957,3138.88800470635
32,104,3,396,-0.5,0.5,0,3,NaN,0.8,3,662,1,1,662,1,0,1,0.6,0.260625825741824,0.260625825741824,750,0,0,neutral,0.1,2482.75993067456,5372.86384224631
32,104,3,397,0.5,-0.5,-0.5,1,1,0.8,1,514,1,1,514,1,0,1.2,NaN,-0.789277721619419,-0.789277721619419,750,1,0,congruent,1,18445.3380285061,3520.29843232834
32,104,3,398,-0.5,-0.5,0,2,NaN,0.8,1,455,0,1,NaN,1,0,1.2,0.4,-1.2078203519864,NaN,750,0,1,neutral,0.1,1810.66930462989,2312.82377216737
32,104,3,399,0.5,0.5,-0.5,3,3,0.8,3,722,1,1,722,1,0,1.2,NaN,0.686262398996382,0.686262398996382,750,1,0,congruent,1,1296.31127609584,10393.4567770717
32,104,3,400,-0.5,-0.5,-0.5,1,1,0.8,1,694,1,1,694,1,0,1.2,0.4,0.487631998144255,0.487631998144255,750,1,0,congruent,0.1,2508.03110057974,5680.56422158191
32,104,3,401,0.5,0.5,-0.5,3,3,0.8,3,626,1,1,626,1,0,1.4,NaN,0.00524388178908916,0.00524388178908916,750,1,0,congruent,1,3060.89853912186,2905.41205093011
32,104,3,402,-0.5,0.5,0,1,NaN,1,1,525,1,1,525,1,0,1.6,0.6,-0.711244349856084,-0.711244349856084,750,0,0,neutral,0.1,3961.70249973221,1043.13724953308
32,104,3,403,-0.5,0.5,0.5,4,2,1,4,637,1,1,637,1,0,1.4,0.8,0.0832772535524248,0.0832772535524248,750,0,0,incongruent,0.1,4363.98543725723,4425.79088043944
32,104,3,404,0.5,0.5,-0.5,3,3,1,3,623,1,1,623,1,0,1.4,NaN,-0.0160379468736387,-0.0160379468736387,750,1,0,congruent,1,7673.03233315243,2704.13637099571
32,104,3,405,0.5,-0.5,0,1,NaN,1,1,459,1,1,459,1,0,1.4,NaN,-1.1794445804361,-1.1794445804361,750,0,0,neutral,1,881.160169976261,1197.9382413301
32,104,3,406,0.5,-0.5,-0.5,3,3,1,3,739,1,1,739,1,0,1.6,NaN,0.806859428085174,0.806859428085174,750,1,0,congruent,1,2686.28140382818,4009.42399087689
32,104,3,407,-0.5,0.5,-0.5,2,2,1,2,589,1,1,589,1,0,1.6,0.8,-0.257232005051222,-0.257232005051222,750,1,0,congruent,0.1,7298.17687903857,9561.29165677776
32,104,3,408,-0.5,-0.5,0.5,3,4,1,4,675,0,1,NaN,1,0,1.6,0.6,0.352847083280312,NaN,750,1,0,incongruent,0.1,1836.23917074674,12022.9368288432
32,104,3,409,0.5,0.5,-0.5,1,1,1,1,655,1,1,655,1,0,1.6,NaN,0.210968225528792,0.210968225528792,750,1,0,congruent,1,7578.77194992544,7093.59642191926
32,104,3,410,-0.5,0.5,-0.5,4,4,1,4,534,1,1,534,1,0,1.6,0.8,-0.6473988638679,-0.6473988638679,750,1,0,congruent,0.1,14741.5383413327,8209.40545558093
32,104,3,411,-0.5,0.5,0,3,NaN,1,3,605,1,1,605,1,0,1.4,1,-0.143728918850006,-0.143728918850006,750,0,0,neutral,0.1,19308.9489517525,6942.70952006704
32,104,3,412,-0.5,0.5,0.5,2,4,1,2,902,1,0,902,0,0,1.2,1,1.96317211876006,1.96317211876006,750,0,0,incongruent,0,8278.97611482433,3827.58244863941
32,104,3,414,0.5,-0.5,-0.5,2,2,0.8,2,554,1,1,554,1,0,0.8,NaN,-0.505520006116381,-0.505520006116381,750,1,0,congruent,1,3560.03499428436,6513.6529825623
32,104,3,415,-0.5,-0.5,0.5,1,3,0.8,1,881,1,0,881,1,0,0.8,0.8,1.81419931812096,1.81419931812096,750,0,0,incongruent,0.1,757.688476983771,4815.42312055777
32,104,3,416,0.5,-0.5,-0.5,4,4,0.8,4,804,1,0,804,1,0,0.8,NaN,1.26796571577761,1.26796571577761,750,1,0,congruent,1,5453.01825467313,4278.58135415591
32,104,3,417,-0.5,0.5,-0.5,3,3,0.8,3,468,1,1,468,1,0,1,0.8,-1.11559909444791,-1.11559909444791,750,1,0,congruent,0.1,3447.00158310884,2706.56634772456
32,104,3,418,0.5,0.5,-0.5,2,2,0.8,2,599,1,1,599,1,0,1.2,NaN,-0.186292576175462,-0.186292576175462,750,1,0,congruent,1,2869.59307503617,1805.11483181788
32,104,3,419,-0.5,-0.5,0,4,NaN,0.8,4,465,1,1,465,1,0,1.6,0.8,-1.13688092311064,-1.13688092311064,750,0,0,neutral,0.1,845.16382502427,7310.53438494845
32,104,3,420,0.5,0.5,-0.5,1,1,0.8,1,392,1,1,392,1,0,1.4,NaN,-1.65473875390369,-1.65473875390369,750,1,0,congruent,1,2824.44662622443,5876.27138895616
32,104,3,421,-0.5,-0.5,0.5,3,2,0.8,3,986,1,0,986,0,0,1.6,1,2.55906332131644,2.55906332131644,750,0,0,incongruent,0,1779.20468351134,1946.01575344111
32,104,3,422,0.5,-0.5,0,2,NaN,0.8,2,643,1,1,643,0,0,1.2,NaN,0.125840910877881,0.125840910877881,750,0,0,neutral,0,812.969562553304,4150.77633111116
32,104,3,423,0.5,-0.5,-0.5,3,3,0.8,4,798,0,0,NaN,1,0,1,NaN,1.22540205845216,NaN,750,0,1,congruent,1,5745.43335939109,3225.34695723313
32,104,3,425,0.5,-0.5,0,4,NaN,0.8,4,621,1,1,621,0,0,1,NaN,-0.0302258326487907,-0.0302258326487907,750,0,0,neutral,0,1384.66469538961,7398.41252286848
32,104,3,426,0.5,0.5,0.5,1,2,0.8,1,896,1,0,896,0,0,0.6,NaN,1.9206084614346,1.9206084614346,750,0,0,incongruent,0,2565.1966567625,9582.22873593835
32,104,3,427,-0.5,0.5,-0.5,4,4,0.8,4,501,1,1,501,1,0,0.6,0.8,-0.881498979157907,-0.881498979157907,750,1,0,congruent,0.1,4606.98889753712,2064.5221386325
32,104,3,428,-0.5,0.5,-0.5,2,2,0.8,2,871,1,0,871,0,0,0.8,0.8,1.7432598892452,1.7432598892452,750,1,0,congruent,0,2818.60771577438,10844.4993220294
32,104,3,429,-0.5,0.5,-0.5,4,4,0.6,4,844,1,0,844,0,0,0.4,0.6,1.55172343128065,1.55172343128065,750,1,0,congruent,0,4000.43024308664,3348.07129645492
32,104,3,430,-0.5,-0.5,-0.5,2,2,0.4,2,644,1,1,644,0,0,0.2,0.8,0.132934853765457,0.132934853765457,750,1,0,congruent,0,2272.95539099142,4273.8795717932
32,104,3,431,-0.5,-0.5,-0.5,1,1,0.4,2,850,0,0,NaN,0,0,0.2,0.6,1.59428708860611,NaN,750,0,1,congruent,0,7654.4355996453,3199.55274921075
32,104,3,432,0.5,0.5,-0.5,2,2,0.4,2,591,1,1,591,1,0,0.2,NaN,-0.24304411927607,-0.24304411927607,750,1,0,congruent,1,9630.11980964207,2635.6017076348
32,104,3,433,-0.5,0.5,0.5,1,4,0.4,4,729,0,1,NaN,0,0,0.4,0.6,0.735919999209414,NaN,750,1,0,incongruent,0,9074.32618767151,926.844296641258
32,104,3,434,-0.5,-0.5,0,2,NaN,0.4,2,718,1,1,718,0,0,0.4,0.4,0.657886627446078,0.657886627446078,750,0,0,neutral,0,6959.93115097153,3040.96128031043
32,104,3,436,0.5,-0.5,-0.5,2,2,0.4,2,576,1,1,576,0,0,0.6,NaN,-0.349453262589709,-0.349453262589709,750,1,0,congruent,0,2918.15258820191,3713.09455804765
32,104,3,437,-0.5,0.5,0.5,3,4,0.4,4,705,0,1,NaN,0,0,0.6,0.4,0.565665369907591,NaN,750,1,0,incongruent,0,8103.35140714273,3282.5827405679
32,104,3,439,-0.5,-0.5,0.5,1,2,0.4,1,958,1,0,958,1,0,0.2,0,2.36043292046431,2.36043292046431,750,0,0,incongruent,0.1,1764.60226426864,4124.49254084363
32,104,3,440,-0.5,-0.5,0.5,2,1,0.4,2,623,1,1,623,1,0,0.4,0.2,-0.0160379468736387,-0.0160379468736387,750,0,0,incongruent,0.1,2090.31553583947,4095.7943111089
32,104,3,441,0.5,0.5,0,4,NaN,0.4,4,473,1,1,473,1,0,0.4,NaN,-1.08012938001003,-1.08012938001003,750,0,0,neutral,1,2242.47073310923,7292.38982192419
32,104,3,442,0.5,0.5,-0.5,1,1,0.6,1,568,1,1,568,1,0,0.8,NaN,-0.406204805690317,-0.406204805690317,750,1,0,congruent,1,5818.48961713726,2235.39784132993
32,104,3,443,-0.5,0.5,0.5,3,2,0.6,3,731,1,1,731,1,0,1.2,0.2,0.750107884984566,0.750107884984566,750,0,0,incongruent,0.1,2029.12556495063,2108.93471043145
32,104,3,445,0.5,0.5,-0.5,2,2,0.8,2,707,1,1,707,1,0,1.2,NaN,0.579853255682743,0.579853255682743,750,1,0,congruent,1,8040.22808270664,3782.72571875918
32,104,3,446,0.5,-0.5,-0.5,3,3,0.8,3,448,1,1,448,1,0,1.4,NaN,-1.25747795219943,-1.25747795219943,750,1,0,congruent,1,4642.18111407485,1707.84707121683
32,104,3,447,-0.5,-0.5,0,4,NaN,0.8,4,476,1,1,476,1,0,1.4,0.4,-1.05884755134731,-1.05884755134731,750,0,0,neutral,0.1,3006.91744026977,1249.86995073533
32,104,3,448,-0.5,-0.5,-0.5,3,3,0.8,3,531,1,1,531,1,0,1.2,0.6,-0.668680692530628,-0.668680692530628,750,1,0,congruent,0.1,3216.68790296443,2317.05150888398
32,104,3,449,0.5,0.5,0.5,1,2,0.8,4,514,0,1,NaN,0,0,1.2,NaN,-0.789277721619419,NaN,750,0,1,incongruent,0,8170.76807953877,7954.90285910859
32,104,3,450,0.5,0.5,0.5,2,4,0.8,2,783,1,0,783,0,0,1.2,NaN,1.11899291513852,1.11899291513852,750,0,0,incongruent,0,1921.61689176722,2342.32755858716
32,104,4,451,-0.5,0.5,-0.5,1,1,0.6,1,448,1,1,448,1,0,0.8,0.4,-1.25747795219943,-1.25747795219943,750,1,0,congruent,0.1,5292.23760330404,2536.31999213889
32,104,4,452,-0.5,0.5,-0.5,3,3,0.6,3,589,1,1,589,1,0,0.6,0.6,-0.257232005051222,-0.257232005051222,750,1,0,congruent,0.1,7631.34994442278,2006.63409045028
32,104,4,453,-0.5,-0.5,-0.5,1,1,0.6,1,374,1,1,374,0,0,0.6,0.8,-1.78242972588005,-1.78242972588005,750,1,0,congruent,0,2502.11471384902,4211.98559554486
32,104,4,454,0.5,-0.5,-0.5,2,2,0.6,2,592,1,1,592,0,0,0.4,NaN,-0.235950176388494,-0.235950176388494,750,1,0,congruent,0,4930.39696781388,3527.3967104753
32,104,4,455,-0.5,-0.5,0,1,NaN,0.6,1,492,1,1,492,1,0,0.4,0.8,-0.945344465146091,-0.945344465146091,750,0,0,neutral,0.1,2821.54887059826,1668.60711509197
32,104,4,456,0.5,0.5,-0.5,2,2,0.6,2,501,1,1,501,1,0,0.6,NaN,-0.881498979157907,-0.881498979157907,750,1,0,congruent,1,5498.04658326177,2653.90454860316
32,104,4,458,-0.5,-0.5,0.5,2,3,0.8,1,869,0,0,NaN,1,0,1,0.8,1.72907200347005,NaN,750,0,1,incongruent,0.1,4224.75063830608,4636.6698320559
32,104,4,459,-0.5,-0.5,0.5,4,1,0.8,4,637,1,1,637,1,0,1.2,0.8,0.0832772535524248,0.0832772535524248,750,0,0,incongruent,0.1,3892.81062158517,4342.20023754433
32,104,4,460,0.5,-0.5,-0.5,2,2,0.8,2,598,1,1,598,1,0,1.4,NaN,-0.193386519063038,-0.193386519063038,750,1,0,congruent,1,1279.66256479412,3233.64581216754
32,104,4,461,0.5,0.5,-0.5,3,3,0.8,3,659,1,1,659,1,0,1.6,NaN,0.239343997079096,0.239343997079096,750,1,0,congruent,1,1934.52821776996,3750.27077952776
32,104,4,462,0.5,0.5,0.5,1,4,1,4,651,0,1,NaN,0,0,1.6,NaN,0.182592453978488,NaN,750,1,0,incongruent,0,5131.25614888919,3155.01606340193
32,104,4,463,-0.5,-0.5,0,3,NaN,0.8,3,542,1,1,542,1,0,1.2,0.8,-0.590647320767292,-0.590647320767292,750,0,0,neutral,0.1,2446.94403045059,6321.16707535839
32,104,4,464,-0.5,0.5,0.5,4,2,0.8,1,774,0,0,NaN,0,0,1.2,0.8,1.05514742915033,NaN,750,0,1,incongruent,0,3976.07270585833,3070.08794194214
32,104,4,465,0.5,-0.5,0,3,NaN,0.6,3,638,1,1,638,1,0,1,NaN,0.0903711964400008,0.0903711964400008,750,0,0,neutral,1,2663.37228682137,4591.89966914089
32,104,4,466,0.5,0.5,-0.5,4,4,0.6,4,484,1,1,484,1,0,1,NaN,-1.0020960082467,-1.0020960082467,750,1,0,congruent,1,4569.90073472205,2787.34668555501
32,104,4,467,0.5,-0.5,0.5,3,2,0.6,3,825,1,0,825,0,0,1,NaN,1.41693851641671,1.41693851641671,750,0,0,incongruent,0,1950.74925546433,1155.28095273948
32,104,4,468,-0.5,0.5,0,4,NaN,0.6,4,505,1,1,505,1,0,1,0.6,-0.853123207607603,-0.853123207607603,750,0,0,neutral,0.1,4782.86907361894,1048.61130344661
32,104,4,469,0.5,0.5,-0.5,1,1,0.6,1,523,1,1,523,1,0,1,NaN,-0.725432235631236,-0.725432235631236,750,1,0,congruent,1,1483.73226815272,1681.61181012975
32,104,4,470,-0.5,0.5,0.5,4,3,0.6,3,657,0,1,NaN,0,0,1.4,0.8,0.225156111303944,NaN,750,1,0,incongruent,0,6429.2677756564,2134.8317092772
32,104,4,471,-0.5,-0.5,0,2,NaN,0.6,2,536,1,1,536,1,0,1,0.8,-0.633210978092748,-0.633210978092748,750,0,0,neutral,0.1,1538.89192073526,1304.29649419556
32,104,4,472,0.5,-0.5,0.5,4,3,0.6,3,717,0,1,NaN,0,0,0.8,NaN,0.650792684558502,NaN,750,1,0,incongruent,0,6727.90260446462,1881.22603360194
32,104,4,473,0.5,-0.5,0,3,NaN,0.6,3,609,1,1,609,0,0,0.8,NaN,-0.115353147299702,-0.115353147299702,750,0,0,neutral,0,1183.55846436655,3327.64627407467
32,104,4,474,-0.5,-0.5,0.5,1,2,0.6,1,629,1,1,629,0,0,0.6,1,0.0265257104518171,0.0265257104518171,750,0,0,incongruent,0,1964.76274171668,5730.98201310093
32,104,4,475,-0.5,0.5,-0.5,4,4,0.6,4,410,1,1,410,1,0,0.2,0.6,-1.52704778192732,-1.52704778192732,750,1,0,congruent,0.1,15810.5278556428,2086.17182707573
32,104,4,476,-0.5,0.5,0,2,NaN,0.8,2,804,1,0,804,0,0,0.4,0.6,1.26796571577761,1.26796571577761,750,0,0,neutral,0,3181.47261509441,1042.43567808582
32,104,4,477,0.5,-0.5,0.5,1,3,0.6,1,682,1,1,682,0,0,0.2,NaN,0.402504683493343,0.402504683493343,750,0,0,incongruent,0,3498.59130496597,2043.88944302733
32,104,4,478,0.5,-0.5,0,4,NaN,0.6,4,472,1,1,472,1,0,0.2,NaN,-1.08722332289761,-1.08722332289761,750,0,0,neutral,1,76110.0611216749,2373.37816118489
32,104,4,479,-0.5,0.5,-0.5,1,1,0.6,1,471,1,1,471,1,0,0.6,0.4,-1.09431726578519,-1.09431726578519,750,1,0,congruent,0.1,3793.8196405948,2226.26782331983
32,104,4,480,-0.5,-0.5,0.5,2,3,0.6,2,693,1,1,693,1,0,0.8,0.8,0.480538055256679,0.480538055256679,750,0,0,incongruent,0.1,3327.71690284327,4272.30045493982
32,104,4,481,0.5,0.5,0,1,NaN,0.6,1,474,1,1,474,1,0,0.8,NaN,-1.07303543712246,-1.07303543712246,750,0,0,neutral,1,524.838266661976,1543.56581000532
32,104,4,482,-0.5,-0.5,0.5,4,1,0.6,4,756,1,0,756,0,0,1.2,0.8,0.927456457173965,0.927456457173965,750,0,0,incongruent,0,5714.21203587463,1664.97760174734
32,104,4,483,-0.5,0.5,-0.5,3,3,0.6,3,669,1,1,669,1,0,1.2,0.6,0.310283425954856,0.310283425954856,750,1,0,congruent,0.1,701.878019967962,1818.79337299178
32,104,4,484,0.5,-0.5,0,4,NaN,0.8,4,540,1,1,540,0,0,1,NaN,-0.604835206542444,-0.604835206542444,750,0,0,neutral,0,3945.119057713,3140.7053455456
32,104,4,485,0.5,-0.5,0.5,3,1,0.8,1,587,0,1,NaN,1,0,0.8,NaN,-0.271419890826374,NaN,750,1,0,incongruent,1,6548.79490407525,2420.91614385239
32,104,4,486,0.5,0.5,-0.5,2,2,0.8,2,596,1,1,596,1,0,1,NaN,-0.20757440483819,-0.20757440483819,750,1,0,congruent,1,1729.85425126719,2495.05376235234
32,104,4,487,-0.5,-0.5,-0.5,1,1,0.8,1,495,1,1,495,1,0,1,0.6,-0.924062636483363,-0.924062636483363,750,1,0,congruent,0.1,3150.15609873874,2584.90790451425
32,104,4,488,-0.5,0.5,0.5,4,2,0.8,4,677,1,1,677,1,0,1.2,0.6,0.367034969055464,0.367034969055464,750,0,0,incongruent,0.1,3234.53226317454,4963.32221577183
32,104,4,489,-0.5,0.5,0.5,1,3,1,1,734,1,1,734,1,0,1.2,0.8,0.771389713647294,0.771389713647294,750,0,0,incongruent,0.1,5807.62282182215,6925.9472824671
32,104,4,490,-0.5,-0.5,0,3,NaN,1,3,656,1,1,656,1,0,1.4,0.6,0.218062168416368,0.218062168416368,750,0,0,neutral,0.1,2371.35558831565,1399.71421420008
32,104,4,491,0.5,0.5,-0.5,2,2,1,2,553,1,1,553,1,0,1.2,NaN,-0.512613949003957,-0.512613949003957,750,1,0,congruent,1,1860.13545338667,2695.7674655138
32,104,4,492,0.5,0.5,0.5,1,4,1,1,842,1,0,842,0,0,1.2,NaN,1.5375355455055,1.5375355455055,750,0,0,incongruent,0,2818.23754288798,893.609475573213
32,104,4,493,0.5,-0.5,0,2,NaN,0.8,2,548,1,1,548,1,0,1,NaN,-0.548083663441836,-0.548083663441836,750,0,0,neutral,1,3781.62856653499,1861.53469830598
32,104,4,494,0.5,-0.5,-0.5,3,3,0.8,3,622,1,1,622,1,0,1.2,NaN,-0.0231318897612147,-0.0231318897612147,750,1,0,congruent,1,4047.69939823775,7037.73970825941
32,104,4,495,0.5,0.5,0,1,NaN,0.8,1,505,1,1,505,1,0,1.4,NaN,-0.853123207607603,-0.853123207607603,750,0,0,neutral,1,770.661044211103,638.181798828223
32,104,4,496,0.5,-0.5,-0.5,4,4,0.8,4,486,1,1,486,1,0,1.6,NaN,-0.987908122471546,-0.987908122471546,750,1,0,congruent,1,1214.21752333817,2877.55868684641
32,104,4,497,-0.5,-0.5,0,1,NaN,0.8,1,503,1,1,503,1,0,1.6,0.6,-0.867311093382755,-0.867311093382755,750,0,0,neutral,0.1,1170.44985479539,417.619352726582
32,104,4,498,0.5,-0.5,0.5,3,1,0.8,4,752,0,0,NaN,0,0,1.8,NaN,0.899080685623661,NaN,750,0,1,incongruent,0,2048.01099380548,1843.73670898478
32,104,4,499,-0.5,-0.5,-0.5,4,4,0.8,4,659,1,1,659,1,0,1.4,0.8,0.239343997079096,0.239343997079096,750,1,0,congruent,0.1,5371.71875960899,2472.08898960602
32,104,4,500,-0.5,-0.5,0.5,1,2,0.8,1,872,1,0,872,1,0,1.2,0.8,1.75035383213278,1.75035383213278,750,0,0,incongruent,0.1,1673.71388913825,2167.6032897659
32,104,4,501,-0.5,0.5,0.5,2,1,0.8,2,707,1,1,707,1,0,1,0.8,0.579853255682743,0.579853255682743,750,0,0,incongruent,0.1,5184.4608890129,10393.9976508763
32,104,4,502,-0.5,-0.5,0.5,1,3,0.8,1,924,1,0,924,1,0,0.8,1,2.11923886228673,2.11923886228673,750,0,0,incongruent,0.1,3263.08699216193,7060.70698006809
32,104,4,503,0.5,-0.5,0,2,NaN,0.8,2,786,1,0,786,1,0,0.8,NaN,1.14027474380124,1.14027474380124,750,0,0,neutral,1,3736.74210993765,882.48866627499
32,104,4,504,0.5,0.5,0.5,1,4,0.8,1,613,1,1,613,1,0,1.2,NaN,-0.0869773757493984,-0.0869773757493984,750,0,0,incongruent,1,11359.8712836532,6712.70733457789
32,104,4,505,0.5,0.5,0,2,NaN,0.8,2,545,1,1,545,1,0,1.4,NaN,-0.569365492104564,-0.569365492104564,750,0,0,neutral,1,4459.27032762028,2623.74774982038
32,104,4,506,0.5,-0.5,-0.5,3,3,0.8,3,667,1,1,667,1,0,1.6,NaN,0.296095540179704,0.296095540179704,750,1,0,congruent,1,7264.12676268525,3695.25693702373
32,104,4,507,0.5,-0.5,-0.5,2,2,0.8,2,807,1,0,807,1,0,1.8,NaN,1.28924754444034,1.28924754444034,750,1,0,congruent,1,5924.77195591329,3291.37142261926
32,104,4,508,0.5,0.5,0,1,NaN,0.8,1,584,1,1,584,1,0,2,NaN,-0.292701719489102,-0.292701719489102,750,0,0,neutral,1,2002.60360597022,1347.82554611915
32,104,4,509,-0.5,-0.5,-0.5,3,3,1,3,786,1,0,786,1,0,2,1,1.14027474380124,1.14027474380124,750,1,0,congruent,0.1,11092.9971458872,4940.15968596077
32,104,4,510,0.5,0.5,0.5,1,2,1,2,722,0,1,NaN,0,0,1.8,NaN,0.686262398996382,NaN,750,1,0,incongruent,0,1758.04661064144,3537.58920905517
32,104,4,511,-0.5,0.5,-0.5,4,4,0.8,3,932,0,0,NaN,0,0,1.4,1,2.17599040538734,NaN,750,0,1,congruent,0,6933.51566205491,3708.81155894987
32,104,4,512,0.5,-0.5,0,2,NaN,0.6,2,656,1,1,656,1,0,1,NaN,0.218062168416368,0.218062168416368,750,0,0,neutral,1,1526.44567206432,4109.596413497
32,104,4,513,0.5,0.5,-0.5,3,3,0.6,3,596,1,1,596,1,0,1,NaN,-0.20757440483819,-0.20757440483819,750,1,0,congruent,1,3125.54342857025,1727.23298490261
32,104,4,514,-0.5,0.5,0,2,NaN,0.6,2,592,1,1,592,1,0,1,0.8,-0.235950176388494,-0.235950176388494,750,0,0,neutral,0.1,3008.74365746603,1195.720059972
32,104,4,515,0.5,0.5,-0.5,4,4,0.6,4,593,1,1,593,1,0,1,NaN,-0.228856233500918,-0.228856233500918,750,1,0,congruent,1,3085.79670613704,6845.38416775154
32,104,4,516,0.5,0.5,0,1,NaN,0.6,1,485,1,1,485,1,0,1.4,NaN,-0.995002065359122,-0.995002065359122,750,0,0,neutral,1,2184.16770945121,2063.49870946972
32,104,4,517,-0.5,-0.5,0.5,3,4,0.8,4,631,0,1,NaN,1,0,1.8,1,0.040713596226969,NaN,750,1,0,incongruent,0.1,13494.1851940334,3961.57010430669
32,104,4,518,-0.5,0.5,0.5,4,2,0.8,3,734,0,1,NaN,0,0,1.6,0.8,0.771389713647294,NaN,750,0,1,incongruent,0,7917.56968279507,4307.40562527467
32,104,4,519,0.5,-0.5,-0.5,1,1,0.8,1,621,1,1,621,1,0,1.2,NaN,-0.0302258326487907,-0.0302258326487907,750,1,0,congruent,1,1672.54673320696,5812.88474499567
32,104,4,520,0.5,0.5,0.5,2,4,0.8,2,828,1,0,828,0,0,1.4,NaN,1.43822034507943,1.43822034507943,750,0,0,incongruent,0,426.394858475998,1943.29732069933
32,104,4,522,0.5,0.5,-0.5,3,3,0.4,3,534,1,1,534,1,0,0.6,NaN,-0.6473988638679,-0.6473988638679,750,1,0,congruent,1,2827.14446535346,1144.97921006021
32,104,4,523,0.5,-0.5,-0.5,2,2,0.4,2,615,1,1,615,0,0,0.8,NaN,-0.0727894899742465,-0.0727894899742465,750,1,0,congruent,0,8732.93470216698,1125.8404885476
32,104,4,525,-0.5,0.5,0,1,NaN,0.4,1,697,1,1,697,1,0,0.8,0.4,0.508913826806983,0.508913826806983,750,0,0,neutral,0.1,1445.41945564507,2238.46922184837
32,104,4,526,-0.5,0.5,-0.5,3,3,0.4,3,753,1,0,753,0,0,1,0.4,0.906174628511237,0.906174628511237,750,1,0,congruent,0,1191.48312061106,2926.22824649622
32,104,4,527,-0.5,0.5,0,2,NaN,0.4,2,600,1,1,600,1,0,1,0.4,-0.179198633287886,-0.179198633287886,750,0,0,neutral,0.1,1786.66435661653,6076.64339813205
32,104,4,528,-0.5,0.5,0.5,1,2,0.6,1,703,1,1,703,1,0,0.8,0.4,0.551477484132439,0.551477484132439,750,0,0,incongruent,0.1,2994.68491665226,4051.97865230054
32,104,4,529,0.5,0.5,0,3,NaN,0.8,3,530,1,1,530,1,0,1,NaN,-0.675774635418204,-0.675774635418204,750,0,0,neutral,1,1134.69790514109,1683.75818750911
32,104,4,530,-0.5,0.5,-0.5,4,4,0.8,4,382,1,1,382,1,0,1,0.6,-1.72567818277945,-1.72567818277945,750,1,0,congruent,0.1,3041.68103471123,3493.74247029517
32,104,4,531,-0.5,-0.5,-0.5,1,1,0.8,1,564,1,1,564,1,0,1,1,-0.434580577240621,-0.434580577240621,750,1,0,congruent,0.1,3216.54530166669,2383.89471420802
32,104,4,532,-0.5,0.5,0.5,2,4,0.8,2,749,1,1,749,1,0,1.2,0.8,0.877798856960933,0.877798856960933,750,0,0,incongruent,0.1,6612.74030303585,3268.18996569394
32,104,4,533,0.5,0.5,-0.5,1,1,1,1,448,1,1,448,1,0,1.2,NaN,-1.25747795219943,-1.25747795219943,750,1,0,congruent,1,1078.63207249668,1139.55242783875
32,104,4,534,0.5,0.5,0,3,NaN,1,3,456,1,1,456,1,0,1.4,NaN,-1.20072640909883,-1.20072640909883,750,0,0,neutral,1,1647.25328059815,3142.49072335789
32,104,4,535,-0.5,-0.5,-0.5,1,1,1,1,619,1,1,619,1,0,1.4,1,-0.0444137184239426,-0.0444137184239426,750,1,0,congruent,0.1,4258.28133435439,14763.1181673742
32,104,4,536,0.5,0.5,0.5,4,3,1,3,759,0,0,NaN,0,0,1.4,NaN,0.948738285836693,NaN,750,1,0,incongruent,0,7896.57454448975,2369.17945440146
32,104,4,537,0.5,-0.5,-0.5,2,2,0.8,2,591,1,1,591,1,0,1.2,NaN,-0.24304411927607,-0.24304411927607,750,1,0,congruent,1,2750.90030766442,1843.5673236917
32,104,4,538,0.5,0.5,0,4,NaN,0.8,4,784,1,0,784,0,0,1.4,NaN,1.12608685802609,1.12608685802609,750,0,0,neutral,0,3788.29743170943,4417.94189134056
32,104,4,539,0.5,0.5,-0.5,1,1,0.6,1,581,1,1,581,1,0,1,NaN,-0.313983548151829,-0.313983548151829,750,1,0,congruent,1,2145.92838975667,3615.212093204
32,104,4,540,-0.5,0.5,0.5,2,4,0.6,2,745,1,1,745,1,0,1,0.8,0.849423085410629,0.849423085410629,750,0,0,incongruent,0.1,5142.01451840772,1731.14081365398
32,104,4,541,-0.5,-0.5,0.5,4,2,0.6,3,972,0,0,NaN,1,0,1,1,2.45974812089037,NaN,750,0,1,incongruent,0.1,8868.64457689009,1791.29133725325
32,104,4,542,-0.5,0.5,0,3,NaN,0.6,3,654,1,1,654,1,0,1.2,1,0.203874282641216,0.203874282641216,750,0,0,neutral,0.1,3402.57311625904,1309.3292390203
32,104,4,543,-0.5,-0.5,0.5,2,1,0.6,2,883,1,0,883,1,0,1,1,1.82838720389611,1.82838720389611,750,0,0,incongruent,0.1,3678.06274520054,3471.44807917094
32,104,4,544,-0.5,-0.5,0.5,1,3,0.6,1,615,1,1,615,0,0,1.2,1,-0.0727894899742465,-0.0727894899742465,750,0,0,incongruent,0,8135.91444078344,4733.12445981443
32,104,4,545,-0.5,0.5,0,2,NaN,0.6,2,558,1,1,558,1,0,0.8,1,-0.477144234566077,-0.477144234566077,750,0,0,neutral,0.1,5113.65894665413,2649.12005797499
32,104,4,546,0.5,0.5,0.5,4,3,0.8,4,633,1,1,633,1,0,0.8,NaN,0.0549014820021209,0.0549014820021209,750,0,0,incongruent,1,1459.89548858712,8776.34846927165
32,104,4,547,-0.5,0.5,0,3,NaN,1,3,533,1,1,533,1,0,1,1,-0.654492806755476,-0.654492806755476,750,0,0,neutral,0.1,5405.00754284332,1662.70192594215
32,104,4,548,0.5,0.5,-0.5,4,4,1,4,536,1,1,536,1,0,1,NaN,-0.633210978092748,-0.633210978092748,750,1,0,congruent,1,1227.80984688163,4409.16279798484
32,104,4,549,0.5,0.5,0,1,NaN,1,1,422,1,1,422,1,0,1.2,NaN,-1.44192046727641,-1.44192046727641,750,0,0,neutral,1,3251.30881508038,6108.55124941223
32,104,4,550,0.5,0.5,-0.5,3,3,1,3,561,1,1,561,1,0,1.6,NaN,-0.455862405903349,-0.455862405903349,750,1,0,congruent,1,1814.35953332533,4179.80934898972
32,104,4,551,0.5,-0.5,0.5,2,1,1,1,455,0,1,NaN,1,0,1.8,NaN,-1.2078203519864,NaN,750,1,0,incongruent,1,7205.89263109093,3532.10441556416
32,104,4,552,0.5,-0.5,-0.5,4,4,1,4,602,1,1,602,1,0,1.8,NaN,-0.165010747512734,-0.165010747512734,750,1,0,congruent,1,1215.33238006452,1780.2412855044
32,104,4,553,-0.5,0.5,-0.5,3,3,1,3,586,1,1,586,1,0,2,1,-0.27851383371395,-0.27851383371395,750,1,0,congruent,0.1,5550.90770271838,3206.73374140266
32,104,4,554,-0.5,-0.5,0.5,2,1,1,1,549,0,1,NaN,1,0,1.8,0.8,-0.54098972055426,NaN,750,1,0,incongruent,0.1,6348.57258433522,4702.92671077551
32,104,4,555,0.5,0.5,-0.5,3,3,1,3,696,1,1,696,1,0,1.6,NaN,0.501819883919407,0.501819883919407,750,1,0,congruent,1,10211.5002266176,1714.08069589233
32,104,4,557,0.5,-0.5,0.5,3,4,1,3,688,1,1,688,1,0,1.6,NaN,0.445068340818799,0.445068340818799,750,0,0,incongruent,1,4493.92060436679,2002.70568131894
32,104,4,558,0.5,0.5,-0.5,2,2,1,2,505,1,1,505,1,0,1.6,NaN,-0.853123207607603,-0.853123207607603,750,1,0,congruent,1,5694.36764083575,6376.48658547724
32,104,4,559,-0.5,0.5,0.5,3,1,1,3,759,1,0,759,0,0,1.8,1,0.948738285836693,0.948738285836693,750,0,0,incongruent,0,4759.91256764216,1391.88641713353
32,104,4,560,-0.5,0.5,0.5,1,4,0.8,1,702,1,1,702,1,0,1.6,0.8,0.544383541244863,0.544383541244863,750,0,0,incongruent,0.1,2666.08097035893,2557.1401734084
32,104,4,561,-0.5,0.5,0,4,NaN,0.8,4,539,1,1,539,1,0,1.4,0.8,-0.61192914943002,-0.61192914943002,750,0,0,neutral,0.1,3297.73770857243,2656.83703003694
32,104,4,562,-0.5,0.5,0.5,3,1,0.8,3,640,1,1,640,1,0,1.2,0.8,0.104559082215153,0.104559082215153,750,0,0,incongruent,0.1,5604.01507273781,5107.75900343994
32,104,4,563,0.5,-0.5,-0.5,2,2,0.8,2,524,1,1,524,1,0,1,NaN,-0.71833829274366,-0.71833829274366,750,1,0,congruent,1,2026.62086699366,2599.48725209917
32,104,4,564,0.5,0.5,-0.5,1,1,0.8,1,821,1,0,821,0,0,1,NaN,1.3885627448664,1.3885627448664,750,1,0,congruent,0,2438.32691764169,3379.44659912944
32,104,4,565,-0.5,-0.5,0.5,4,3,0.6,4,694,1,1,694,1,0,1,0.8,0.487631998144255,0.487631998144255,750,0,0,incongruent,0.1,2181.63955155715,2868.45212422967
32,104,4,566,-0.5,0.5,0,3,NaN,0.6,3,651,1,1,651,1,0,1,0.8,0.182592453978488,0.182592453978488,750,0,0,neutral,0.1,3947.34953882726,5261.97038806154
32,104,4,567,0.5,0.5,-0.5,2,2,0.8,2,529,1,1,529,1,0,1,NaN,-0.68286857830578,-0.68286857830578,750,1,0,congruent,1,5409.09219421972,4410.89912766173
32,104,4,568,-0.5,0.5,-0.5,1,1,0.8,1,993,1,0,993,0,0,1.2,0.8,2.60872092152947,2.60872092152947,750,1,0,congruent,0,1900.76106400734,986.936124473252
32,104,4,570,0.5,-0.5,0.5,4,1,0.6,4,812,1,0,812,1,0,0.8,NaN,1.32471725887822,1.32471725887822,750,0,0,incongruent,1,1620.32274317778,5100.87108420179
32,104,4,571,0.5,-0.5,-0.5,2,2,0.6,2,511,1,1,511,0,0,1,NaN,-0.810559550282147,-0.810559550282147,750,1,0,congruent,0,4038.12135943637,4233.49979699128
32,104,4,572,-0.5,0.5,0,3,NaN,0.6,3,648,1,1,648,1,0,0.8,0.8,0.16131062531576,0.16131062531576,750,0,0,neutral,0.1,3685.36458190688,1998.03864009944
32,104,4,573,-0.5,0.5,0.5,1,4,0.6,1,682,1,1,682,1,0,0.6,0.8,0.402504683493343,0.402504683493343,750,0,0,incongruent,0.1,5529.92241949132,8840.38422218809
32,104,4,574,-0.5,0.5,-0.5,2,2,0.8,2,537,1,1,537,1,0,0.8,0.8,-0.626117035205172,-0.626117035205172,750,1,0,congruent,0.1,4350.03146298241,1931.54748548797
32,104,4,575,0.5,-0.5,0,1,NaN,0.8,1,524,1,1,524,1,0,1,NaN,-0.71833829274366,-0.71833829274366,750,0,0,neutral,1,688.771125527895,1770.73898225797
32,104,4,576,0.5,0.5,-0.5,2,2,0.8,2,565,1,1,565,1,0,1,NaN,-0.427486634353045,-0.427486634353045,750,1,0,congruent,1,1915.3236491031,2159.50268944943
32,104,4,577,0.5,0.5,0.5,1,4,0.8,1,666,1,1,666,1,0,1.4,NaN,0.289001597292128,0.289001597292128,750,0,0,incongruent,1,3405.39158543738,4921.37993735449
32,104,4,578,0.5,-0.5,0.5,3,1,1,3,426,1,1,426,1,0,1.6,NaN,-1.4135446957261,-1.4135446957261,750,0,0,incongruent,1,4350.74818683964,1924.04375360328
32,104,4,579,0.5,-0.5,0,4,NaN,1,4,432,1,1,432,1,0,1.8,NaN,-1.37098103840065,-1.37098103840065,750,0,0,neutral,1,3653.2617806143,4381.88310790462
32,104,4,580,0.5,-0.5,-0.5,2,2,1,2,601,1,1,601,1,0,2,NaN,-0.17210469040031,-0.17210469040031,750,1,0,congruent,1,3562.79356673986,1937.07816083942
32,104,4,581,0.5,0.5,-0.5,4,4,1,4,490,1,1,490,1,0,2,NaN,-0.959532350921243,-0.959532350921243,750,1,0,congruent,1,1866.21737611872,4378.73742873126
32,104,4,582,-0.5,-0.5,0,3,NaN,1,4,455,0,1,NaN,1,0,2,0.8,-1.2078203519864,NaN,750,0,1,neutral,0.1,11118.23385752,1256.93653173666
32,104,4,583,0.5,0.5,-0.5,4,4,1,4,524,1,1,524,1,0,1.8,NaN,-0.71833829274366,-0.71833829274366,750,1,0,congruent,1,3540.2177691991,5595.31017006527
32,104,4,584,-0.5,-0.5,-0.5,2,2,1,2,516,1,1,516,1,0,1.8,0.8,-0.775089835844267,-0.775089835844267,750,1,0,congruent,0.1,1918.92423118088,1651.48289399058
32,104,4,585,0.5,-0.5,0,3,NaN,1,3,567,1,1,567,1,0,1.6,NaN,-0.413298748577893,-0.413298748577893,750,0,0,neutral,1,2544.49186071382,47432.5155935787
32,104,4,586,0.5,-0.5,0.5,4,1,1,1,504,0,1,NaN,1,0,1.6,NaN,-0.860217150495179,NaN,750,1,0,incongruent,1,3817.28173221904,4145.56772078473
32,104,4,587,-0.5,-0.5,-0.5,3,3,1,3,486,1,1,486,1,0,1.6,0.8,-0.987908122471546,-0.987908122471546,750,1,0,congruent,0.1,3882.56560704431,1438.97530366136
32,104,4,588,-0.5,0.5,-0.5,2,2,1,2,488,1,1,488,1,0,1.6,0.8,-0.973720236696394,-0.973720236696394,750,1,0,congruent,0.1,4598.7243214718,1462.20536440619
32,104,4,589,0.5,0.5,0,3,NaN,1,3,618,1,1,618,1,0,1.4,NaN,-0.0515076613115186,-0.0515076613115186,750,0,0,neutral,1,2735.72045017374,1699.9299876633
32,104,4,590,-0.5,-0.5,-0.5,2,2,1,2,610,1,1,610,1,0,1.6,1,-0.108259204412126,-0.108259204412126,750,1,0,congruent,0.1,6722.29917927556,872.022222448123
32,104,4,591,-0.5,-0.5,0.5,3,1,1,4,738,0,1,NaN,1,0,1.4,1,0.799765485197598,NaN,750,0,1,incongruent,0.1,2357.76495940153,6770.57574079989
32,104,4,592,0.5,0.5,0.5,4,3,1,4,668,1,1,668,1,0,1.2,NaN,0.30318948306728,0.30318948306728,750,0,0,incongruent,1,2759.88936123456,2311.02754506072
32,104,4,593,-0.5,-0.5,0.5,3,2,1,3,504,1,1,504,1,0,1.4,1,-0.860217150495179,-0.860217150495179,750,0,0,incongruent,0.1,2006.38020808439,7278.52398005486
32,104,4,594,-0.5,-0.5,0.5,4,3,1,4,501,1,1,501,1,0,1.4,1,-0.881498979157907,-0.881498979157907,750,0,0,incongruent,0.1,3245.65701387039,12156.1732037298
32,104,4,595,0.5,-0.5,0.5,3,1,1,3,831,1,0,831,1,0,1.2,NaN,1.45950217374216,1.45950217374216,750,0,0,incongruent,1,2691.20156057737,2686.85347277249
32,104,4,596,0.5,-0.5,0.5,4,3,1,4,690,1,1,690,1,0,1.4,NaN,0.459256226593951,0.459256226593951,750,0,0,incongruent,1,4408.87794882279,3193.33385237734
32,104,4,597,0.5,0.5,0.5,3,2,1,3,580,1,1,580,1,0,1.6,NaN,-0.321077491039405,-0.321077491039405,750,0,0,incongruent,1,9081.45915103098,691.450984318746
32,104,4,598,-0.5,0.5,0.5,4,1,1,1,900,0,0,NaN,0,0,1.6,0.8,1.9489842329849,NaN,750,1,0,incongruent,0,9275.93330092584,3597.93503963909
32,104,4,599,0.5,0.5,-0.5,2,2,0.8,2,616,1,1,616,1,0,1.4,NaN,-0.0656955470866705,-0.0656955470866705,750,1,0,congruent,1,1566.97754447403,852.541042960691
32,104,4,600,0.5,-0.5,-0.5,4,4,0.8,4,678,1,1,678,1,0,1.6,NaN,0.374128911943039,0.374128911943039,750,1,0,congruent,1,2471.42716282943,6481.46830723849
