subid,vers,block,trial,rewlvl,efflvl,congruency,targetresp,distractorresp,rollingefflvl,resp,rt,acc,fast,accrt,isrewarded,ismiss,runavgrrgen,runavgrrcond,zrt,acczrt,rtthreshold,isdisterror,isranderror,congruence,feedback,fcz_resp_theta,fcz_resp_theta_baseline
34,104,1,1,-0.5,-0.5,0.5,3,4,0.3,3,875,1,0,875,0,0,0,0,1.36734283486524,1.36734283486524,750,0,0,incongruent,0,647.272378271722,1508.81047473367
34,104,1,2,0.5,-0.5,0,4,NaN,0.3,4,635,1,1,635,1,0,0,NaN,-0.377580319867342,-0.377580319867342,750,0,0,neutral,1,952.293033077033,2057.05249979653
34,104,1,3,0.5,0.5,-0.5,2,2,0.3,1,725,0,1,NaN,0,0,0.4,NaN,0.276765863157378,NaN,750,0,1,congruent,0,1693.30658843298,3397.40808084288
34,104,1,4,-0.5,-0.5,0,3,NaN,0.2,2,704,0,1,NaN,0,0,0.4,0,0.124085087118277,NaN,750,0,1,neutral,0,719.838381482845,1195.84036702202
34,104,1,5,0.5,-0.5,-0.5,2,2,0.2,2,722,1,1,722,1,0,0.4,NaN,0.25495432372322,0.25495432372322,750,1,0,congruent,1,1253.26757426876,2357.21576400094
34,104,1,6,0.5,0.5,0.5,3,4,0.2,3,932,1,0,932,0,0,0.8,NaN,1.78176208411423,1.78176208411423,750,0,0,incongruent,0,2920.99558833573,1889.40852192532
34,104,1,7,0.5,-0.5,0.5,4,1,0.2,3,821,0,0,NaN,0,0,0.8,NaN,0.974735125050412,NaN,750,0,1,incongruent,0,2351.80727143887,2103.42364011498
34,104,1,8,0.5,0.5,-0.5,2,2,0.2,1,897,0,0,NaN,0,0,0.4,NaN,1.52729412404906,NaN,750,0,1,congruent,0,615.579502803095,905.808078793795
34,104,1,9,0.5,0.5,0,3,NaN,0.2,4,678,0,1,NaN,0,0,0.4,NaN,-0.0649482546444203,NaN,750,0,1,neutral,0,1255.67295342353,672.739177230454
34,104,1,11,0.5,-0.5,0.5,1,4,0.1,1,798,1,0,798,0,0,0,NaN,0.807513322721873,0.807513322721873,750,0,0,incongruent,0,1132.75266718479,1371.21811588747
34,104,1,12,-0.5,-0.5,0.5,4,3,0.1,2,959,0,0,NaN,0,0,0,0,1.97806593902165,NaN,750,0,1,incongruent,0,2876.56187735132,1691.96615863721
34,104,1,13,-0.5,0.5,0,3,NaN,0.1,2,867,0,0,NaN,0,0,0,0,1.30917872970749,NaN,750,0,1,neutral,0,1408.43795198506,2151.27065896985
34,104,1,14,0.5,0.5,0.5,2,4,0,1,774,0,0,NaN,0,0,0,NaN,0.633021007248614,NaN,750,0,1,incongruent,0,5326.15019775708,2573.5700158228
34,104,1,15,-0.5,-0.5,-0.5,3,3,0,4,863,0,0,NaN,0,0,0,0,1.28009667712861,NaN,750,0,1,congruent,0,1087.59882277238,2810.56555554146
34,104,1,16,0.5,0.5,0,1,NaN,0,2,825,0,0,NaN,0,0,0,NaN,1.00381717762929,NaN,750,0,1,neutral,0,3415.58700259423,3170.47474575626
34,104,1,17,-0.5,-0.5,0.5,3,4,0,3,983,1,0,983,0,0,0,0,2.15255825449491,2.15255825449491,750,0,0,incongruent,0,1734.11586774917,1377.27060056649
34,104,1,18,0.5,0.5,0.5,4,2,0,4,890,1,0,890,0,0,0,NaN,1.47640053203603,1.47640053203603,750,0,0,incongruent,0,698.311347913331,2927.379048976
34,104,1,19,0.5,-0.5,0.5,2,3,0,2,843,1,0,843,0,0,0,NaN,1.13468641423423,1.13468641423423,750,0,0,incongruent,0,2704.34500332741,4749.16710029409
34,104,1,20,0.5,-0.5,-0.5,1,1,0,1,590,1,1,590,0,0,0,NaN,-0.704753411379702,-0.704753411379702,750,1,0,congruent,0,1770.21620026782,1852.87642473294
34,104,1,21,0.5,0.5,0.5,4,3,0,2,827,0,0,NaN,0,0,0,NaN,1.01835820391873,NaN,750,0,1,incongruent,0,1754.23165814052,1848.60292371705
34,104,1,22,0.5,0.5,0,2,NaN,0,2,553,1,1,553,1,0,0,NaN,-0.973762397734309,-0.973762397734309,750,0,0,neutral,1,2916.26594754652,1403.4696656491
34,104,1,23,-0.5,-0.5,-0.5,4,4,0.2,3,875,0,0,NaN,0,0,0.4,0,1.36734283486524,NaN,750,0,1,congruent,0,1552.16771346863,2600.33616417577
34,104,1,24,0.5,-0.5,0,1,NaN,0.2,1,744,1,1,744,0,0,0.4,NaN,0.414905612907041,0.414905612907041,750,0,0,neutral,0,3991.33171280913,1093.14421723185
34,104,1,25,0.5,-0.5,0.5,2,3,0.2,2,628,1,1,628,1,0,0.4,NaN,-0.428473911880376,-0.428473911880376,750,0,0,incongruent,1,1438.51952129496,1881.49793272262
34,104,1,26,-0.5,-0.5,0,4,NaN,0.2,1,689,0,1,NaN,0,0,0.8,0,0.0150273899474899,NaN,750,0,1,neutral,0,1300.21324970355,751.879793441179
34,104,1,27,0.5,-0.5,-0.5,2,2,0.2,2,688,1,1,688,0,0,0.8,NaN,0.00775687680277081,0.00775687680277081,750,1,0,congruent,0,1912.83294469996,1449.25652665899
34,104,1,28,0.5,0.5,0.5,4,1,0.2,4,905,1,0,905,0,0,0.4,NaN,1.58545822920682,1.58545822920682,750,0,0,incongruent,0,3265.62660696603,2153.09908695866
34,104,1,29,-0.5,0.5,0.5,2,4,0.2,2,842,1,0,842,0,0,0.4,0,1.12741590108951,1.12741590108951,750,0,0,incongruent,0,1439.45073222538,1837.21102125038
34,104,1,30,0.5,-0.5,-0.5,1,1,0.2,1,554,1,1,554,0,0,0.4,NaN,-0.96649188458959,-0.96649188458959,750,1,0,congruent,0,1613.41687112723,955.160326962794
34,104,1,31,-0.5,-0.5,0.5,2,3,0.2,2,845,1,0,845,0,0,0,0,1.14922744052367,1.14922744052367,750,0,0,incongruent,0,961.849463474327,1058.21877833317
34,104,1,32,-0.5,0.5,0,4,NaN,0.2,3,877,0,0,NaN,0,0,0,0,1.38188386115468,NaN,750,0,1,neutral,0,1341.2545045287,2052.51615153198
34,104,1,33,-0.5,-0.5,-0.5,2,2,0.2,2,734,1,1,734,0,0,0,0,0.34220048145985,0.34220048145985,750,1,0,congruent,0,1785.11470194739,3379.72694951901
34,104,1,34,0.5,0.5,-0.5,4,4,0.2,3,824,0,0,NaN,0,0,0,NaN,0.996546664484569,NaN,750,0,1,congruent,0,2438.23659805408,515.123221185314
34,104,1,36,-0.5,-0.5,0,1,NaN,0.2,1,774,1,0,774,0,0,0.2,0.2,0.633021007248614,0.633021007248614,750,0,0,neutral,0,2809.13062731667,671.367985906844
34,104,1,37,-0.5,0.5,-0.5,3,3,0.2,3,948,1,0,948,0,0,0.2,0,1.89809029442974,1.89809029442974,750,1,0,congruent,0,1237.19568155558,1061.74252323475
34,104,1,38,0.5,0.5,0.5,4,2,0,4,612,1,1,612,1,0,0.2,NaN,-0.544802122195881,-0.544802122195881,750,0,0,incongruent,1,2342.7906941672,711.801566736503
34,104,1,39,0.5,-0.5,0,1,NaN,0.2,1,649,1,1,649,1,0,0.6,NaN,-0.275793135841274,-0.275793135841274,750,0,0,neutral,1,2685.56302023292,1670.97560342204
34,104,1,41,0.5,-0.5,-0.5,3,3,0.2,1,802,0,0,NaN,0,0,0.8,NaN,0.836595375300749,NaN,750,0,1,congruent,0,4840.97596834356,5444.85506697757
34,104,1,42,-0.5,0.5,-0.5,1,1,0.2,1,664,1,1,664,1,0,0.8,0,-0.166735438670488,-0.166735438670488,750,1,0,congruent,0.1,1114.17303805709,680.009178194343
34,104,1,43,0.5,-0.5,0,3,NaN,0.4,3,962,1,0,962,1,0,1,NaN,1.99987747845581,1.99987747845581,750,0,0,neutral,1,2453.5918529767,784.214052450641
34,104,1,45,-0.5,0.5,0.5,3,4,0.4,3,702,1,1,702,1,0,0.8,0.2,0.109544060828838,0.109544060828838,750,0,0,incongruent,0.1,2269.12166594115,1657.81259999749
34,104,1,46,0.5,0.5,-0.5,1,1,0.6,3,792,0,0,NaN,0,0,1,NaN,0.763890243853558,NaN,750,0,1,congruent,0,1252.54172017635,1231.3899218665
34,104,1,47,-0.5,0.5,-0.5,3,3,0.6,3,663,1,1,663,1,0,1,0.4,-0.174005951815207,-0.174005951815207,750,1,0,congruent,0.1,3430.00330658916,545.877299285173
34,104,1,49,0.5,-0.5,0,4,NaN,0.6,4,647,1,1,647,0,0,0.6,NaN,-0.290334162130713,-0.290334162130713,750,0,0,neutral,0,2505.93497233884,3296.68408726864
34,104,1,50,0.5,-0.5,-0.5,3,3,0.6,3,744,1,1,744,1,0,0.4,NaN,0.414905612907041,0.414905612907041,750,1,0,congruent,1,2112.55237803252,2087.56663212691
34,104,1,51,0.5,-0.5,0,2,NaN,0.6,2,757,1,0,757,1,0,0.6,NaN,0.509422283788389,0.509422283788389,750,0,0,neutral,1,1779.3693532705,1407.47454364997
34,104,1,52,-0.5,0.5,0.5,1,3,0.6,1,551,1,1,551,1,0,1,0.6,-0.988303424023747,-0.988303424023747,750,0,0,incongruent,0.1,1988.28736149975,2757.07594444058
34,104,1,53,-0.5,0.5,-0.5,4,4,0.6,4,694,1,1,694,1,0,1,0.8,0.0513799556710854,0.0513799556710854,750,1,0,congruent,0.1,2340.07000376649,2894.26465126333
34,104,1,54,0.5,-0.5,0.5,3,1,0.6,3,792,1,0,792,1,0,1.2,NaN,0.763890243853558,0.763890243853558,750,0,0,incongruent,1,2176.40749283489,1156.0604627628
34,104,1,55,-0.5,0.5,-0.5,2,2,0.6,2,710,1,1,710,1,0,1.6,1,0.167708165986591,0.167708165986591,750,1,0,congruent,0.1,925.300831635033,1634.15710263438
34,104,1,56,-0.5,0.5,-0.5,3,3,0.8,3,830,1,0,830,0,0,1.4,1,1.04016974335288,1.04016974335288,750,1,0,congruent,0,855.140933981479,1018.04950036204
34,104,1,57,0.5,-0.5,0,1,NaN,0.6,1,580,1,1,580,1,0,1,NaN,-0.777458542826893,-0.777458542826893,750,0,0,neutral,1,2084.83112151938,3179.53714800557
34,104,1,58,0.5,0.5,0.5,4,2,0.6,3,838,0,0,NaN,0,0,1.2,NaN,1.09833384851064,NaN,750,0,1,incongruent,0,2430.71620745413,2813.39369104286
34,104,1,59,0.5,-0.5,0.5,1,3,0.6,1,562,1,1,562,0,0,1,NaN,-0.908327779431837,-0.908327779431837,750,0,0,incongruent,0,3901.83793716375,1154.71979267931
34,104,1,60,-0.5,0.5,0.5,3,4,0.6,3,757,1,0,757,0,0,0.6,0.8,0.509422283788389,0.509422283788389,750,0,0,incongruent,0,2050.89909882134,1417.1753366042
34,104,1,61,-0.5,-0.5,0.5,2,3,0.4,1,890,0,0,NaN,1,0,0.4,0.4,1.47640053203603,NaN,750,0,1,incongruent,0.1,1017.9351794208,1565.12249729566
34,104,1,62,-0.5,-0.5,-0.5,4,4,0.4,3,856,0,0,NaN,0,0,0.6,0.6,1.22920308511558,NaN,750,0,1,congruent,0,2822.29080840658,856.697736671035
34,104,1,63,-0.5,0.5,0.5,2,1,0.4,2,822,1,0,822,0,0,0.2,0.6,0.982005638195131,0.982005638195131,750,0,0,incongruent,0,5939.91493440439,449.203685159665
34,104,1,64,-0.5,-0.5,0,1,NaN,0.2,1,583,1,1,583,0,0,0.2,0.6,-0.755647003392735,-0.755647003392735,750,0,0,neutral,0,874.738152485384,3117.17032718489
34,104,1,65,-0.5,0.5,-0.5,4,4,0.2,4,663,1,1,663,1,0,0.2,0.4,-0.174005951815207,-0.174005951815207,750,1,0,congruent,0.1,1757.54883224681,2758.00246122851
34,104,1,66,0.5,0.5,0.5,1,2,0.2,2,906,0,0,NaN,0,0,0.4,NaN,1.59272874235154,NaN,750,1,0,incongruent,0,1174.18219177862,668.455611753795
34,104,1,67,-0.5,-0.5,0.5,2,4,0.2,3,958,0,0,NaN,0,0,0.2,0.4,1.97079542587693,NaN,750,0,1,incongruent,0,2225.68104202341,1748.38964602159
34,104,1,68,0.5,-0.5,-0.5,3,3,0.2,3,789,1,0,789,0,0,0.2,NaN,0.742078704419401,0.742078704419401,750,1,0,congruent,0,2198.11210142535,874.240824623079
34,104,1,70,0.5,0.5,-0.5,1,1,0.2,1,632,1,1,632,1,0,0.2,NaN,-0.399391859301499,-0.399391859301499,750,1,0,congruent,1,712.985602503046,3957.85153672355
34,104,1,71,0.5,0.5,0,4,NaN,0.4,4,699,1,1,699,1,0,0.4,NaN,0.087732521394681,0.087732521394681,750,0,0,neutral,1,2426.41450647761,1961.26104357408
34,104,1,72,0.5,0.5,0.5,1,3,0.6,1,805,1,0,805,0,0,0.8,NaN,0.858406914734906,0.858406914734906,750,0,0,incongruent,0,1018.591047984,603.045206832562
34,104,1,73,0.5,0.5,0,4,NaN,0.4,4,808,1,0,808,0,0,0.8,NaN,0.880218454169064,0.880218454169064,750,0,0,neutral,0,2902.99967842327,390.440614972466
34,104,1,74,0.5,-0.5,-0.5,2,2,0.4,2,812,1,0,812,0,0,0.8,NaN,0.90930050674794,0.90930050674794,750,1,0,congruent,0,1434.14871505422,1118.67745081831
34,104,1,75,0.5,0.5,-0.5,1,1,0.4,1,573,1,1,573,1,0,0.8,NaN,-0.828352134839927,-0.828352134839927,750,1,0,congruent,1,3061.76155617398,3067.93196314797
34,104,1,77,-0.5,0.5,0,2,NaN,0.6,2,778,1,0,778,0,0,0.6,0.4,0.66210305982749,0.66210305982749,750,0,0,neutral,0,1536.12983417861,3045.45644486056
34,104,1,78,-0.5,0.5,0.5,4,1,0.4,1,831,0,0,NaN,0,0,0.6,0.2,1.0474402564976,NaN,750,1,0,incongruent,0,669.936024279302,9930.1500836795
34,104,1,79,-0.5,-0.5,0.5,1,2,0.2,1,887,1,0,887,0,0,0.6,0.4,1.45458899260187,1.45458899260187,750,0,0,incongruent,0,2436.96041170196,2067.488737938
34,104,1,80,-0.5,-0.5,0.5,2,1,0.2,2,897,1,0,897,0,0,0.6,0.2,1.52729412404906,1.52729412404906,750,0,0,incongruent,0,7114.92297905762,2846.7436460491
34,104,1,81,-0.5,-0.5,0.5,1,3,0.2,1,669,1,1,669,0,0,0.2,0.2,-0.130382872946892,-0.130382872946892,750,0,0,incongruent,0,859.859554167166,3518.53494272016
34,104,1,82,-0.5,-0.5,-0.5,2,2,0.2,2,625,1,1,625,0,0,0,0.2,-0.450285451314533,-0.450285451314533,750,1,0,congruent,0,821.358585342355,1632.85131063568
34,104,1,83,0.5,-0.5,0,4,NaN,0.2,4,644,1,1,644,0,0,0,NaN,-0.31214570156487,-0.31214570156487,750,0,0,neutral,0,1354.38123627417,1134.53285410902
34,104,1,84,0.5,-0.5,-0.5,1,1,0.2,1,798,1,0,798,0,0,0,NaN,0.807513322721873,0.807513322721873,750,1,0,congruent,0,2074.89173543455,2021.91650230945
34,104,1,85,-0.5,-0.5,-0.5,3,3,0.2,3,884,1,0,884,0,0,0,0.2,1.43277745316772,1.43277745316772,750,1,0,congruent,0,885.977259940237,2156.85139731898
34,104,1,86,0.5,0.5,0,2,NaN,0.2,2,929,1,0,929,0,0,0,NaN,1.75995054468008,1.75995054468008,750,0,0,neutral,0,1464.5489810092,1246.44958824429
34,104,1,88,-0.5,0.5,0,2,NaN,0.2,2,655,1,1,655,1,0,0,0.2,-0.23217005697296,-0.23217005697296,750,0,0,neutral,0.1,3831.23912195203,1534.49545890628
34,104,1,89,0.5,0.5,-0.5,3,3,0.4,4,918,0,0,NaN,0,0,0.2,NaN,1.67997490008817,NaN,750,0,1,congruent,0,3016.41539349646,2015.55673927018
34,104,1,90,-0.5,-0.5,-0.5,1,1,0.2,1,562,1,1,562,1,0,0.2,0,-0.908327779431837,-0.908327779431837,750,1,0,congruent,0.1,1169.57925329963,599.17334730304
34,104,1,91,0.5,0.5,-0.5,2,2,0.2,2,572,1,1,572,1,0,0.4,NaN,-0.835622647984646,-0.835622647984646,750,1,0,congruent,1,1632.08005093461,1019.21548854662
34,104,1,92,0.5,0.5,0,4,NaN,0.4,4,657,1,1,657,1,0,0.8,NaN,-0.217629030683522,-0.217629030683522,750,0,0,neutral,1,786.711426404049,1247.92917478978
34,104,1,93,0.5,0.5,0.5,2,1,0.6,3,919,0,0,NaN,0,0,1.2,NaN,1.68724541323288,NaN,750,0,1,incongruent,0,1069.12109612762,782.494670751326
34,104,1,95,0.5,-0.5,-0.5,3,3,0.4,2,921,0,0,NaN,0,0,1,NaN,1.70178643952232,NaN,750,0,1,congruent,0,3340.13134072451,2108.56168952946
34,104,1,96,0.5,-0.5,-0.5,2,2,0.4,2,770,1,0,770,1,0,0.8,NaN,0.603938954669738,0.603938954669738,750,1,0,congruent,1,914.678429750417,4870.67953707007
34,104,1,97,0.5,-0.5,-0.5,1,1,0.4,1,741,1,1,741,0,0,0.8,NaN,0.393094073472883,0.393094073472883,750,1,0,congruent,0,2530.0738854769,3247.55649293808
34,104,1,99,0.5,-0.5,0.5,1,2,0.4,1,770,1,0,770,0,0,0.4,NaN,0.603938954669738,0.603938954669738,750,0,0,incongruent,0,719.534109310759,1784.55439997326
34,104,1,101,-0.5,0.5,-0.5,3,3,0.4,2,923,0,0,NaN,0,0,0.4,0.4,1.71632746581176,NaN,750,0,1,congruent,0,1856.11859880055,2650.01627295213
34,104,1,102,-0.5,0.5,0.5,4,2,0.4,4,887,1,0,887,0,0,0,0.2,1.45458899260187,1.45458899260187,750,0,0,incongruent,0,1786.03526296956,837.558882683482
34,104,1,103,0.5,-0.5,0.5,1,4,0.2,1,712,1,1,712,1,0,0,NaN,0.182249192276029,0.182249192276029,750,0,0,incongruent,1,3327.81811846313,4628.89052258974
34,104,1,104,0.5,0.5,0.5,3,2,0.2,3,825,1,0,825,0,0,0.4,NaN,1.00381717762929,1.00381717762929,750,0,0,incongruent,0,818.149504642346,1227.9482371501
34,104,1,105,-0.5,-0.5,0.5,2,3,0,2,845,1,0,845,0,0,0.4,0.2,1.14922744052367,1.14922744052367,750,0,0,incongruent,0,4290.10778622026,2212.20721907499
34,104,1,106,-0.5,0.5,0,4,NaN,0,4,552,1,1,552,1,0,0.4,0.2,-0.981032910879028,-0.981032910879028,750,0,0,neutral,0.1,1273.68696149479,525.262885738618
34,104,1,107,0.5,-0.5,-0.5,1,1,0.2,1,737,1,1,737,0,0,0.6,NaN,0.364012020894007,0.364012020894007,750,1,0,congruent,0,932.737293836161,4061.57814584396
34,104,1,109,0.5,0.5,0.5,1,3,0.2,1,708,1,1,708,1,0,0.2,NaN,0.153167139697153,0.153167139697153,750,0,0,incongruent,1,2054.77703601312,3000.90511291823
34,104,1,111,-0.5,0.5,0,2,NaN,0.4,3,964,0,0,NaN,0,0,0.6,0.2,2.01441850474524,NaN,750,0,1,neutral,0,2635.91403541903,1554.0234458259
34,104,1,112,-0.5,-0.5,-0.5,1,1,0.4,1,757,1,0,757,1,0,0.4,0.2,0.509422283788389,0.509422283788389,750,1,0,congruent,0.1,1103.28060245919,4196.0253724223
34,104,1,113,-0.5,-0.5,0,2,NaN,0.4,2,932,1,0,932,1,0,0.6,0.4,1.78176208411423,1.78176208411423,750,0,0,neutral,0.1,3123.1507385878,1209.37830437871
34,104,1,114,0.5,-0.5,-0.5,4,4,0.4,3,882,0,0,NaN,0,0,0.8,NaN,1.41823642687828,NaN,750,0,1,congruent,0,1090.0479668084,1997.23568265006
34,104,1,115,0.5,-0.5,0,3,NaN,0.4,3,735,1,1,735,1,0,0.4,NaN,0.349470994604569,0.349470994604569,750,0,0,neutral,1,2593.82956957269,1504.26540782466
34,104,1,116,0.5,-0.5,0.5,2,3,0.4,2,871,1,0,871,0,0,0.8,NaN,1.33826078228637,1.33826078228637,750,0,0,incongruent,0,907.431344855102,1104.92284163827
34,104,1,117,0.5,0.5,0,3,NaN,0.4,3,912,1,0,912,0,0,0.8,NaN,1.63635182121985,1.63635182121985,750,0,0,neutral,0,3154.01564556594,2285.52454337087
34,104,1,118,-0.5,-0.5,-0.5,2,2,0.4,2,722,1,1,722,1,0,0.6,0.4,0.25495432372322,0.25495432372322,750,1,0,congruent,0.1,549.07053274186,5670.06197362588
34,104,1,119,0.5,0.5,-0.5,3,3,0.4,3,848,1,0,848,0,0,0.6,NaN,1.17103897995783,1.17103897995783,750,1,0,congruent,0,4956.94972102069,2796.38987541625
34,104,1,120,0.5,-0.5,0,4,NaN,0.2,4,529,1,1,529,0,0,0.6,NaN,-1.14825471320757,-1.14825471320757,750,0,0,neutral,0,629.191793705231,1847.58077550496
34,104,1,121,-0.5,0.5,-0.5,3,3,0.2,3,604,1,1,604,1,0,0.2,0.2,-0.602966227353634,-0.602966227353634,750,1,0,congruent,0.1,1554.771773626,1228.8242697484
34,104,1,123,0.5,0.5,-0.5,4,4,0.2,3,770,0,0,NaN,0,0,0.4,NaN,0.603938954669738,NaN,750,0,1,congruent,0,1238.67609399004,2128.21064952954
34,104,1,124,-0.5,-0.5,0.5,3,1,0.2,3,710,1,1,710,1,0,0.2,0.6,0.167708165986591,0.167708165986591,750,0,0,incongruent,0.1,1629.90870592247,1401.80724073595
34,104,1,125,0.5,0.5,-0.5,4,4,0.2,4,800,1,0,800,0,0,0.4,NaN,0.822054349011311,0.822054349011311,750,1,0,congruent,0,3276.8059997648,1900.85660180434
34,104,1,126,-0.5,-0.5,0.5,2,3,0.2,2,744,1,1,744,0,0,0.4,0.8,0.414905612907041,0.414905612907041,750,0,0,incongruent,0,2463.16276666292,2604.18679314925
34,104,1,127,0.5,0.5,0,4,NaN,0.2,4,641,1,1,641,1,0,0.2,NaN,-0.333957240999027,-0.333957240999027,750,0,0,neutral,1,2881.01828515918,1207.64632566672
34,104,1,128,0.5,0.5,-0.5,3,3,0.4,3,755,1,0,755,0,0,0.6,NaN,0.494881257498951,0.494881257498951,750,1,0,congruent,0,949.776421027487,3587.37187047109
34,104,1,129,-0.5,0.5,0,4,NaN,0.2,4,756,1,0,756,0,0,0.6,0.4,0.50215177064367,0.50215177064367,750,0,0,neutral,0,802.255031626825,1911.11298293056
34,104,1,130,0.5,0.5,-0.5,1,1,0.2,1,647,1,1,647,1,0,0.4,NaN,-0.290334162130713,-0.290334162130713,750,1,0,congruent,1,802.974400631244,4258.27766180074
34,104,1,131,-0.5,-0.5,-0.5,4,4,0.4,4,623,1,1,623,0,0,0.8,0.8,-0.464826477603971,-0.464826477603971,750,1,0,congruent,0,3248.99867914728,389.27282320083
34,104,1,132,-0.5,-0.5,0.5,3,1,0.4,2,750,0,1,NaN,0,0,0.8,0.6,0.458528691775355,NaN,750,0,1,incongruent,0,1827.24183302597,1272.43500780239
34,104,1,133,0.5,0.5,0.5,2,3,0.4,1,973,0,0,NaN,0,0,0.4,NaN,2.07985312304772,NaN,750,0,1,incongruent,0,894.249647619956,1200.37489156366
34,104,1,134,-0.5,0.5,0.5,1,2,0.4,2,987,0,0,NaN,0,0,0.4,0.2,2.18164030707378,NaN,750,1,0,incongruent,0,1372.45050781295,2128.61096054129
34,104,1,135,0.5,0.5,0.5,2,4,0.2,2,657,1,1,657,1,0,0.4,NaN,-0.217629030683522,-0.217629030683522,750,0,0,incongruent,1,610.663909735973,1534.61339919336
34,104,1,136,0.5,-0.5,0.5,4,1,0.4,4,575,1,1,575,0,0,0.4,NaN,-0.813811108550488,-0.813811108550488,750,0,0,incongruent,0,1191.6322653434,633.189418448176
34,104,1,137,0.5,0.5,0,3,NaN,0.4,1,800,0,0,NaN,0,0,0.4,NaN,0.822054349011311,NaN,750,0,1,neutral,0,5180.34665872256,1334.39373202836
34,104,1,138,0.5,-0.5,-0.5,2,2,0.4,2,667,1,1,667,1,0,0.4,NaN,-0.14492389923633,-0.14492389923633,750,1,0,congruent,1,1153.1816250366,807.669864470626
34,104,1,139,-0.5,0.5,0,4,NaN,0.4,4,593,1,1,593,1,0,0.8,0.2,-0.682941871945544,-0.682941871945544,750,0,0,neutral,0.1,399.724514040766,906.963611266443
34,104,1,140,0.5,0.5,-0.5,3,3,0.4,2,679,0,1,NaN,0,0,1,NaN,-0.0576777414997012,NaN,750,0,1,congruent,0,3875.30442234533,1689.26077504461
34,104,1,141,0.5,-0.5,0.5,1,2,0.4,2,696,0,1,NaN,0,0,0.6,NaN,0.0659209819605237,NaN,750,1,0,incongruent,0,1315.35223509509,1802.98727163198
34,104,1,142,-0.5,-0.5,0.5,4,1,0.4,4,696,1,1,696,1,0,0.6,0.4,0.0659209819605237,0.0659209819605237,750,0,0,incongruent,0.1,1008.3379012857,1092.14743514976
34,104,1,143,-0.5,0.5,-0.5,2,2,0.4,3,971,0,0,NaN,0,0,0.8,0.4,2.06531209675828,NaN,750,0,1,congruent,0,1123.86645902476,844.331559859849
34,104,1,144,-0.5,0.5,-0.5,1,1,0.4,1,883,1,0,883,0,0,0.4,0.2,1.425506940023,1.425506940023,750,1,0,congruent,0,1018.98413914665,3006.75534314876
34,104,1,145,0.5,0.5,0.5,3,2,0.2,3,857,1,0,857,0,0,0.2,NaN,1.2364735982603,1.2364735982603,750,0,0,incongruent,0,791.835401566168,3633.47019975876
34,104,1,146,-0.5,0.5,-0.5,4,4,0.2,4,575,1,1,575,1,0,0.2,0.2,-0.813811108550488,-0.813811108550488,750,1,0,congruent,0.1,822.371135504434,1344.52788214394
34,104,1,147,-0.5,-0.5,0,1,NaN,0.2,1,919,1,0,919,1,0,0.4,0.4,1.68724541323288,1.68724541323288,750,0,0,neutral,0.1,1247.75647522349,897.608818076442
34,104,1,148,-0.5,0.5,-0.5,4,4,0.2,4,783,1,0,783,0,0,0.4,0.4,0.698455625551086,0.698455625551086,750,1,0,congruent,0,1453.12452600891,1100.63473962477
34,104,1,149,-0.5,0.5,0.5,2,3,0.2,2,800,1,0,800,0,0,0.4,0.4,0.822054349011311,0.822054349011311,750,0,0,incongruent,0,237.818001004832,3079.55498406319
34,104,1,150,-0.5,-0.5,-0.5,4,4,0.2,4,482,1,1,482,0,0,0.4,0.4,-1.48996883100937,-1.48996883100937,750,1,0,congruent,0,1596.20967834793,469.082737517454
34,104,2,151,-0.5,-0.5,0.5,1,2,0.2,1,872,1,0,872,0,0,0.4,0.4,1.34553129543109,1.34553129543109,750,0,0,incongruent,0,1688.52492671801,1583.1959766089
34,104,2,152,0.5,-0.5,-0.5,3,3,0.2,2,646,0,1,NaN,0,0,0.2,NaN,-0.297604675275432,NaN,750,0,1,congruent,0,7133.85588455957,2652.75345950418
34,104,2,153,0.5,0.5,0,4,NaN,0.2,4,530,1,1,530,1,0,0,NaN,-1.14098420006285,-1.14098420006285,750,0,0,neutral,1,2870.34083658831,1203.00162742373
34,104,2,154,0.5,0.5,0.5,3,4,0.4,3,807,1,0,807,0,0,0.4,NaN,0.872947941024345,0.872947941024345,750,0,0,incongruent,0,967.626858396046,3094.62435943436
34,104,2,155,-0.5,0.5,0,4,NaN,0.4,4,499,1,1,499,1,0,0.4,0.2,-1.36637010754914,-1.36637010754914,750,0,0,neutral,0.1,2072.31370575204,493.339742846432
34,104,2,157,-0.5,0.5,0.5,3,4,0.4,4,619,0,1,NaN,0,0,0.6,0.4,-0.493908530182848,NaN,750,1,0,incongruent,0,1036.83562298739,979.220672090415
34,104,2,158,-0.5,-0.5,-0.5,2,2,0.4,1,906,0,0,NaN,0,0,0.6,0.4,1.59272874235154,NaN,750,0,1,congruent,0,4148.85882007645,587.090226910389
34,104,2,159,0.5,-0.5,0.5,1,4,0.4,1,969,1,0,969,1,0,0.2,NaN,2.05077107046884,2.05077107046884,750,0,0,incongruent,1,1039.53829872629,3520.90982057456
34,104,2,160,-0.5,-0.5,0.5,2,1,0.4,2,949,1,0,949,1,0,0.6,0.2,1.90536080757446,1.90536080757446,750,0,0,incongruent,0.1,1716.3708221098,1906.78981199465
34,104,2,161,0.5,-0.5,0.5,4,3,0.4,4,520,1,1,520,1,0,0.6,NaN,-1.21368933151004,-1.21368933151004,750,0,0,incongruent,1,1115.57807640266,4137.53879164147
34,104,2,164,0.5,-0.5,0,1,NaN,0.2,1,749,1,1,749,1,0,1,NaN,0.451258178630636,0.451258178630636,750,0,0,neutral,1,2184.87223772429,3264.73202175586
34,104,2,165,0.5,-0.5,0.5,3,1,0.2,4,995,0,0,NaN,0,0,1,NaN,2.23980441223154,NaN,750,0,1,incongruent,0,981.349975207696,1309.31613495098
34,104,2,166,0.5,-0.5,0,4,NaN,0.2,4,678,1,1,678,0,0,0.8,NaN,-0.0649482546444203,-0.0649482546444203,750,0,0,neutral,0,1349.20438749508,904.080515091403
34,104,2,167,0.5,0.5,-0.5,1,1,0.2,2,708,0,1,NaN,0,0,0.4,NaN,0.153167139697153,NaN,750,0,1,congruent,0,3120.92647180169,2800.75718280787
34,104,2,168,0.5,0.5,0,3,NaN,0.2,3,767,1,0,767,0,0,0.4,NaN,0.58212741523558,0.58212741523558,750,0,0,neutral,0,1153.4617465919,1491.09706082979
34,104,2,169,0.5,-0.5,-0.5,4,4,0,4,529,1,1,529,0,0,0.4,NaN,-1.14825471320757,-1.14825471320757,750,1,0,congruent,0,840.519636890544,1232.46614227294
34,104,2,170,0.5,0.5,0.5,2,3,0,2,966,1,0,966,0,0,0,NaN,2.02895953103468,2.02895953103468,750,0,0,incongruent,0,6587.81930443522,989.900066346741
34,104,2,171,0.5,0.5,0,1,NaN,0,1,587,1,1,587,1,0,0,NaN,-0.726564950813859,-0.726564950813859,750,0,0,neutral,1,1135.12039972793,1108.55318484635
34,104,2,172,0.5,-0.5,-0.5,2,2,0.2,2,564,1,1,564,0,0,0.4,NaN,-0.893786753142398,-0.893786753142398,750,1,0,congruent,0,444.937793095526,917.718012614049
34,104,2,174,0.5,-0.5,0.5,3,1,0.2,3,831,1,0,831,1,0,0.6,NaN,1.0474402564976,1.0474402564976,750,0,0,incongruent,1,821.962661677375,952.113350121686
34,104,2,175,0.5,-0.5,-0.5,4,4,0.2,4,478,1,1,478,0,0,1,NaN,-1.51905088358824,-1.51905088358824,750,1,0,congruent,0,1715.94690926082,626.275857612027
34,104,2,176,-0.5,-0.5,-0.5,1,1,0.2,1,660,1,1,660,0,0,1,0.4,-0.195817491249364,-0.195817491249364,750,1,0,congruent,0,2799.39966577118,803.379555565234
34,104,2,177,0.5,-0.5,0.5,4,3,0.2,4,793,1,0,793,0,0,0.6,NaN,0.771160756998277,0.771160756998277,750,0,0,incongruent,0,940.059377629444,3861.41117247509
34,104,2,178,-0.5,-0.5,-0.5,1,1,0.2,1,659,1,1,659,0,0,0.6,0.4,-0.203088004394083,-0.203088004394083,750,1,0,congruent,0,645.273047797592,1822.84721468627
34,104,2,179,0.5,-0.5,-0.5,2,2,0.2,2,647,1,1,647,0,0,0.4,NaN,-0.290334162130713,-0.290334162130713,750,1,0,congruent,0,1524.2363642623,786.477566264179
34,104,2,180,-0.5,-0.5,-0.5,3,3,0.2,3,747,1,1,747,0,0,0,0.4,0.436717152341198,0.436717152341198,750,1,0,congruent,0,1283.99356514519,1590.98392732772
34,104,2,181,0.5,0.5,0,1,NaN,0.2,1,794,1,0,794,0,0,0,NaN,0.778431270142996,0.778431270142996,750,0,0,neutral,0,2239.36148795278,425.443389115301
34,104,2,182,0.5,0.5,0.5,2,3,0.2,2,988,1,0,988,0,0,0,NaN,2.1889108202185,2.1889108202185,750,0,0,incongruent,0,1093.76849173298,3533.74770677501
34,104,2,183,-0.5,-0.5,0.5,1,2,0.2,1,723,1,1,723,0,0,0,0.4,0.26222483686794,0.26222483686794,750,0,0,incongruent,0,447.722880077285,1194.90437932884
34,104,2,184,0.5,0.5,0,3,NaN,0.2,3,751,1,0,751,0,0,0,NaN,0.465799204920075,0.465799204920075,750,0,0,neutral,0,664.172538618135,1427.12817629402
34,104,2,185,-0.5,-0.5,-0.5,4,4,0.2,4,567,1,1,567,0,0,0,0.2,-0.871975213708241,-0.871975213708241,750,1,0,congruent,0,2166.5146014224,7375.10450794907
34,104,2,186,-0.5,-0.5,0,1,NaN,0.2,1,637,1,1,637,0,0,0,0,-0.363039293577904,-0.363039293577904,750,0,0,neutral,0,530.930165149314,2295.99888525583
34,104,2,188,-0.5,0.5,0,2,NaN,0.2,2,857,1,0,857,0,0,0,0.4,1.2364735982603,1.2364735982603,750,0,0,neutral,0,403.647043221073,1667.9742676769
34,104,2,189,0.5,0.5,-0.5,1,1,0.2,1,601,1,1,601,1,0,0,NaN,-0.624777766787792,-0.624777766787792,750,1,0,congruent,1,724.574653153837,1771.80462976371
34,104,2,190,0.5,0.5,0.5,3,4,0.2,3,754,1,0,754,0,0,0.4,NaN,0.487610744354232,0.487610744354232,750,0,0,incongruent,0,2289.34046235214,1997.82035005428
34,104,2,191,0.5,0.5,0.5,4,3,0.2,4,822,1,0,822,0,0,0.4,NaN,0.982005638195131,0.982005638195131,750,0,0,incongruent,0,2223.61719969363,4264.22602799379
34,104,2,193,-0.5,0.5,-0.5,3,3,0.2,3,921,1,0,921,0,0,0.4,0.2,1.70178643952232,1.70178643952232,750,1,0,congruent,0,2364.10923816964,787.264405374506
34,104,2,194,-0.5,-0.5,0,1,NaN,0.2,1,723,1,1,723,0,0,0.4,0,0.26222483686794,0.26222483686794,750,0,0,neutral,0,1120.14040832942,2104.20998566196
34,104,2,195,0.5,0.5,-0.5,4,4,0.2,4,529,1,1,529,1,0,0,NaN,-1.14825471320757,-1.14825471320757,750,1,0,congruent,1,5367.28965328379,1209.82902299279
34,104,2,196,0.5,0.5,-0.5,3,3,0.2,3,659,1,1,659,1,0,0.4,NaN,-0.203088004394083,-0.203088004394083,750,1,0,congruent,1,1186.61215251592,2084.89973677165
34,104,2,197,0.5,-0.5,0,1,NaN,0.4,1,621,1,1,621,0,0,0.8,NaN,-0.479367503893409,-0.479367503893409,750,0,0,neutral,0,1276.30038338341,1769.55769081859
34,104,2,198,0.5,-0.5,-0.5,2,2,0.4,2,650,1,1,650,1,0,0.8,NaN,-0.268522622696555,-0.268522622696555,750,1,0,congruent,1,1864.4373577285,1297.30980461728
34,104,2,199,0.5,0.5,-0.5,3,3,0.4,3,879,1,0,879,0,0,1.2,NaN,1.39642488744412,1.39642488744412,750,1,0,congruent,0,3533.28188030182,842.823402860456
34,104,2,200,-0.5,0.5,0,2,NaN,0.4,4,841,0,0,NaN,0,0,1.2,0.2,1.12014538794479,NaN,750,0,1,neutral,0,1778.48667485053,1466.62928399785
34,104,2,201,-0.5,0.5,0.5,1,2,0.4,1,953,1,0,953,0,0,0.8,0,1.93444286015333,1.93444286015333,750,0,0,incongruent,0,1321.53416048032,10879.575716028
34,104,2,202,-0.5,0.5,0.5,4,1,0.4,2,682,0,1,NaN,0,0,0.4,0,-0.0358662020655438,NaN,750,0,1,incongruent,0,6385.22018499673,933.402634608295
34,104,2,203,0.5,0.5,-0.5,2,2,0.2,2,691,1,1,691,1,0,0.4,NaN,0.0295684162369281,0.0295684162369281,750,1,0,congruent,1,758.53932308322,1190.38520486307
34,104,2,204,-0.5,-0.5,0,4,NaN,0.2,4,593,1,1,593,0,0,0.4,0,-0.682941871945544,-0.682941871945544,750,0,0,neutral,0,2688.40812974131,2758.01349985666
34,104,2,205,0.5,-0.5,-0.5,3,3,0.2,3,921,1,0,921,0,0,0.4,NaN,1.70178643952232,1.70178643952232,750,1,0,congruent,0,2511.57589869377,3626.06597019687
34,104,2,206,0.5,0.5,0.5,4,1,0.2,4,866,1,0,866,0,0,0.4,NaN,1.30190821656277,1.30190821656277,750,0,0,incongruent,0,2800.73532052577,3203.77049587715
34,104,2,207,0.5,-0.5,0,3,NaN,0.2,3,787,1,0,787,0,0,0.4,NaN,0.727537678129962,0.727537678129962,750,0,0,neutral,0,1518.75508566671,811.728717807365
34,104,2,208,0.5,-0.5,-0.5,2,2,0.2,2,593,1,1,593,1,0,0.4,NaN,-0.682941871945544,-0.682941871945544,750,1,0,congruent,1,3165.48332689676,726.164634490061
34,104,2,209,0.5,-0.5,-0.5,3,3,0.2,3,620,1,1,620,0,0,0.4,NaN,-0.486638017038128,-0.486638017038128,750,1,0,congruent,0,1352.58343888374,1115.82164669243
34,104,2,210,0.5,-0.5,0,4,NaN,0.2,4,579,1,1,579,0,0,0.4,NaN,-0.784729055971612,-0.784729055971612,750,0,0,neutral,0,3679.92282512472,1156.32346934051
34,104,2,211,-0.5,0.5,0.5,3,1,0.2,3,562,1,1,562,1,0,0.4,0,-0.908327779431837,-0.908327779431837,750,0,0,incongruent,0.1,1583.82485958918,1824.75989118885
34,104,2,212,-0.5,-0.5,0.5,4,2,0.4,4,627,1,1,627,0,0,0.6,0,-0.435744425025095,-0.435744425025095,750,0,0,incongruent,0,534.464346485687,1419.95867875996
34,104,2,213,0.5,-0.5,-0.5,1,1,0.4,1,672,1,1,672,0,0,0.6,NaN,-0.108571333512735,-0.108571333512735,750,1,0,congruent,0,719.450915664528,2572.99697925353
34,104,2,214,0.5,0.5,0.5,2,3,0.4,2,899,1,0,899,0,0,0.2,NaN,1.5418351503385,1.5418351503385,750,0,0,incongruent,0,718.706155480896,1013.6957518481
34,104,2,215,0.5,0.5,-0.5,1,1,0.4,1,856,1,0,856,0,0,0.2,NaN,1.22920308511558,1.22920308511558,750,1,0,congruent,0,497.492152669112,1949.09602313453
34,104,2,216,0.5,0.5,0.5,4,3,0.4,4,662,1,1,662,1,0,0.2,NaN,-0.181276464959926,-0.181276464959926,750,0,0,incongruent,1,6667.43446522144,4245.27554726878
34,104,2,217,0.5,0.5,-0.5,1,1,0.4,1,767,1,0,767,0,0,0.4,NaN,0.58212741523558,0.58212741523558,750,1,0,congruent,0,2059.42822281616,2350.1410930967
34,104,2,218,-0.5,-0.5,-0.5,4,4,0.4,4,603,1,1,603,0,0,0.4,0,-0.610236740498353,-0.610236740498353,750,1,0,congruent,0,415.658271078553,1724.11997458748
34,104,2,219,0.5,0.5,0,1,NaN,0.4,1,678,1,1,678,1,0,0.4,NaN,-0.0649482546444203,-0.0649482546444203,750,0,0,neutral,1,3772.66301715399,3070.12596404951
34,104,2,220,0.5,-0.5,0.5,4,3,0.4,4,621,1,1,621,0,0,0.8,NaN,-0.479367503893409,-0.479367503893409,750,0,0,incongruent,0,2322.03860450967,806.724944144292
34,104,2,221,0.5,0.5,0.5,3,1,0.4,3,699,1,1,699,1,0,0.8,NaN,0.087732521394681,0.087732521394681,750,0,0,incongruent,1,669.138517639393,1941.21577041364
34,104,2,222,-0.5,0.5,0.5,1,3,0.6,1,890,1,0,890,0,0,0.8,0.2,1.47640053203603,1.47640053203603,750,0,0,incongruent,0,2060.96322472844,822.15767827423
34,104,2,223,-0.5,0.5,0.5,3,4,0.6,2,950,0,0,NaN,0,0,0.8,0.2,1.91263132071918,NaN,750,0,1,incongruent,0,841.879763509669,1726.55790069226
34,104,2,224,0.5,0.5,-0.5,2,2,0.4,2,683,1,1,683,1,0,0.8,NaN,-0.0285956889208247,-0.0285956889208247,750,1,0,congruent,1,4644.27266734629,2278.86906083995
34,104,2,225,-0.5,-0.5,0,4,NaN,0.6,4,606,1,1,606,0,0,0.8,0,-0.588425201064196,-0.588425201064196,750,0,0,neutral,0,1475.3220068933,2450.99421863358
34,104,2,226,0.5,-0.5,-0.5,2,2,0.6,2,644,1,1,644,0,0,0.8,NaN,-0.31214570156487,-0.31214570156487,750,1,0,congruent,0,551.175677921323,687.526586250197
34,104,2,227,0.5,-0.5,0.5,4,1,0.6,4,617,1,1,617,0,0,0.4,NaN,-0.508449556472286,-0.508449556472286,750,0,0,incongruent,0,1947.14293627855,3017.77494554927
34,104,2,228,-0.5,-0.5,0.5,2,4,0.6,2,909,1,0,909,1,0,0.4,0,1.61454028178569,1.61454028178569,750,0,0,incongruent,0.1,1701.41732531394,482.243125918824
34,104,2,229,0.5,-0.5,0.5,3,2,0.6,3,907,1,0,907,1,0,0.6,NaN,1.59999925549626,1.59999925549626,750,0,0,incongruent,1,2187.85201102989,417.308950159073
34,104,2,230,-0.5,-0.5,-0.5,4,4,0.6,4,595,1,1,595,1,0,0.6,0.2,-0.668400845656106,-0.668400845656106,750,1,0,congruent,0.1,1156.43355027095,1473.74728771637
34,104,2,231,0.5,-0.5,0,3,NaN,0.6,3,615,1,1,615,0,0,0.8,NaN,-0.522990582761724,-0.522990582761724,750,0,0,neutral,0,5203.34123050261,1445.20352120601
34,104,2,232,-0.5,0.5,0.5,1,3,0.6,1,812,1,0,812,0,0,0.8,0.2,0.90930050674794,0.90930050674794,750,0,0,incongruent,0,1844.02854692732,4044.85780189718
34,104,2,233,-0.5,0.5,0,4,NaN,0.4,4,580,1,1,580,1,0,0.8,0.2,-0.777458542826893,-0.777458542826893,750,0,0,neutral,0.1,1833.5504741863,861.345324524362
34,104,2,234,0.5,-0.5,-0.5,1,1,0.4,1,552,1,1,552,1,0,0.8,NaN,-0.981032910879028,-0.981032910879028,750,1,0,congruent,1,1242.33805895634,2618.22137272228
34,104,2,235,0.5,0.5,-0.5,3,3,0.4,2,660,0,1,NaN,0,0,0.8,NaN,-0.195817491249364,NaN,750,0,1,congruent,0,6839.5308031488,3100.56050531463
34,104,2,236,-0.5,0.5,0.5,4,1,0.4,4,504,1,1,504,1,0,0.6,0.4,-1.33001754182554,-1.33001754182554,750,0,0,incongruent,0.1,1579.4272127005,3413.88614448467
34,104,2,237,-0.5,-0.5,0,3,NaN,0.6,3,879,1,0,879,0,0,0.8,0.4,1.39642488744412,1.39642488744412,750,0,0,neutral,0,3203.06379890918,8364.44946755594
34,104,2,238,-0.5,-0.5,0.5,2,4,0.6,4,949,0,0,NaN,1,0,0.8,0.4,1.90536080757446,NaN,750,1,0,incongruent,0.1,572.769883696824,2153.02137110214
34,104,2,239,-0.5,0.5,0,3,NaN,0.6,3,682,1,1,682,1,0,0.8,0.4,-0.0358662020655438,-0.0358662020655438,750,0,0,neutral,0.1,2307.94341404349,2776.14477545589
34,104,2,240,0.5,-0.5,-0.5,1,1,0.6,1,674,1,1,674,0,0,0.6,NaN,-0.0940303072232967,-0.0940303072232967,750,1,0,congruent,0,4249.72526011367,1856.95343101881
34,104,2,242,-0.5,-0.5,0,2,NaN,0.6,2,817,1,0,817,1,0,0.6,0.8,0.945653072471536,0.945653072471536,750,0,0,neutral,0.1,1288.03214398661,5832.50258973786
34,104,2,244,-0.5,0.5,0.5,1,4,0.8,1,643,1,1,643,1,0,1,0.6,-0.319416214709589,-0.319416214709589,750,0,0,incongruent,0.1,2878.61879293724,2950.73669462139
34,104,2,245,0.5,0.5,-0.5,3,3,0.8,3,717,1,1,717,1,0,1,NaN,0.218601757999625,0.218601757999625,750,1,0,congruent,1,1311.88039943719,1746.33231662952
34,104,2,246,-0.5,-0.5,0.5,1,4,1,2,776,0,0,NaN,1,0,1.4,0.8,0.647562033538052,NaN,750,0,1,incongruent,0.1,3021.28092178431,3830.66582380307
34,104,2,247,0.5,-0.5,0,3,NaN,1,4,930,0,0,NaN,1,0,1.4,NaN,1.76722105782479,NaN,750,0,1,neutral,1,931.7308525041,4272.47717194911
34,104,2,248,-0.5,-0.5,-0.5,4,4,1,4,805,1,0,805,1,0,1.6,0.8,0.858406914734906,0.858406914734906,750,1,0,congruent,0.1,6839.29032942847,2194.50000091576
34,104,2,249,0.5,0.5,-0.5,3,3,1,3,673,1,1,673,1,0,1.4,NaN,-0.101300820368016,-0.101300820368016,750,1,0,congruent,1,2328.42144598612,1905.97418195816
34,104,2,250,-0.5,-0.5,0,1,NaN,1,1,657,1,1,657,1,0,1.6,1,-0.217629030683522,-0.217629030683522,750,0,0,neutral,0.1,1056.93449609983,916.772281516638
34,104,2,251,0.5,0.5,-0.5,3,3,1,3,939,1,0,939,0,0,1.4,NaN,1.83265567612727,1.83265567612727,750,1,0,congruent,0,1932.97763931283,1506.94502147255
34,104,2,252,0.5,0.5,0,1,NaN,0.8,1,691,1,1,691,1,0,1.2,NaN,0.0295684162369281,0.0295684162369281,750,0,0,neutral,1,491.387811667725,2573.41077726019
34,104,2,254,-0.5,-0.5,-0.5,1,1,0.8,1,618,1,1,618,1,0,1.2,1,-0.501179043327567,-0.501179043327567,750,1,0,congruent,0.1,1329.93846897173,2402.36877021279
34,104,2,255,0.5,-0.5,0,2,NaN,0.8,2,794,1,0,794,1,0,1,NaN,0.778431270142996,0.778431270142996,750,0,0,neutral,1,1296.80816785904,839.53490377836
34,104,2,257,0.5,-0.5,-0.5,2,2,0.8,2,550,1,1,550,1,0,1.4,NaN,-0.995573937168466,-0.995573937168466,750,1,0,congruent,1,1939.16848388446,623.311568229067
34,104,2,258,-0.5,-0.5,0,4,NaN,0.8,4,509,1,1,509,1,0,1.4,1,-1.29366497610195,-1.29366497610195,750,0,0,neutral,0.1,2474.53860558397,797.260516865507
34,104,2,259,0.5,-0.5,-0.5,2,2,0.8,2,777,1,0,777,1,0,1.4,NaN,0.654832546682771,0.654832546682771,750,1,0,congruent,1,597.19827481942,1990.34709170938
34,104,2,260,-0.5,-0.5,-0.5,4,4,0.8,4,532,1,1,532,1,0,1.6,1,-1.12644317377341,-1.12644317377341,750,1,0,congruent,0.1,1712.77061924059,1105.38668890282
34,104,2,261,0.5,-0.5,-0.5,2,2,0.8,2,641,1,1,641,1,0,1.4,NaN,-0.333957240999027,-0.333957240999027,750,1,0,congruent,1,367.255814013514,3425.84028403011
34,104,2,262,-0.5,-0.5,0,3,NaN,0.8,3,707,1,1,707,1,0,1.6,1,0.145896626552434,0.145896626552434,750,0,0,neutral,0.1,1435.04796860059,6927.05784914716
34,104,2,263,-0.5,-0.5,-0.5,1,1,0.8,1,581,1,1,581,0,0,1.4,1,-0.770188029682174,-0.770188029682174,750,1,0,congruent,0,3033.74946987186,4193.5075053661
34,104,2,264,-0.5,-0.5,-0.5,2,2,0.8,2,537,1,1,537,1,0,1.2,0.8,-1.09009060804981,-1.09009060804981,750,1,0,congruent,0.1,2774.28372627472,2674.59705758228
34,104,2,265,-0.5,0.5,0.5,3,1,0.8,3,798,1,0,798,0,0,1,1,0.807513322721873,0.807513322721873,750,0,0,incongruent,0,1691.69122962595,1905.24995568269
34,104,2,266,-0.5,-0.5,0.5,1,4,0.6,1,622,1,1,622,1,0,0.8,0.8,-0.47209699074869,-0.47209699074869,750,0,0,incongruent,0.1,1905.04008637834,892.981652803211
34,104,2,267,0.5,-0.5,0.5,4,1,0.6,4,524,1,1,524,1,0,0.6,NaN,-1.18460727893116,-1.18460727893116,750,0,0,incongruent,1,1257.1887877476,1339.63856990062
34,104,2,268,-0.5,-0.5,-0.5,3,3,0.6,3,700,1,1,700,0,0,0.8,0.8,0.0950030345394001,0.0950030345394001,750,1,0,congruent,0,3004.21875032035,3141.59194761084
34,104,2,269,-0.5,0.5,-0.5,4,4,0.6,4,518,1,1,518,1,0,0.8,0.8,-1.22823035779948,-1.22823035779948,750,1,0,congruent,0.1,552.85215009253,1002.19451766245
34,104,2,270,-0.5,0.5,0,2,NaN,0.6,2,727,1,1,727,1,0,0.8,0.8,0.291306889446816,0.291306889446816,750,0,0,neutral,0.1,2833.82492887589,1454.76324506328
34,104,2,271,0.5,-0.5,0.5,3,1,0.8,3,760,1,0,760,0,0,1,NaN,0.531233823222547,0.531233823222547,750,0,0,incongruent,0,1109.24067375827,3164.07519652664
34,104,2,272,-0.5,0.5,-0.5,4,4,0.8,4,577,1,1,577,1,0,0.8,0.8,-0.79927008226105,-0.79927008226105,750,1,0,congruent,0.1,1012.40661632164,2145.50633746251
34,104,2,274,0.5,-0.5,0,4,NaN,0.6,4,482,1,1,482,1,0,0.6,NaN,-1.48996883100937,-1.48996883100937,750,0,0,neutral,1,401.324449143573,884.456273318938
34,104,2,275,-0.5,0.5,-0.5,1,1,0.6,1,728,1,1,728,1,0,0.8,0.8,0.298577402591535,0.298577402591535,750,1,0,congruent,0.1,3370.56046380985,3127.74704613576
34,104,2,276,0.5,0.5,-0.5,3,3,0.8,3,681,1,1,681,1,0,0.8,NaN,-0.0431367152102629,-0.0431367152102629,750,1,0,congruent,1,1780.59499943489,5856.00977563516
34,104,2,277,-0.5,0.5,0,4,NaN,0.8,4,461,1,1,461,1,0,1.2,0.8,-1.64264960704847,-1.64264960704847,750,0,0,neutral,0.1,2066.80933079958,5139.66742808283
34,104,2,278,-0.5,-0.5,0.5,3,1,0.8,3,854,1,0,854,1,0,1.2,0.6,1.21466205882614,1.21466205882614,750,0,0,incongruent,0.1,3163.48948129733,994.947135254992
34,104,2,279,-0.5,-0.5,0.5,4,2,0.8,4,606,1,1,606,1,0,1.4,0.6,-0.588425201064196,-0.588425201064196,750,0,0,incongruent,0.1,362.720224147879,4751.94209742934
34,104,2,281,-0.5,0.5,0.5,4,1,0.6,4,460,1,1,460,1,0,1,1,-1.64992012019319,-1.64992012019319,750,0,0,incongruent,0.1,4169.69754656278,1556.97873555631
34,104,2,282,0.5,0.5,-0.5,2,2,0.8,3,973,0,0,NaN,0,0,0.8,NaN,2.07985312304772,NaN,750,0,1,congruent,0,2098.31841376778,1257.14412636718
34,104,2,284,0.5,-0.5,-0.5,3,3,0.6,3,565,1,1,565,1,0,0.4,NaN,-0.886516239997679,-0.886516239997679,750,1,0,congruent,1,2164.87518688036,1084.9854137739
34,104,2,285,-0.5,-0.5,0.5,4,1,0.6,4,570,1,1,570,0,0,0.6,0.8,-0.850163674274084,-0.850163674274084,750,0,0,incongruent,0,9472.07662643006,1351.5355739311
34,104,2,287,-0.5,-0.5,0.5,4,3,0.6,4,677,1,1,677,0,0,0.8,0.6,-0.0722187677891394,-0.0722187677891394,750,0,0,incongruent,0,2548.43614793695,3943.2266895934
34,104,2,288,-0.5,0.5,-0.5,1,1,0.6,1,663,1,1,663,1,0,0.8,1,-0.174005951815207,-0.174005951815207,750,1,0,congruent,0.1,5138.83773440285,1480.86878992106
34,104,2,289,-0.5,0.5,0,3,NaN,0.6,3,660,1,1,660,1,0,1,1,-0.195817491249364,-0.195817491249364,750,0,0,neutral,0.1,1459.57464029939,1492.26728232453
34,104,2,290,0.5,0.5,0.5,2,1,0.8,1,692,0,1,NaN,0,0,0.8,NaN,0.0368389293816472,NaN,750,1,0,incongruent,0,6530.8374555879,2200.5899254842
34,104,2,291,0.5,0.5,-0.5,3,3,0.6,1,640,0,1,NaN,0,0,0.8,NaN,-0.341227754143746,NaN,750,0,1,congruent,0,2338.38356789769,3254.2032139645
34,104,2,292,-0.5,-0.5,0.5,1,2,0.6,4,638,0,1,NaN,0,0,0.4,0.4,-0.355768780433185,NaN,750,0,1,incongruent,0,1413.6605212579,2176.40457959154
34,104,2,293,0.5,-0.5,0,4,NaN,0.6,4,483,1,1,483,0,0,0.4,NaN,-1.48269831786465,-1.48269831786465,750,0,0,neutral,0,932.720913840022,1505.50002199227
34,104,2,294,0.5,0.5,0.5,3,4,0.6,4,534,0,1,NaN,0,0,0.2,NaN,-1.11190214748397,NaN,750,1,0,incongruent,0,3907.14273549802,3037.67095950531
34,104,2,295,-0.5,-0.5,-0.5,1,1,0.4,1,697,1,1,697,1,0,0,0.4,0.0731914951052428,0.0731914951052428,750,1,0,congruent,0.1,2663.24252670579,2687.70228310249
34,104,2,297,-0.5,-0.5,0,1,NaN,0.4,1,668,1,1,668,0,0,0.2,0.2,-0.137653386091611,-0.137653386091611,750,0,0,neutral,0,591.03952916298,1013.51910151306
34,104,2,298,-0.5,0.5,0.5,2,1,0.4,2,516,1,1,516,1,0,0.2,1,-1.24277138408892,-1.24277138408892,750,0,0,incongruent,0.1,2371.45912097898,1412.54229844958
34,104,2,299,-0.5,-0.5,0.5,3,2,0.4,3,791,1,0,791,1,0,0.4,0.2,0.756619730708839,0.756619730708839,750,0,0,incongruent,0.1,558.880966834183,3171.60721030052
34,104,2,300,0.5,0.5,-0.5,4,4,0.4,4,836,1,0,836,0,0,0.6,NaN,1.0837928222212,1.0837928222212,750,1,0,congruent,0,363.60751360775,1029.90366416393
34,104,3,301,0.5,-0.5,0,3,NaN,0.2,2,887,0,0,NaN,1,0,0.4,NaN,1.45458899260187,NaN,750,0,1,neutral,1,1509.76006223011,3899.82349638798
34,104,3,302,-0.5,0.5,-0.5,2,2,0.2,2,542,1,1,542,1,0,0.8,1,-1.05373804232622,-1.05373804232622,750,1,0,congruent,0.1,1724.40540933935,227.923045247724
34,104,3,303,0.5,-0.5,0,4,NaN,0.4,4,494,1,1,494,1,0,1,NaN,-1.40272267327274,-1.40272267327274,750,0,0,neutral,1,5342.15425780964,1707.97108812235
34,104,3,304,-0.5,-0.5,-0.5,2,2,0.4,2,800,1,0,800,1,0,1.2,0.4,0.822054349011311,0.822054349011311,750,1,0,congruent,0.1,2886.91877841094,1963.0640778335
34,104,3,305,0.5,0.5,0,1,NaN,0.4,1,730,1,1,730,1,0,1.2,NaN,0.313118428880973,0.313118428880973,750,0,0,neutral,1,2608.46681613382,3321.13594604057
34,104,3,306,-0.5,0.5,0.5,4,2,0.6,4,404,1,1,404,1,0,1.6,1,-2.05706885629746,-2.05706885629746,750,0,0,incongruent,0.1,2196.35610514002,2047.36190179894
34,104,3,307,0.5,0.5,0,2,NaN,0.8,2,781,1,0,781,0,0,1.4,NaN,0.683914599261648,0.683914599261648,750,0,0,neutral,0,717.525200948755,1303.05622680614
34,104,3,308,0.5,-0.5,-0.5,3,3,0.6,3,672,1,1,672,0,0,1.2,NaN,-0.108571333512735,-0.108571333512735,750,1,0,congruent,0,1247.65163286346,1399.46404803727
34,104,3,309,-0.5,-0.5,0,2,NaN,0.6,2,701,1,1,701,1,0,0.8,0.6,0.102273547684119,0.102273547684119,750,0,0,neutral,0.1,673.076199162665,2641.23773712197
34,104,3,310,-0.5,-0.5,0.5,1,2,0.6,1,691,1,1,691,1,0,0.8,0.6,0.0295684162369281,0.0295684162369281,750,0,0,incongruent,0.1,1125.08504241454,890.401483396625
34,104,3,312,0.5,-0.5,0.5,1,2,0.6,3,778,0,0,NaN,1,0,0.4,NaN,0.66210305982749,NaN,750,0,1,incongruent,1,3087.87372461177,1049.02005612045
34,104,3,313,0.5,-0.5,0,3,NaN,0.6,3,737,1,1,737,0,0,0.8,NaN,0.364012020894007,0.364012020894007,750,0,0,neutral,0,1852.46699773956,1795.23254986359
34,104,3,314,0.5,0.5,0.5,2,4,0.6,4,883,0,0,NaN,0,0,0.8,NaN,1.425506940023,NaN,750,1,0,incongruent,0,1388.79112779103,4953.28179969122
34,104,3,315,0.5,-0.5,0,3,NaN,0.6,3,795,1,0,795,0,0,0.6,NaN,0.785701783287715,0.785701783287715,750,0,0,neutral,0,5841.13601885231,1188.29699292987
34,104,3,317,-0.5,0.5,0.5,4,3,0.6,4,580,1,1,580,1,0,0.8,1,-0.777458542826893,-0.777458542826893,750,0,0,incongruent,0.1,1570.63957549175,2178.73897198699
34,104,3,318,0.5,0.5,0.5,1,4,0.6,2,725,0,1,NaN,0,0,0.6,NaN,0.276765863157378,NaN,750,0,1,incongruent,0,820.227633803077,5745.87266588358
34,104,3,319,0.5,-0.5,0,4,NaN,0.4,4,509,1,1,509,1,0,0.6,NaN,-1.29366497610195,-1.29366497610195,750,0,0,neutral,1,3831.79549134056,679.681040338158
34,104,3,320,0.5,0.5,0.5,1,2,0.4,2,774,0,0,NaN,0,0,1,NaN,0.633021007248614,NaN,750,1,0,incongruent,0,904.59839509091,1964.59619222509
34,104,3,321,-0.5,0.5,0.5,3,4,0.4,3,704,1,1,704,1,0,1,1,0.124085087118277,0.124085087118277,750,0,0,incongruent,0.1,501.969352927355,892.048321851379
34,104,3,322,-0.5,0.5,0,2,NaN,0.6,1,642,0,1,NaN,0,0,0.8,1,-0.326686727854308,NaN,750,0,1,neutral,0,579.091118399731,2334.60974633781
34,104,3,324,0.5,0.5,0,3,NaN,0.4,3,652,1,1,652,1,0,1,NaN,-0.253981596407117,-0.253981596407117,750,0,0,neutral,1,2614.22114726957,2221.56162826816
34,104,3,325,0.5,0.5,-0.5,1,1,0.6,1,510,1,1,510,1,0,1,NaN,-1.28639446295723,-1.28639446295723,750,1,0,congruent,1,2733.69808777254,1070.35912972662
34,104,3,326,-0.5,0.5,-0.5,4,4,0.8,3,851,0,0,NaN,0,0,1.4,0.8,1.19285051939199,NaN,750,0,1,congruent,0,822.802681065,961.012279463899
34,104,3,327,-0.5,0.5,0.5,1,3,0.6,3,892,0,0,NaN,0,0,1.2,0.6,1.49094155832547,NaN,750,1,0,incongruent,0,1923.94768487381,4068.63712851278
34,104,3,328,0.5,-0.5,-0.5,2,2,0.6,2,495,1,1,495,1,0,1.2,NaN,-1.39545216012802,-1.39545216012802,750,1,0,congruent,1,2064.77376592016,4265.23893943195
34,104,3,329,-0.5,-0.5,-0.5,3,3,0.6,3,878,1,0,878,1,0,1.2,0.8,1.3891543742994,1.3891543742994,750,1,0,congruent,0.1,829.37263293598,3544.24834307535
34,104,3,330,-0.5,0.5,-0.5,2,2,0.6,2,796,1,0,796,0,0,1,0.4,0.792972296432434,0.792972296432434,750,1,0,congruent,0,1197.86708893867,1989.2801815818
34,104,3,331,0.5,-0.5,0.5,4,3,0.4,4,775,1,0,775,0,0,0.6,NaN,0.640291520393333,0.640291520393333,750,0,0,incongruent,0,6370.10309731718,1217.74896593476
34,104,3,332,-0.5,0.5,-0.5,2,2,0.4,2,696,1,1,696,1,0,0.6,0.2,0.0659209819605237,0.0659209819605237,750,1,0,congruent,0.1,2530.75552901969,313.745562732221
34,104,3,333,-0.5,0.5,0,1,NaN,0.4,1,670,1,1,670,1,0,0.8,0.2,-0.123112359802173,-0.123112359802173,750,0,0,neutral,0.1,1590.92253107364,1077.64714734868
34,104,3,335,0.5,-0.5,-0.5,3,3,0.4,3,578,1,1,578,0,0,0.6,NaN,-0.791999569116331,-0.791999569116331,750,1,0,congruent,0,2847.5489850767,1779.40167630748
34,104,3,336,0.5,-0.5,0,1,NaN,0.4,1,545,1,1,545,1,0,0.6,NaN,-1.03192650289206,-1.03192650289206,750,0,0,neutral,1,6894.56029615589,1221.65712623718
34,104,3,337,-0.5,-0.5,-0.5,3,3,0.4,3,805,1,0,805,1,0,1,0.8,0.858406914734906,0.858406914734906,750,1,0,congruent,0.1,849.853166601789,1465.81076440479
34,104,3,338,-0.5,-0.5,0,4,NaN,0.4,4,400,1,1,400,1,0,1,0.8,-2.08615090887633,-2.08615090887633,750,0,0,neutral,0.1,1733.90284605917,884.571331325615
34,104,3,339,-0.5,0.5,-0.5,3,3,0.4,3,631,1,1,631,1,0,1,0.4,-0.406662372446218,-0.406662372446218,750,1,0,congruent,0.1,6553.27229672452,1177.67978929334
34,104,3,340,-0.5,0.5,-0.5,2,2,0.6,2,665,1,1,665,1,0,1,0.6,-0.159464925525769,-0.159464925525769,750,1,0,congruent,0.1,2896.53383606033,1536.27834305562
34,104,3,341,0.5,0.5,-0.5,1,1,0.8,1,626,1,1,626,1,0,1.2,NaN,-0.443014938169814,-0.443014938169814,750,1,0,congruent,1,2740.15969077962,2770.16039636906
34,104,3,342,0.5,-0.5,0.5,2,4,1,2,718,1,1,718,1,0,1.2,NaN,0.225872271144344,0.225872271144344,750,0,0,incongruent,1,623.760647382333,1144.10409699204
34,104,3,343,0.5,-0.5,0,3,NaN,1,3,706,1,1,706,1,0,1.4,NaN,0.138626113407715,0.138626113407715,750,0,0,neutral,1,1082.1919151619,658.91321927518
34,104,3,344,0.5,-0.5,0.5,1,4,1,1,650,1,1,650,1,0,1.6,NaN,-0.268522622696555,-0.268522622696555,750,0,0,incongruent,1,946.785624206653,2172.30978158487
34,104,3,345,0.5,-0.5,0.5,4,1,1,4,485,1,1,485,1,0,1.8,NaN,-1.46815729157521,-1.46815729157521,750,0,0,incongruent,1,4211.39601820327,1667.34270123113
34,104,3,346,-0.5,0.5,0,3,NaN,1,3,648,1,1,648,1,0,2,0.8,-0.283063648985993,-0.283063648985993,750,0,0,neutral,0.1,461.199185872361,913.347747746729
34,104,3,348,0.5,0.5,0,4,NaN,1,4,523,1,1,523,1,0,1.8,NaN,-1.19187779207588,-1.19187779207588,750,0,0,neutral,1,2432.76906814748,526.725225051741
34,104,3,349,-0.5,0.5,0.5,1,4,1,1,543,1,1,543,1,0,1.8,1,-1.0464675291815,-1.0464675291815,750,0,0,incongruent,0.1,2333.91006802888,1347.0532410166
34,104,3,350,0.5,0.5,0,4,NaN,1,4,494,1,1,494,1,0,1.6,NaN,-1.40272267327274,-1.40272267327274,750,0,0,neutral,1,3493.43154828057,513.504088375782
34,104,3,351,-0.5,-0.5,-0.5,3,3,1,2,785,0,0,NaN,1,0,1.6,0.8,0.712996651840524,NaN,750,0,1,congruent,0.1,4508.67223085513,433.721717942888
34,104,3,352,0.5,-0.5,0.5,1,4,1,1,560,1,1,560,1,0,1.6,NaN,-0.922868805721275,-0.922868805721275,750,0,0,incongruent,1,531.475380875603,2739.18843875151
34,104,3,353,-0.5,0.5,-0.5,2,2,1,1,756,0,0,NaN,0,0,1.6,1,0.50215177064367,NaN,750,0,1,congruent,0,1918.52914672047,2060.98893287666
34,104,3,354,0.5,0.5,0,1,NaN,0.8,1,583,1,1,583,1,0,1.2,NaN,-0.755647003392735,-0.755647003392735,750,0,0,neutral,1,1427.59267187476,961.143985763273
34,104,3,355,-0.5,0.5,-0.5,2,2,0.8,2,496,1,1,496,1,0,1.4,0.8,-1.3881816469833,-1.3881816469833,750,1,0,congruent,0.1,480.388907334299,2952.28817832559
34,104,3,356,0.5,-0.5,0.5,3,4,0.8,3,798,1,0,798,1,0,1.2,NaN,0.807513322721873,0.807513322721873,750,0,0,incongruent,1,2919.03325156856,711.821968956604
34,104,3,358,-0.5,0.5,-0.5,1,1,0.6,1,493,1,1,493,1,0,1,0.6,-1.40999318641746,-1.40999318641746,750,1,0,congruent,0.1,1689.35157431597,972.632451669717
34,104,3,359,0.5,0.5,0,4,NaN,0.6,4,518,1,1,518,1,0,1.2,NaN,-1.22823035779948,-1.22823035779948,750,0,0,neutral,1,1865.50132038777,3065.33869967353
34,104,3,360,0.5,0.5,-0.5,3,3,0.8,2,662,0,1,NaN,0,0,1.2,NaN,-0.181276464959926,NaN,750,0,1,congruent,0,1223.99382621883,3848.20608770502
34,104,3,363,0.5,0.5,-0.5,4,4,0.6,4,418,1,1,418,1,0,0.8,NaN,-1.95528167227139,-1.95528167227139,750,1,0,congruent,1,1724.39080664114,1108.48268047333
34,104,3,364,0.5,0.5,0,2,NaN,0.6,2,763,1,0,763,0,0,1,NaN,0.553045362656704,0.553045362656704,750,0,0,neutral,0,2189.38261274267,824.564376168761
34,104,3,365,0.5,-0.5,0.5,3,4,0.6,3,734,1,1,734,1,0,0.6,NaN,0.34220048145985,0.34220048145985,750,0,0,incongruent,1,2916.10644684543,924.529363646738
34,104,3,366,0.5,0.5,0.5,2,1,0.6,1,669,0,1,NaN,0,0,1,NaN,-0.130382872946892,NaN,750,1,0,incongruent,0,444.748628319236,1723.52451619935
34,104,3,367,0.5,0.5,-0.5,4,4,0.4,4,737,1,1,737,1,0,0.8,NaN,0.364012020894007,0.364012020894007,750,1,0,congruent,1,1816.5588203981,588.519862692748
34,104,3,368,0.5,0.5,-0.5,1,1,0.4,1,578,1,1,578,1,0,1.2,NaN,-0.791999569116331,-0.791999569116331,750,1,0,congruent,1,1095.75229516644,1273.04788808172
34,104,3,369,0.5,-0.5,-0.5,3,3,0.6,3,657,1,1,657,0,0,1.2,NaN,-0.217629030683522,-0.217629030683522,750,1,0,congruent,0,443.605569152271,3306.32923375702
34,104,3,370,-0.5,-0.5,0,4,NaN,0.6,4,522,1,1,522,1,0,1.2,0.8,-1.1991483052206,-1.1991483052206,750,0,0,neutral,0.1,1795.17423417147,3211.57551291221
34,104,3,373,0.5,-0.5,-0.5,2,2,0.8,2,602,1,1,602,1,0,1.2,NaN,-0.617507253643072,-0.617507253643072,750,1,0,congruent,1,1241.69074715788,727.208599636595
34,104,3,374,-0.5,0.5,-0.5,3,3,0.8,3,510,1,1,510,1,0,1.2,0.6,-1.28639446295723,-1.28639446295723,750,1,0,congruent,0.1,1690.73344875476,1241.33826540429
34,104,3,375,0.5,0.5,-0.5,2,2,1,2,607,1,1,607,1,0,1.4,NaN,-0.581154687919477,-0.581154687919477,750,1,0,congruent,1,1083.59964128576,1553.60903089583
34,104,3,376,0.5,0.5,0,4,NaN,1,4,592,1,1,592,1,0,1.6,NaN,-0.690212385090264,-0.690212385090264,750,0,0,neutral,1,1494.15676730203,2603.18580606346
34,104,3,377,-0.5,-0.5,-0.5,1,1,1,3,795,0,0,NaN,1,0,1.6,0.8,0.785701783287715,NaN,750,0,1,congruent,0.1,1731.09678981945,1113.32302945517
34,104,3,378,-0.5,-0.5,0.5,3,2,1,2,534,0,1,NaN,1,0,1.6,0.8,-1.11190214748397,NaN,750,1,0,incongruent,0.1,2227.88246884085,479.712291577675
34,104,3,382,0.5,0.5,0.5,3,1,0.6,3,574,1,1,574,1,0,0.8,NaN,-0.821081621695207,-0.821081621695207,750,0,0,incongruent,1,1469.44628500422,2012.02330971893
34,104,3,383,-0.5,0.5,0,4,NaN,0.6,4,415,1,1,415,1,0,1,0.8,-1.97709321170555,-1.97709321170555,750,0,0,neutral,0.1,1157.14923243933,612.302328466856
34,104,3,384,0.5,-0.5,-0.5,3,3,0.6,2,720,0,1,NaN,0,0,1,NaN,0.240413297433782,NaN,750,0,1,congruent,0,1625.59591828011,1787.05755882953
34,104,3,385,0.5,-0.5,-0.5,2,2,0.6,2,589,1,1,589,0,0,0.6,NaN,-0.712023924524421,-0.712023924524421,750,1,0,congruent,0,2401.21508671757,764.512297900529
34,104,3,386,-0.5,0.5,-0.5,4,4,0.6,4,472,1,1,472,1,0,0.6,0.8,-1.56267396245656,-1.56267396245656,750,1,0,congruent,0.1,1779.74976356254,1103.28496219135
34,104,3,387,-0.5,0.5,-0.5,1,1,0.6,2,712,0,1,NaN,0,0,0.8,1,0.182249192276029,NaN,750,0,1,congruent,0,5253.83405829744,2953.6014344663
34,104,3,388,0.5,-0.5,0,2,NaN,0.6,1,534,0,1,NaN,1,0,0.4,NaN,-1.11190214748397,NaN,750,0,1,neutral,1,2179.56971707202,970.763472114738
34,104,3,389,0.5,0.5,-0.5,4,4,0.6,3,777,0,0,NaN,0,0,0.6,NaN,0.654832546682771,NaN,750,0,1,congruent,0,6122.88635453632,4584.99099167736
34,104,3,390,0.5,-0.5,0,1,NaN,0.6,1,655,1,1,655,0,0,0.6,NaN,-0.23217005697296,-0.23217005697296,750,0,0,neutral,0,227.056253014353,3067.15036960049
34,104,3,392,0.5,0.5,0.5,1,2,0.6,3,793,0,0,NaN,0,0,0.8,NaN,0.771160756998277,NaN,750,0,1,incongruent,0,400.594251841644,1097.73289632516
34,104,3,393,-0.5,0.5,-0.5,3,3,0.4,3,840,1,0,840,0,0,0.8,0.8,1.11287487480008,1.11287487480008,750,1,0,congruent,0,1188.0910846259,1193.45546383673
34,104,3,394,0.5,-0.5,0.5,4,1,0.2,4,658,1,1,658,0,0,0.4,NaN,-0.210358517538802,-0.210358517538802,750,0,0,incongruent,0,3727.12240227922,1253.09475333522
34,104,3,395,0.5,-0.5,0.5,3,2,0.2,3,875,1,0,875,0,0,0.4,NaN,1.36734283486524,1.36734283486524,750,0,0,incongruent,0,2110.9375800189,3240.10858722038
34,104,3,396,0.5,0.5,0.5,2,3,0.2,2,865,1,0,865,0,0,0.4,NaN,1.29463770341805,1.29463770341805,750,0,0,incongruent,0,2921.4585953337,2195.88843036643
34,104,3,397,0.5,-0.5,0.5,3,2,0,3,723,1,1,723,0,0,0,NaN,0.26222483686794,0.26222483686794,750,0,0,incongruent,0,2892.82091022308,2970.99804934683
34,104,3,398,0.5,0.5,-0.5,4,4,0,4,689,1,1,689,1,0,0,NaN,0.0150273899474899,0.0150273899474899,750,1,0,congruent,1,2961.2259667953,2197.0501428579
34,104,3,400,0.5,-0.5,0.5,4,2,0.4,4,553,1,1,553,0,0,0.6,NaN,-0.973762397734309,-0.973762397734309,750,0,0,incongruent,0,2108.46868958766,1633.22889819867
34,104,3,403,-0.5,0.5,-0.5,2,2,0.4,3,639,0,1,NaN,0,0,0.6,0.6,-0.348498267288465,NaN,750,0,1,congruent,0,837.879018789748,2013.23912008852
34,104,3,404,0.5,-0.5,0,3,NaN,0.4,3,636,1,1,636,1,0,0.2,NaN,-0.370309806722623,-0.370309806722623,750,0,0,neutral,1,3342.07016869842,2367.00842630605
34,104,3,406,0.5,-0.5,-0.5,3,3,0.4,3,721,1,1,721,1,0,0.6,NaN,0.247683810578501,0.247683810578501,750,1,0,congruent,1,1144.2929026246,2612.63720073326
34,104,3,407,0.5,0.5,0.5,4,2,0.4,4,700,1,1,700,1,0,1,NaN,0.0950030345394001,0.0950030345394001,750,0,0,incongruent,1,2057.00918396549,522.2079226385
34,104,3,408,0.5,0.5,0.5,1,3,0.6,1,662,1,1,662,1,0,1.4,NaN,-0.181276464959926,-0.181276464959926,750,0,0,incongruent,1,1522.33642096252,636.303690388506
34,104,3,409,0.5,0.5,0,2,NaN,0.6,3,832,0,0,NaN,0,0,1.8,NaN,1.05471076964232,NaN,750,0,1,neutral,0,1756.31691411267,1221.01282653139
34,104,3,410,-0.5,0.5,0.5,1,2,0.4,3,651,0,1,NaN,0,0,1.4,0.4,-0.261252109551836,NaN,750,0,1,incongruent,0,788.995891550605,6443.44066879667
34,104,3,411,-0.5,0.5,0,4,NaN,0.4,4,637,1,1,637,1,0,1.2,0.2,-0.363039293577904,-0.363039293577904,750,0,0,neutral,0.1,3265.37713376422,2267.52152774127
34,104,3,413,-0.5,-0.5,0.5,3,1,0.6,3,921,1,0,921,1,0,1,0.8,1.70178643952232,1.70178643952232,750,0,0,incongruent,0.1,2301.99207204948,4745.09372688319
34,104,3,414,0.5,-0.5,-0.5,2,2,0.6,1,722,0,1,NaN,0,0,0.8,NaN,0.25495432372322,NaN,750,0,1,congruent,0,959.435510127202,277.100243363095
34,104,3,415,0.5,0.5,-0.5,1,1,0.6,1,544,1,1,544,1,0,0.8,NaN,-1.03919701603678,-1.03919701603678,750,1,0,congruent,1,1186.89419165077,2375.21300778321
34,104,3,416,-0.5,0.5,0.5,3,4,0.6,3,583,1,1,583,1,0,1.2,0.4,-0.755647003392735,-0.755647003392735,750,0,0,incongruent,0.1,4254.59862665342,1762.68013839488
34,104,3,417,0.5,-0.5,0,2,NaN,0.6,4,626,0,1,NaN,1,0,1.2,NaN,-0.443014938169814,NaN,750,0,1,neutral,1,1982.30585966271,1047.61291058883
34,104,3,419,0.5,0.5,-0.5,2,2,0.6,2,586,1,1,586,1,0,1,NaN,-0.733835463958578,-0.733835463958578,750,1,0,congruent,1,1108.60115334818,1941.00637828502
34,104,3,420,0.5,-0.5,0,1,NaN,0.8,2,653,0,1,NaN,1,0,1.4,NaN,-0.246711083262398,NaN,750,0,1,neutral,1,1290.89893194082,1098.74311336954
34,104,3,421,0.5,0.5,-0.5,4,4,0.8,4,564,1,1,564,1,0,1.4,NaN,-0.893786753142398,-0.893786753142398,750,1,0,congruent,1,746.424769109558,2018.8170119873
34,104,3,422,-0.5,0.5,-0.5,2,2,0.8,3,482,0,1,NaN,0,0,1.6,0.6,-1.48996883100937,NaN,750,0,1,congruent,0,835.023359883604,1449.24405048782
34,104,3,423,-0.5,-0.5,-0.5,3,3,0.6,3,647,1,1,647,1,0,1.2,0.8,-0.290334162130713,-0.290334162130713,750,1,0,congruent,0.1,7248.32884406518,2523.94605662736
34,104,3,424,-0.5,-0.5,0,1,NaN,0.6,1,618,1,1,618,1,0,1.4,0.8,-0.501179043327567,-0.501179043327567,750,0,0,neutral,0.1,1002.09356340745,1508.82088045051
34,104,3,425,-0.5,-0.5,-0.5,4,4,0.6,4,473,1,1,473,1,0,1.2,0.8,-1.55540344931184,-1.55540344931184,750,1,0,congruent,0.1,1044.99018041142,906.189022922931
34,104,3,426,-0.5,-0.5,-0.5,1,1,0.6,1,516,1,1,516,0,0,1,1,-1.24277138408892,-1.24277138408892,750,1,0,congruent,0,2349.19800270732,1986.75424152229
34,104,3,427,-0.5,0.5,-0.5,2,2,0.6,3,634,0,1,NaN,0,0,0.6,0.4,-0.384850833012061,NaN,750,0,1,congruent,0,1083.15638971535,1678.51168442238
34,104,3,428,0.5,0.5,-0.5,3,3,0.4,3,494,1,1,494,1,0,0.6,NaN,-1.40272267327274,-1.40272267327274,750,1,0,congruent,1,1248.49104177222,1273.46974030745
34,104,3,429,-0.5,-0.5,0,4,NaN,0.6,4,504,1,1,504,0,0,0.8,0.8,-1.33001754182554,-1.33001754182554,750,0,0,neutral,0,4189.12802329942,552.435475101591
34,104,3,430,0.5,0.5,-0.5,1,1,0.6,1,718,1,1,718,1,0,0.6,NaN,0.225872271144344,0.225872271144344,750,1,0,congruent,1,765.880254645104,666.878541969972
34,104,3,431,0.5,0.5,-0.5,2,2,0.6,2,662,1,1,662,1,0,0.8,NaN,-0.181276464959926,-0.181276464959926,750,1,0,congruent,1,1702.29029010341,1372.24622301196
34,104,3,432,0.5,0.5,0.5,4,3,0.6,3,581,0,1,NaN,0,0,1.2,NaN,-0.770188029682174,NaN,750,1,0,incongruent,0,1037.8866489441,718.87555262066
34,104,3,433,-0.5,-0.5,0,2,NaN,0.6,2,721,1,1,721,1,0,1.2,0.6,0.247683810578501,0.247683810578501,750,0,0,neutral,0.1,5691.2656760111,1168.91574713635
34,104,3,434,-0.5,-0.5,0.5,4,1,0.6,3,551,0,1,NaN,1,0,1,0.6,-0.988303424023747,NaN,750,0,1,incongruent,0.1,2758.1662303807,1430.00723117735
34,104,3,435,0.5,-0.5,-0.5,2,2,0.6,2,702,1,1,702,1,0,1.2,NaN,0.109544060828838,0.109544060828838,750,1,0,congruent,1,1898.97568875646,1433.68312181525
34,104,3,436,-0.5,-0.5,-0.5,1,1,0.6,1,562,1,1,562,0,0,1.2,0.6,-0.908327779431837,-0.908327779431837,750,1,0,congruent,0,1222.89053729426,1114.31142284058
34,104,3,437,-0.5,-0.5,0,2,NaN,0.6,2,696,1,1,696,1,0,0.8,0.4,0.0659209819605237,0.0659209819605237,750,0,0,neutral,0.1,381.792253069513,1645.15932352609
34,104,3,438,0.5,0.5,-0.5,4,4,0.6,4,626,1,1,626,1,0,1,NaN,-0.443014938169814,-0.443014938169814,750,1,0,congruent,1,843.861184376425,794.155321019484
34,104,3,439,0.5,-0.5,-0.5,2,2,0.8,2,541,1,1,541,0,0,1.2,NaN,-1.06100855547094,-1.06100855547094,750,1,0,congruent,0,466.855083452637,669.709675157132
34,104,3,440,0.5,0.5,0,3,NaN,0.8,3,847,1,0,847,0,0,1,NaN,1.16376846681311,1.16376846681311,750,0,0,neutral,0,893.073211227241,1918.37361170715
34,104,3,441,-0.5,0.5,-0.5,2,2,0.6,2,559,1,1,559,1,0,0.6,0.4,-0.930139318865994,-0.930139318865994,750,1,0,congruent,0.1,2008.01788117612,2555.65246619001
34,104,3,442,0.5,-0.5,0.5,4,1,0.6,4,486,1,1,486,0,0,0.8,NaN,-1.46088677843049,-1.46088677843049,750,0,0,incongruent,0,561.666460693322,702.541172255535
34,104,3,443,-0.5,-0.5,0,3,NaN,0.6,3,671,1,1,671,1,0,0.6,0.6,-0.115841846657454,-0.115841846657454,750,0,0,neutral,0.1,1795.35644279091,1534.91814823976
34,104,3,444,-0.5,0.5,-0.5,1,1,0.6,1,695,1,1,695,1,0,0.4,0.6,0.0586504688158046,0.0586504688158046,750,1,0,congruent,0.1,2117.18213334487,1759.85480786222
34,104,3,445,-0.5,0.5,0.5,2,4,0.6,3,638,0,1,NaN,0,0,0.6,0.6,-0.355768780433185,NaN,750,0,1,incongruent,0,642.690044835476,1378.65955480421
34,104,3,446,-0.5,-0.5,0.5,3,1,0.6,3,864,1,0,864,0,0,0.6,0.8,1.28736719027333,1.28736719027333,750,0,0,incongruent,0,2906.80824172658,1166.15058426524
34,104,3,447,0.5,-0.5,0,4,NaN,0.6,4,362,1,1,362,1,0,0.4,NaN,-2.36243040837566,-2.36243040837566,750,0,0,neutral,1,6168.84238123978,523.698060934302
34,104,3,448,0.5,0.5,0.5,3,1,0.6,3,722,1,1,722,1,0,0.8,NaN,0.25495432372322,0.25495432372322,750,0,0,incongruent,1,1515.97666934575,4353.19129975661
34,104,3,449,0.5,-0.5,0.5,2,3,0.6,2,681,1,1,681,0,0,1,NaN,-0.0431367152102629,-0.0431367152102629,750,0,0,incongruent,0,2897.78023348234,926.396079301879
34,104,3,450,-0.5,0.5,0.5,1,4,0.6,1,696,1,1,696,1,0,0.8,0.4,0.0659209819605237,0.0659209819605237,750,0,0,incongruent,0.1,403.608433220327,1083.95083006437
34,104,4,451,-0.5,-0.5,0,4,NaN,0.8,4,478,1,1,478,0,0,1,0.6,-1.51905088358824,-1.51905088358824,750,0,0,neutral,0,805.540807103519,913.403830857098
34,104,4,452,-0.5,-0.5,0.5,1,3,0.8,1,816,1,0,816,1,0,1,0.4,0.938382559326816,0.938382559326816,750,0,0,incongruent,0.1,1502.46291346287,2255.35994500978
34,104,4,453,0.5,0.5,-0.5,2,2,0.8,2,546,1,1,546,1,0,0.8,NaN,-1.02465598974734,-1.02465598974734,750,1,0,congruent,1,2488.22783536104,1180.97172655862
34,104,4,454,0.5,0.5,0,3,NaN,0.8,3,506,1,1,506,1,0,0.8,NaN,-1.31547651553611,-1.31547651553611,750,0,0,neutral,1,718.088594976571,925.469241805941
34,104,4,455,0.5,0.5,-0.5,4,4,0.8,4,488,1,1,488,1,0,1.2,NaN,-1.44634575214105,-1.44634575214105,750,1,0,congruent,1,3711.99676603109,1664.41435507013
34,104,4,456,-0.5,0.5,0.5,1,3,1,1,778,1,0,778,0,0,1.4,0.6,0.66210305982749,0.66210305982749,750,0,0,incongruent,0,1733.27725700188,3324.68575459759
34,104,4,457,-0.5,0.5,-0.5,4,4,0.8,4,507,1,1,507,1,0,1.4,0.6,-1.30820600239139,-1.30820600239139,750,1,0,congruent,0.1,1286.20055049496,3599.80005437566
34,104,4,459,-0.5,0.5,-0.5,2,2,0.6,2,662,1,1,662,1,0,1,0.4,-0.181276464959926,-0.181276464959926,750,1,0,congruent,0.1,1307.95800213374,928.953902762887
34,104,4,460,-0.5,-0.5,0.5,4,3,0.6,3,788,0,0,NaN,1,0,0.8,0.6,0.734808191274682,NaN,750,1,0,incongruent,0.1,2563.45972016554,5686.71939894044
34,104,4,461,-0.5,-0.5,0.5,1,2,0.6,1,811,1,0,811,1,0,0.6,0.6,0.902029993603221,0.902029993603221,750,0,0,incongruent,0.1,913.287997514237,2692.82144650095
34,104,4,462,-0.5,-0.5,-0.5,4,4,0.6,3,613,0,1,NaN,1,0,0.8,0.6,-0.537531609051162,NaN,750,0,1,congruent,0.1,1982.76576047268,485.513938792472
34,104,4,463,0.5,-0.5,-0.5,1,1,0.6,1,854,1,0,854,0,0,0.8,NaN,1.21466205882614,1.21466205882614,750,1,0,congruent,0,2069.7256555277,345.562623325799
34,104,4,464,-0.5,-0.5,0,2,NaN,0.6,2,714,1,1,714,1,0,0.8,0.8,0.196790218565468,0.196790218565468,750,0,0,neutral,0.1,1121.31391132082,4331.04703815319
34,104,4,465,0.5,-0.5,-0.5,4,4,0.6,4,660,1,1,660,1,0,0.8,NaN,-0.195817491249364,-0.195817491249364,750,1,0,congruent,1,1550.12095832528,2016.4386334075
34,104,4,466,-0.5,0.5,0,3,NaN,0.6,3,714,1,1,714,1,0,1,0.6,0.196790218565468,0.196790218565468,750,0,0,neutral,0.1,1266.45445661158,2428.01769788159
34,104,4,467,-0.5,0.5,-0.5,1,1,0.6,1,591,1,1,591,1,0,1,0.6,-0.697482898234983,-0.697482898234983,750,1,0,congruent,0.1,677.305267942725,2724.00752841155
34,104,4,468,0.5,-0.5,0,4,NaN,0.8,4,415,1,1,415,1,0,1,NaN,-1.97709321170555,-1.97709321170555,750,0,0,neutral,1,1301.64139490502,3388.0505744767
34,104,4,469,0.5,0.5,-0.5,3,3,0.8,3,646,1,1,646,1,0,1.4,NaN,-0.297604675275432,-0.297604675275432,750,1,0,congruent,1,3023.48870579582,3806.46330092025
34,104,4,470,-0.5,0.5,-0.5,4,4,0.8,4,968,1,0,968,0,0,1.6,0.8,2.04350055732412,2.04350055732412,750,1,0,congruent,0,1495.11516605157,3471.5902770595
34,104,4,471,-0.5,-0.5,-0.5,2,2,0.8,3,607,0,1,NaN,1,0,1.2,1,-0.581154687919477,NaN,750,0,1,congruent,0.1,653.30127563213,3337.97223921197
34,104,4,473,-0.5,-0.5,-0.5,3,3,0.8,3,568,1,1,568,1,0,1.2,1,-0.864704700563522,-0.864704700563522,750,1,0,congruent,0.1,6272.64697784533,1926.0021729972
34,104,4,474,-0.5,0.5,0.5,4,2,0.8,4,512,1,1,512,1,0,1,0.8,-1.27185343666779,-1.27185343666779,750,0,0,incongruent,0.1,829.201635474509,867.942748927077
34,104,4,475,0.5,0.5,0.5,2,4,0.8,3,554,0,1,NaN,0,0,0.8,NaN,-0.96649188458959,NaN,750,0,1,incongruent,0,1380.16107566453,1557.03330272795
34,104,4,476,0.5,0.5,-0.5,1,1,0.6,1,565,1,1,565,1,0,0.8,NaN,-0.886516239997679,-0.886516239997679,750,1,0,congruent,1,811.476802954613,1619.86330714213
34,104,4,478,0.5,-0.5,-0.5,1,1,0.6,1,853,1,0,853,1,0,1.2,NaN,1.20739154568142,1.20739154568142,750,1,0,congruent,1,895.087203904977,1495.19467428751
34,104,4,479,0.5,0.5,-0.5,4,4,0.6,4,553,1,1,553,1,0,1.4,NaN,-0.973762397734309,-0.973762397734309,750,1,0,congruent,1,774.615606661462,819.073922637294
34,104,4,480,-0.5,-0.5,0,3,NaN,0.8,3,845,1,0,845,1,0,1.6,1,1.14922744052367,1.14922744052367,750,0,0,neutral,0.1,6331.01817139897,2582.57320667857
34,104,4,481,-0.5,0.5,-0.5,2,2,0.8,1,774,0,0,NaN,0,0,1.8,0.8,0.633021007248614,NaN,750,0,1,congruent,0,1465.17189251897,852.934203481188
34,104,4,484,-0.5,0.5,0.5,3,4,0.6,3,584,1,1,584,1,0,1,0.4,-0.748376490248016,-0.748376490248016,750,0,0,incongruent,0.1,1520.30116391112,1222.35481608067
34,104,4,485,0.5,0.5,0,1,NaN,0.6,1,586,1,1,586,1,0,0.8,NaN,-0.733835463958578,-0.733835463958578,750,0,0,neutral,1,2953.51203913836,2873.78918989997
34,104,4,486,0.5,0.5,0.5,4,3,0.6,4,707,1,1,707,1,0,1,NaN,0.145896626552434,0.145896626552434,750,0,0,incongruent,1,820.395776103868,1991.54285036796
34,104,4,487,-0.5,0.5,0,3,NaN,0.8,3,981,1,0,981,0,0,1.4,0.6,2.13801722820547,2.13801722820547,750,0,0,neutral,0,3276.21432307864,525.245065141783
34,104,4,488,0.5,-0.5,-0.5,4,4,0.8,4,499,1,1,499,1,0,1.4,NaN,-1.36637010754914,-1.36637010754914,750,1,0,congruent,1,1473.85313363266,918.604402500172
34,104,4,489,-0.5,-0.5,0,3,NaN,0.8,3,566,1,1,566,1,0,1.4,1,-0.87924572685296,-0.87924572685296,750,0,0,neutral,0.1,3544.84157931466,4139.95298005827
34,104,4,490,-0.5,-0.5,-0.5,1,1,0.8,1,534,1,1,534,0,0,1.4,1,-1.11190214748397,-1.11190214748397,750,1,0,congruent,0,6841.51172586334,2064.83218981089
34,104,4,491,0.5,0.5,-0.5,2,2,0.8,2,546,1,1,546,1,0,1,NaN,-1.02465598974734,-1.02465598974734,750,1,0,congruent,1,599.979444112674,522.200841949308
34,104,4,492,-0.5,-0.5,0,4,NaN,0.8,4,393,1,1,393,0,0,1,0.8,-2.13704450088937,-2.13704450088937,750,0,0,neutral,0,3170.8172295897,2121.91852023231
34,104,4,493,0.5,-0.5,0.5,2,3,0.8,3,731,0,1,NaN,1,0,1,NaN,0.320388942025692,NaN,750,1,0,incongruent,1,1818.00759849798,1222.5213524503
34,104,4,494,-0.5,0.5,-0.5,1,1,0.8,1,525,1,1,525,1,0,1,0.4,-1.17733676578644,-1.17733676578644,750,1,0,congruent,0.1,1670.01028619262,1962.9608394648
34,104,4,495,-0.5,-0.5,0.5,4,3,0.8,4,485,1,1,485,1,0,1,0.6,-1.46815729157521,-1.46815729157521,750,0,0,incongruent,0.1,802.372261926457,898.766479180955
34,104,4,496,0.5,0.5,0.5,3,1,0.8,3,796,1,0,796,0,0,1.2,NaN,0.792972296432434,0.792972296432434,750,0,0,incongruent,0,2218.93533553299,1036.00769272786
34,104,4,498,0.5,0.5,0.5,2,1,0.6,2,795,1,0,795,0,0,1.2,NaN,0.785701783287715,0.785701783287715,750,0,0,incongruent,0,6090.30655759041,2124.38527973171
34,104,4,500,0.5,-0.5,0.5,2,1,0.4,1,717,0,1,NaN,1,0,0.6,NaN,0.218601757999625,NaN,750,1,0,incongruent,1,3559.43579924006,3192.21081331801
34,104,4,501,0.5,-0.5,-0.5,3,3,0.4,3,965,1,0,965,0,0,0.8,NaN,2.02168901788996,2.02168901788996,750,1,0,congruent,0,1900.99969511278,1702.31071176183
34,104,4,502,-0.5,-0.5,-0.5,4,4,0.4,4,455,1,1,455,1,0,0.8,0.6,-1.68627268591678,-1.68627268591678,750,1,0,congruent,0.1,1959.30129969221,401.453504647631
34,104,4,503,0.5,-0.5,-0.5,3,3,0.4,1,666,0,1,NaN,0,0,0.6,NaN,-0.15219441238105,NaN,750,0,1,congruent,0,218.61878676396,2235.43100280716
34,104,4,505,-0.5,-0.5,0.5,3,1,0.4,2,697,0,1,NaN,0,0,1,0.6,0.0731914951052428,NaN,750,0,1,incongruent,0,4556.34117041827,3016.88969000369
34,104,4,506,0.5,0.5,-0.5,2,2,0.4,3,499,0,1,NaN,0,0,0.6,NaN,-1.36637010754914,NaN,750,0,1,congruent,0,1072.1521030788,1570.58362863122
34,104,4,507,-0.5,0.5,-0.5,4,4,0.2,4,460,1,1,460,1,0,0.6,0.4,-1.64992012019319,-1.64992012019319,750,1,0,congruent,0.1,1948.51317897744,660.133692023462
34,104,4,508,0.5,0.5,0.5,1,3,0.4,3,688,0,1,NaN,0,0,0.6,NaN,0.00775687680277081,NaN,750,1,0,incongruent,0,1932.15653755118,1602.95056028333
34,104,4,509,0.5,-0.5,0,2,NaN,0.4,2,784,1,0,784,1,0,0.6,NaN,0.705726138695805,0.705726138695805,750,0,0,neutral,1,1709.31408803206,1940.59143967274
34,104,4,510,-0.5,-0.5,0.5,1,2,0.4,1,824,1,0,824,1,0,0.6,0.4,0.996546664484569,0.996546664484569,750,0,0,incongruent,0.1,770.316665896787,2609.53161348291
34,104,4,511,-0.5,-0.5,-0.5,4,4,0.4,4,493,1,1,493,0,0,0.8,0.6,-1.40999318641746,-1.40999318641746,750,1,0,congruent,0,855.815555745356,786.914098931721
34,104,4,512,0.5,0.5,0,3,NaN,0.4,3,647,1,1,647,1,0,0.8,NaN,-0.290334162130713,-0.290334162130713,750,0,0,neutral,1,1806.37254025468,1983.30493406031
34,104,4,513,-0.5,-0.5,-0.5,2,2,0.6,2,605,1,1,605,1,0,1,0.6,-0.595695714208915,-0.595695714208915,750,1,0,congruent,0.1,359.133576476557,589.914286183928
34,104,4,514,0.5,-0.5,-0.5,1,1,0.6,1,565,1,1,565,0,0,1.2,NaN,-0.886516239997679,-0.886516239997679,750,1,0,congruent,0,1642.84548199583,2236.18569788965
34,104,4,515,0.5,0.5,0.5,2,4,0.6,2,655,1,1,655,1,0,0.8,NaN,-0.23217005697296,-0.23217005697296,750,0,0,incongruent,1,630.916932856727,2403.13446991384
34,104,4,516,0.5,-0.5,0.5,1,3,0.6,2,523,0,1,NaN,1,0,1,NaN,-1.19187779207588,NaN,750,0,1,incongruent,1,1644.37338452864,5302.00146532549
34,104,4,517,0.5,-0.5,0.5,2,4,0.6,2,925,1,0,925,1,0,1.4,NaN,1.7308684921012,1.7308684921012,750,0,0,incongruent,1,6515.11801970417,1473.33008949105
34,104,4,518,0.5,-0.5,-0.5,1,1,0.6,2,673,0,1,NaN,0,0,1.4,NaN,-0.101300820368016,NaN,750,0,1,congruent,0,925.022644437254,1826.52493658365
34,104,4,519,0.5,-0.5,0,3,NaN,0.6,3,610,1,1,610,0,0,1.2,NaN,-0.55934314848532,-0.55934314848532,750,0,0,neutral,0,606.487112528318,2108.61249157024
34,104,4,521,-0.5,0.5,0,3,NaN,0.6,3,538,1,1,538,1,0,0.8,0.6,-1.0828200949051,-1.0828200949051,750,0,0,neutral,0.1,805.911429118693,2879.23813953859
34,104,4,522,-0.5,0.5,-0.5,4,4,0.6,4,758,1,0,758,0,0,0.6,0.6,0.516692796933108,0.516692796933108,750,1,0,congruent,0,995.246959593627,1495.42510674249
34,104,4,523,-0.5,-0.5,0,1,NaN,0.6,1,607,1,1,607,0,0,0.2,0.6,-0.581154687919477,-0.581154687919477,750,0,0,neutral,0,2873.74886501978,2128.3829649316
34,104,4,524,-0.5,-0.5,-0.5,2,2,0.6,2,760,1,0,760,1,0,0.2,0.4,0.531233823222547,0.531233823222547,750,1,0,congruent,0.1,2057.34162918041,4745.10141799731
34,104,4,525,-0.5,-0.5,0,3,NaN,0.6,3,814,1,0,814,1,0,0.4,0.6,0.923841533037378,0.923841533037378,750,0,0,neutral,0.1,2657.17158890284,793.58435845412
34,104,4,526,-0.5,0.5,0.5,2,1,0.6,2,841,1,0,841,0,0,0.6,0.6,1.12014538794479,1.12014538794479,750,0,0,incongruent,0,2354.83533171955,1886.95108017347
34,104,4,527,0.5,0.5,0.5,3,4,0.4,3,680,1,1,680,1,0,0.4,NaN,-0.050407228354982,-0.050407228354982,750,0,0,incongruent,1,2203.08764261542,3141.96900010603
34,104,4,528,-0.5,0.5,0,4,NaN,0.4,4,494,1,1,494,1,0,0.8,0.4,-1.40272267327274,-1.40272267327274,750,0,0,neutral,0.1,1082.65364382144,761.138947191854
34,104,4,529,0.5,-0.5,-0.5,2,2,0.6,2,563,1,1,563,1,0,1,NaN,-0.901057266287118,-0.901057266287118,750,1,0,congruent,1,2239.02476208902,1914.89260902575
34,104,4,530,-0.5,0.5,-0.5,1,1,0.6,1,440,1,1,440,1,0,1.2,0.6,-1.79533038308757,-1.79533038308757,750,1,0,congruent,0.1,757.259353025581,230.293500827233
34,104,4,531,-0.5,0.5,0,4,NaN,0.6,4,543,1,1,543,1,0,1.2,0.6,-1.0464675291815,-1.0464675291815,750,0,0,neutral,0.1,888.220372574396,467.576361241806
34,104,4,532,0.5,0.5,-0.5,3,3,0.8,3,555,1,1,555,1,0,1.4,NaN,-0.95922137144487,-0.95922137144487,750,1,0,congruent,1,994.389898040044,635.706336377865
34,104,4,533,0.5,-0.5,-0.5,4,4,1,4,571,1,1,571,1,0,1.4,NaN,-0.842893161129365,-0.842893161129365,750,1,0,congruent,1,1381.0121880458,1202.45820608228
34,104,4,535,0.5,0.5,-0.5,2,2,1,2,472,1,1,472,1,0,1.6,NaN,-1.56267396245656,-1.56267396245656,750,1,0,congruent,1,2460.61973529981,1336.62844577403
34,104,4,536,0.5,-0.5,-0.5,4,4,1,4,423,1,1,423,1,0,1.8,NaN,-1.91892910654779,-1.91892910654779,750,1,0,congruent,1,1115.14225417559,911.473167887818
34,104,4,537,-0.5,0.5,0.5,3,1,1,3,784,1,0,784,0,0,2,0.6,0.705726138695805,0.705726138695805,750,0,0,incongruent,0,3857.58662906148,3291.16084576535
34,104,4,538,0.5,0.5,0,4,NaN,0.8,4,561,1,1,561,1,0,1.6,NaN,-0.915598292576556,-0.915598292576556,750,0,0,neutral,1,3126.83692318671,1715.64612798448
34,104,4,539,-0.5,-0.5,0.5,3,2,0.8,3,897,1,0,897,0,0,1.6,0.6,1.52729412404906,1.52729412404906,750,0,0,incongruent,0,1901.39137295351,4045.28503462199
34,104,4,540,0.5,0.5,-0.5,4,4,0.8,4,723,1,1,723,1,0,1.2,NaN,0.26222483686794,0.26222483686794,750,1,0,congruent,1,1418.81275126519,6332.61481719963
34,104,4,542,0.5,-0.5,-0.5,3,3,0.8,3,753,1,0,753,1,0,1.2,NaN,0.480340231209513,0.480340231209513,750,1,0,congruent,1,4807.41928116444,3153.40012162335
34,104,4,543,0.5,0.5,0.5,1,4,0.8,1,846,1,0,846,0,0,1.6,NaN,1.15649795366839,1.15649795366839,750,0,0,incongruent,0,1116.68740275124,3651.98503112302
34,104,4,544,-0.5,-0.5,-0.5,3,3,0.6,3,595,1,1,595,1,0,1.2,0.6,-0.668400845656106,-0.668400845656106,750,1,0,congruent,0.1,1419.92498606643,2232.77276497748
34,104,4,545,-0.5,-0.5,0.5,1,4,0.6,2,694,0,1,NaN,1,0,1.4,0.6,0.0513799556710854,NaN,750,0,1,incongruent,0.1,1791.14249159606,3732.4361744694
34,104,4,546,0.5,0.5,0,2,NaN,0.6,2,920,1,0,920,0,0,1.2,NaN,1.6945159263776,1.6945159263776,750,0,0,neutral,0,2183.47838376745,2195.22937910953
34,104,4,547,0.5,-0.5,0.5,4,1,0.4,4,482,1,1,482,0,0,0.8,NaN,-1.48996883100937,-1.48996883100937,750,0,0,incongruent,0,2175.2780316904,2646.23170220975
34,104,4,548,-0.5,0.5,0.5,1,3,0.4,2,702,0,1,NaN,0,0,0.4,0.6,0.109544060828838,NaN,750,0,1,incongruent,0,3013.99960131702,839.634460878002
34,104,4,549,-0.5,-0.5,-0.5,2,2,0.4,1,758,0,0,NaN,0,0,0.4,0.8,0.516692796933108,NaN,750,0,1,congruent,0,1425.17972777651,4778.94300348603
34,104,4,550,0.5,0.5,0,4,NaN,0.4,4,508,1,1,508,1,0,0.2,NaN,-1.30093548924667,-1.30093548924667,750,0,0,neutral,1,3279.60579492226,1619.6136897489
34,104,4,551,0.5,0.5,-0.5,1,1,0.4,2,661,0,1,NaN,0,0,0.4,NaN,-0.188546978104645,NaN,750,0,1,congruent,0,2861.24130189194,1033.21911688164
34,104,4,552,0.5,-0.5,-0.5,4,4,0.2,4,492,1,1,492,1,0,0.4,NaN,-1.41726369956217,-1.41726369956217,750,1,0,congruent,1,983.140595243059,696.823774055601
34,104,4,553,0.5,-0.5,0,2,NaN,0.2,3,543,0,1,NaN,0,0,0.8,NaN,-1.0464675291815,NaN,750,0,1,neutral,0,1170.77035819782,2570.34099942555
34,104,4,554,0.5,0.5,-0.5,1,1,0.2,2,628,0,1,NaN,0,0,0.8,NaN,-0.428473911880376,NaN,750,0,1,congruent,0,474.890290288203,2863.15065022377
34,104,4,557,-0.5,-0.5,0.5,1,2,0.2,1,587,1,1,587,0,0,0.8,0.6,-0.726564950813859,-0.726564950813859,750,0,0,incongruent,0,518.638405324793,1120.65600684992
34,104,4,558,-0.5,-0.5,0.5,4,1,0.2,4,414,1,1,414,0,0,0.4,0.4,-1.98436372485026,-1.98436372485026,750,0,0,incongruent,0,2609.36672428912,3330.23642323056
34,104,4,559,0.5,-0.5,0.5,2,3,0.2,2,747,1,1,747,0,0,0.4,NaN,0.436717152341198,0.436717152341198,750,0,0,incongruent,0,2157.77479400933,2849.83803255182
34,104,4,560,0.5,-0.5,0,1,NaN,0.2,3,547,0,1,NaN,0,0,0.4,NaN,-1.01738547660262,NaN,750,0,1,neutral,0,1778.21937667908,946.062099644972
34,104,4,561,-0.5,-0.5,-0.5,4,4,0.2,4,523,1,1,523,1,0,0,0.4,-1.19187779207588,-1.19187779207588,750,1,0,congruent,0.1,778.113141202574,453.192446207219
34,104,4,562,-0.5,-0.5,0.5,2,1,0.2,3,620,0,1,NaN,1,0,0.2,0.4,-0.486638017038128,NaN,750,0,1,incongruent,0.1,979.575463633976,355.009752135816
34,104,4,563,-0.5,0.5,0,3,NaN,0.2,3,622,1,1,622,1,0,0.4,0.4,-0.47209699074869,-0.47209699074869,750,0,0,neutral,0.1,3190.6388717092,3705.51176308673
34,104,4,565,0.5,-0.5,0,4,NaN,0.4,4,361,1,1,361,0,0,0.6,NaN,-2.36970092152038,-2.36970092152038,750,0,0,neutral,0,1074.95248045919,1010.75361075015
34,104,4,566,0.5,-0.5,0.5,2,1,0.4,1,639,0,1,NaN,0,0,0.6,NaN,-0.348498267288465,NaN,750,1,0,incongruent,0,1583.90942563083,764.130729144816
34,104,4,567,-0.5,0.5,0,1,NaN,0.4,1,572,1,1,572,1,0,0.4,0.4,-0.835622647984646,-0.835622647984646,750,0,0,neutral,0.1,1823.63490479358,1393.34737128468
34,104,4,568,0.5,-0.5,-0.5,3,3,0.4,3,656,1,1,656,1,0,0.4,NaN,-0.224899543828241,-0.224899543828241,750,1,0,congruent,1,3653.77207056254,2227.22962176543
34,104,4,572,-0.5,0.5,-0.5,1,1,0.4,1,681,1,1,681,1,0,0.8,0.4,-0.0431367152102629,-0.0431367152102629,750,1,0,congruent,0.1,1749.98789201721,1956.56977952059
34,104,4,573,-0.5,0.5,0.5,3,2,0.6,3,660,1,1,660,1,0,0.8,0.6,-0.195817491249364,-0.195817491249364,750,0,0,incongruent,0.1,447.86462752773,3944.40008230106
34,104,4,574,-0.5,0.5,0,1,NaN,0.8,1,688,1,1,688,1,0,0.6,0.8,0.00775687680277081,0.00775687680277081,750,0,0,neutral,0.1,2316.06691789686,2224.72062475773
34,104,4,575,-0.5,0.5,-0.5,2,2,1,2,554,1,1,554,1,0,0.6,1,-0.96649188458959,-0.96649188458959,750,1,0,congruent,0.1,2138.78078834941,555.278703832764
34,104,4,576,0.5,0.5,0.5,1,4,1,1,826,1,0,826,0,0,0.8,NaN,1.01108769077401,1.01108769077401,750,0,0,incongruent,0,1503.79546830015,2402.90104663996
34,104,4,577,0.5,0.5,0,3,NaN,0.8,3,710,1,1,710,1,0,0.8,NaN,0.167708165986591,0.167708165986591,750,0,0,neutral,1,2248.72626649147,1122.85798016298
34,104,4,579,-0.5,-0.5,0,3,NaN,0.8,3,671,1,1,671,1,0,0.8,0.6,-0.115841846657454,-0.115841846657454,750,0,0,neutral,0.1,1651.49414007076,1432.6125701359
34,104,4,581,0.5,0.5,0.5,3,1,0.8,2,691,0,1,NaN,0,0,1,NaN,0.0295684162369281,NaN,750,0,1,incongruent,0,1621.44185788972,1136.68071652789
34,104,4,582,-0.5,0.5,-0.5,2,2,0.6,2,589,1,1,589,1,0,1,1,-0.712023924524421,-0.712023924524421,750,1,0,congruent,0.1,3470.8186765615,6755.06852632541
34,104,4,583,-0.5,0.5,-0.5,4,4,0.6,4,543,1,1,543,1,0,0.8,1,-1.0464675291815,-1.0464675291815,750,1,0,congruent,0.1,4108.34918781263,2666.64173453333
34,104,4,584,0.5,0.5,0,2,NaN,0.6,3,563,0,1,NaN,0,0,1,NaN,-0.901057266287118,NaN,750,0,1,neutral,0,1000.56049138165,767.805606014785
34,104,4,585,-0.5,-0.5,-0.5,1,1,0.6,1,548,1,1,548,0,0,0.8,0.8,-1.0101149634579,-1.0101149634579,750,1,0,congruent,0,1470.02536326788,380.744901379169
34,104,4,586,0.5,0.5,0,4,NaN,0.6,4,465,1,1,465,1,0,0.4,NaN,-1.61356755446959,-1.61356755446959,750,0,0,neutral,1,2936.96986865837,1054.66083435475
34,104,4,587,0.5,-0.5,-0.5,1,1,0.6,3,851,0,0,NaN,1,0,0.8,NaN,1.19285051939199,NaN,750,0,1,congruent,1,2465.34779067795,3425.41174193792
34,104,4,588,-0.5,0.5,0,4,NaN,0.6,4,554,1,1,554,1,0,1,1,-0.96649188458959,-0.96649188458959,750,0,0,neutral,0.1,4633.66579481674,3374.25578530018
34,104,4,589,-0.5,-0.5,-0.5,3,3,0.8,3,410,1,1,410,1,0,1,0.6,-2.01344577742914,-2.01344577742914,750,1,0,congruent,0.1,1365.99835228186,275.556844643289
34,104,4,590,-0.5,0.5,-0.5,1,1,0.8,3,470,0,1,NaN,0,0,1.2,1,-1.57721498874599,NaN,750,0,1,congruent,0,5475.75679489045,1517.00653899405
34,104,4,592,0.5,-0.5,-0.5,4,4,0.6,4,521,1,1,521,1,0,1,NaN,-1.20641881836532,-1.20641881836532,750,1,0,congruent,1,2332.76761920979,1669.00209295517
34,104,4,593,0.5,-0.5,-0.5,3,3,0.6,3,519,1,1,519,0,0,1,NaN,-1.22095984465476,-1.22095984465476,750,1,0,congruent,0,1363.45261653429,697.584941774943
34,104,4,595,-0.5,-0.5,0,3,NaN,0.8,3,552,1,1,552,1,0,1,0.6,-0.981032910879028,-0.981032910879028,750,0,0,neutral,0.1,2501.79634980863,1320.5168948625
34,104,4,596,-0.5,0.5,-0.5,2,2,0.8,2,550,1,1,550,1,0,1.2,0.8,-0.995573937168466,-0.995573937168466,750,1,0,congruent,0.1,1219.16704067647,1112.06265886488
34,104,4,597,-0.5,0.5,-0.5,4,4,0.8,4,488,1,1,488,1,0,1.2,0.8,-1.44634575214105,-1.44634575214105,750,1,0,congruent,0.1,557.081348963341,1497.60796957173
34,104,4,598,0.5,0.5,0,1,NaN,0.8,2,802,0,0,NaN,0,0,1,NaN,0.836595375300749,NaN,750,0,1,neutral,0,1641.49209938488,1256.4020492795
34,104,4,599,0.5,0.5,-0.5,3,3,0.8,3,701,1,1,701,1,0,1,NaN,0.102273547684119,0.102273547684119,750,1,0,congruent,1,2245.81033526696,711.738812366948
34,104,4,600,0.5,-0.5,0.5,4,1,0.8,4,699,1,1,699,0,0,1,NaN,0.087732521394681,0.087732521394681,750,0,0,incongruent,0,2012.4911163109,1062.83455037474
