subid,vers,block,trial,rewlvl,efflvl,congruency,targetresp,distractorresp,rollingefflvl,resp,rt,acc,fast,accrt,isrewarded,ismiss,runavgrrgen,runavgrrcond,zrt,acczrt,rtthreshold,isdisterror,isranderror,congruence,feedback,fcz_resp_theta,fcz_resp_theta_baseline
35,104,1,1,-0.5,-0.5,-0.5,2,2,0,2,527,1,1,527,0,0,0,0,-0.873116967439575,-0.873116967439575,750,1,0,congruent,0,1652.71100851689,2901.92308467172
35,104,1,2,0.5,-0.5,-0.5,3,3,0,3,821,1,0,821,0,0,0,NaN,1.34215659431667,1.34215659431667,750,1,0,congruent,0,3988.81454904613,3504.1431535648
35,104,1,3,0.5,0.5,-0.5,1,1,0,1,637,1,1,637,1,0,0,NaN,-0.044273117802884,-0.044273117802884,750,1,0,congruent,1,7240.49184537119,5819.0661361155
35,104,1,4,-0.5,0.5,-0.5,4,4,0.2,4,499,1,1,499,1,0,0.4,0,-1.08409540189255,-1.08409540189255,750,1,0,congruent,0.1,6193.86802296852,13463.6891548786
35,104,1,5,0.5,-0.5,0.5,2,1,0.4,2,991,1,0,991,0,0,0.6,NaN,2.62309708920974,2.62309708920974,750,0,0,incongruent,0,6849.01264817228,8312.18576261635
35,104,1,6,-0.5,0.5,0.5,4,3,0.4,3,807,0,0,NaN,0,0,0.6,0.2,1.23666737709018,NaN,750,1,0,incongruent,0,3518.73078609479,1757.509023636
35,104,1,7,-0.5,0.5,0,2,NaN,0.4,2,749,1,1,749,1,0,0.6,0.2,0.799640620009019,0.799640620009019,750,0,0,neutral,0.1,3186.92864018852,7040.43015415182
35,104,1,8,0.5,-0.5,-0.5,3,3,0.6,3,644,1,1,644,0,0,0.8,NaN,0.00847149081035997,0.00847149081035997,750,1,0,congruent,0,1909.28866591807,1420.43694671362
35,104,1,9,0.5,0.5,-0.5,4,4,0.6,4,792,1,0,792,0,0,0.4,NaN,1.12364321577609,1.12364321577609,750,1,0,congruent,0,2094.63965923369,1340.2098684692
35,104,1,11,-0.5,-0.5,0,1,NaN,0.6,1,607,1,1,607,1,0,0.2,0,-0.270321440431072,-0.270321440431072,750,0,0,neutral,0.1,10633.2811845909,2721.81967763422
35,104,1,12,-0.5,0.5,-0.5,2,2,0.6,2,558,1,1,558,1,0,0.4,0.4,-0.63953370072378,-0.63953370072378,750,1,0,congruent,0.1,2604.44659416102,5170.48214808333
35,104,1,13,-0.5,-0.5,-0.5,1,1,0.6,1,651,1,1,651,0,0,0.4,0.2,0.0612160994236039,0.0612160994236039,750,1,0,congruent,0,5358.01949964997,3300.03276921072
35,104,1,14,0.5,0.5,0.5,2,3,0.6,4,695,0,1,NaN,0,0,0.4,NaN,0.39275363927828,NaN,750,0,1,incongruent,0,15214.9371317826,3847.38931751803
35,104,1,17,-0.5,-0.5,0,1,NaN,0.4,1,555,1,1,555,1,0,0.6,0.2,-0.662138532986599,-0.662138532986599,750,0,0,neutral,0.1,3216.61152320057,3185.86177282931
35,104,1,18,-0.5,-0.5,0.5,2,3,0.4,3,558,0,1,NaN,0,0,0.6,0.4,-0.63953370072378,NaN,750,1,0,incongruent,0,2478.80150006346,8495.67140743101
35,104,1,19,-0.5,-0.5,0,1,NaN,0.4,1,610,1,1,610,1,0,0.6,0.4,-0.247716608168254,-0.247716608168254,750,0,0,neutral,0.1,3000.3700783463,1211.86405480619
35,104,1,20,0.5,-0.5,-0.5,4,4,0.4,4,721,1,1,721,1,0,0.8,NaN,0.588662185556044,0.588662185556044,750,1,0,congruent,1,4285.93401959276,12630.1570242183
35,104,1,21,-0.5,0.5,-0.5,2,2,0.4,2,579,1,1,579,1,0,1.2,0.6,-0.481299874884048,-0.481299874884048,750,1,0,congruent,0.1,8418.22119470731,3394.91111305119
35,104,1,22,-0.5,-0.5,0.5,3,1,0.4,3,925,1,0,925,0,0,1,0.6,2.12579077942772,2.12579077942772,750,0,0,incongruent,0,4106.31671884007,4007.98109489106
35,104,1,23,-0.5,-0.5,0,1,NaN,0.4,1,567,1,1,567,0,0,0.8,0.4,-0.571719203935324,-0.571719203935324,750,0,0,neutral,0,1207.42021792259,2766.01903860737
35,104,1,24,-0.5,0.5,0.5,3,4,0.4,4,574,0,1,NaN,0,0,0.8,0.6,-0.51897459532208,NaN,750,1,0,incongruent,0,7505.79537771097,2824.80663531702
35,104,1,25,-0.5,0.5,-0.5,1,1,0.4,1,559,1,1,559,1,0,0.6,0.6,-0.631998756636174,-0.631998756636174,750,1,0,congruent,0.1,10149.7938688018,3721.52043531413
35,104,1,26,0.5,-0.5,-0.5,4,4,0.4,4,595,1,1,595,1,0,0.4,NaN,-0.360740769482348,-0.360740769482348,750,1,0,congruent,1,5294.6810090003,4210.09178567705
35,104,1,28,0.5,0.5,-0.5,2,2,0.4,2,555,1,1,555,1,0,0.6,NaN,-0.662138532986599,-0.662138532986599,750,1,0,congruent,1,10603.7668252234,621.17361255796
35,104,1,29,0.5,0.5,0,3,NaN,0.6,3,522,1,1,522,1,0,1,NaN,-0.910791687877606,-0.910791687877606,750,0,0,neutral,1,8697.00308674619,5415.3773767596
35,104,1,30,0.5,-0.5,0.5,2,3,0.6,3,591,0,1,NaN,0,0,1.4,NaN,-0.390880545832773,NaN,750,1,0,incongruent,0,7762.07756888494,6216.82514047173
35,104,1,31,-0.5,0.5,0,4,NaN,0.6,4,822,1,0,822,0,0,1.2,0.6,1.34969153840428,1.34969153840428,750,0,0,neutral,0,11126.3500861105,2443.76520260462
35,104,1,32,0.5,-0.5,-0.5,1,1,0.6,1,485,1,1,485,0,0,0.8,NaN,-1.18958461911904,-1.18958461911904,750,1,0,congruent,0,761.494753303447,4607.71571968923
35,104,1,33,0.5,-0.5,0,2,NaN,0.6,2,507,1,1,507,1,0,0.8,NaN,-1.0238158491917,-1.0238158491917,750,0,0,neutral,1,9865.13940680491,4136.84013033807
35,104,1,34,-0.5,0.5,0.5,4,1,0.6,1,607,0,1,NaN,0,0,0.8,0.4,-0.270321440431072,NaN,750,1,0,incongruent,0,5460.9109813857,1697.23495156968
35,104,1,35,0.5,0.5,0.5,1,2,0.4,2,753,0,0,NaN,0,0,0.4,NaN,0.829780396359444,NaN,750,1,0,incongruent,0,30001.4594627874,12561.7482459361
35,104,1,36,0.5,0.5,-0.5,4,4,0.4,4,868,1,0,868,0,0,0.4,NaN,1.69629896643417,1.69629896643417,750,1,0,congruent,0,13104.2761908974,13046.1354215142
35,104,1,37,-0.5,0.5,-0.5,2,2,0.2,2,658,1,1,658,1,0,0.4,0.4,0.113960708036848,0.113960708036848,750,1,0,congruent,0.1,7262.93255121014,4213.97842291106
35,104,1,38,0.5,0.5,0.5,1,4,0.2,4,723,0,1,NaN,0,0,0.6,NaN,0.603732073731256,NaN,750,1,0,incongruent,0,2353.65969148701,3713.76734354027
35,104,1,39,0.5,-0.5,0.5,2,3,0.2,3,482,0,1,NaN,0,0,0.2,NaN,-1.21218945138186,NaN,750,1,0,incongruent,0,12370.7450766612,4052.0928736868
35,104,1,40,0.5,-0.5,0,1,NaN,0.2,1,517,1,1,517,0,0,0.2,NaN,-0.948466408315638,-0.948466408315638,750,0,0,neutral,0,2340.80105640082,1525.11255623975
35,104,1,41,0.5,-0.5,-0.5,2,2,0.2,2,439,1,1,439,0,0,0.2,NaN,-1.53619204714893,-1.53619204714893,750,1,0,congruent,0,15778.7296592138,1269.67513000838
35,104,1,42,0.5,-0.5,-0.5,4,4,0.2,4,526,1,1,526,0,0,0.2,NaN,-0.880651911527181,-0.880651911527181,750,1,0,congruent,0,8396.70419810407,4129.01625719858
35,104,1,43,-0.5,0.5,0,1,NaN,0.2,1,803,1,0,803,0,0,0,0.4,1.20652760073976,1.20652760073976,750,0,0,neutral,0,5375.58438091768,11222.9035250804
35,104,1,44,0.5,0.5,-0.5,4,4,0.2,4,620,1,1,620,1,0,0,NaN,-0.172367167292191,-0.172367167292191,750,1,0,congruent,1,5106.27093218438,6599.77397039834
35,104,1,45,-0.5,-0.5,0,2,NaN,0.4,2,538,1,1,538,1,0,0.4,0.4,-0.790232582475906,-0.790232582475906,750,0,0,neutral,0.1,3835.53016826256,3618.54476115301
35,104,1,46,0.5,0.5,-0.5,3,3,0.4,4,728,0,1,NaN,0,0,0.6,NaN,0.641406794169287,NaN,750,0,1,congruent,0,10584.7981846588,6941.26936831373
35,104,1,47,0.5,0.5,0.5,2,1,0.4,1,906,0,0,NaN,0,0,0.6,NaN,1.98262684176321,NaN,750,1,0,incongruent,0,3775.77255537481,12395.9366851371
35,104,1,48,-0.5,-0.5,-0.5,3,3,0.2,4,539,0,1,NaN,0,0,0.6,0.4,-0.782697638388299,NaN,750,0,1,congruent,0,4545.21900728464,4934.49052450919
35,104,1,49,-0.5,0.5,-0.5,2,2,0.2,2,626,1,1,626,1,0,0.6,0.4,-0.127157502766553,-0.127157502766553,750,1,0,congruent,0.1,3892.38591770241,4061.40945685254
35,104,1,50,-0.5,0.5,0.5,4,1,0.4,1,625,0,1,NaN,0,0,0.4,0.4,-0.134692446854159,NaN,750,1,0,incongruent,0,2129.37942393382,5684.38270750569
35,104,1,51,0.5,-0.5,0,1,NaN,0.4,1,841,1,0,841,1,0,0.2,NaN,1.4928554760688,1.4928554760688,750,0,0,neutral,1,817.755136232154,7525.46268283722
35,104,1,52,-0.5,0.5,-0.5,4,4,0.4,4,750,1,1,750,0,0,0.6,0.4,0.807175564096626,0.807175564096626,750,1,0,congruent,0,1824.03407196263,1785.31935945641
35,104,1,53,0.5,0.5,0.5,1,2,0.2,1,902,1,0,902,0,0,0.6,NaN,1.95248706541278,1.95248706541278,750,0,0,incongruent,0,5126.59206249637,4483.02462180602
35,104,1,54,-0.5,0.5,-0.5,4,4,0.2,4,834,1,0,834,0,0,0.6,0.4,1.44011086745555,1.44011086745555,750,1,0,congruent,0,3019.37440382288,10063.2994002326
35,104,1,55,0.5,0.5,0.5,2,3,0.2,3,593,0,1,NaN,0,0,0.4,NaN,-0.37581065765756,NaN,750,1,0,incongruent,0,1610.91210594443,2971.87627234961
35,104,1,56,0.5,-0.5,0.5,1,4,0,4,650,0,1,NaN,0,0,0.4,NaN,0.0536811553359976,NaN,750,1,0,incongruent,0,2863.24982778442,2002.58854087634
35,104,1,57,-0.5,0.5,0.5,3,2,0,3,558,1,1,558,1,0,0,0.2,-0.63953370072378,-0.63953370072378,750,0,0,incongruent,0.1,8279.56089505044,4332.16106354921
35,104,1,58,0.5,-0.5,-0.5,4,4,0.2,4,522,1,1,522,0,0,0.2,NaN,-0.910791687877606,-0.910791687877606,750,1,0,congruent,0,6189.7858252053,1963.369705531
35,104,1,59,0.5,0.5,0.5,3,2,0.2,3,672,1,1,672,1,0,0.2,NaN,0.219449925263336,0.219449925263336,750,0,0,incongruent,1,5258.01316283493,4419.31810492129
35,104,1,60,-0.5,-0.5,0,4,NaN,0.4,4,629,1,1,629,0,0,0.6,0.4,-0.104552670503734,-0.104552670503734,750,0,0,neutral,0,3631.87055442312,8776.98037776488
35,104,1,61,0.5,0.5,-0.5,2,2,0.4,2,509,1,1,509,1,0,0.6,NaN,-1.00874596101649,-1.00874596101649,750,1,0,congruent,1,933.143621253741,2590.10934141449
35,104,1,62,-0.5,-0.5,0,1,NaN,0.6,1,525,1,1,525,1,0,1,0.2,-0.888186855614787,-0.888186855614787,750,0,0,neutral,0.1,3665.00925155171,1701.3253765865
35,104,1,63,0.5,0.5,-0.5,4,4,0.6,2,540,0,1,NaN,0,0,1,NaN,-0.775162694300693,NaN,750,0,1,congruent,0,4707.46198241043,3121.10632226746
35,104,1,64,-0.5,0.5,0.5,2,1,0.6,1,600,0,1,NaN,0,0,1,0.4,-0.323066049044316,NaN,750,1,0,incongruent,0,1745.95297442289,10729.3151022894
35,104,1,65,0.5,-0.5,-0.5,4,4,0.6,4,628,1,1,628,1,0,0.6,NaN,-0.112087614591341,-0.112087614591341,750,1,0,congruent,1,24637.0560724384,6721.88711688109
35,104,1,67,-0.5,-0.5,0,4,NaN,0.6,4,653,1,1,653,0,0,1,0.4,0.0762859875988165,0.0762859875988165,750,0,0,neutral,0,7821.35528021419,2651.16810786147
35,104,1,68,-0.5,-0.5,-0.5,2,2,0.6,2,595,1,1,595,1,0,0.8,0.4,-0.360740769482348,-0.360740769482348,750,1,0,congruent,0.1,4703.84483752909,2850.85862722407
35,104,1,69,0.5,0.5,0,4,NaN,0.6,4,614,1,1,614,1,0,1,NaN,-0.217576831817828,-0.217576831817828,750,0,0,neutral,1,2779.39981312705,1677.4309036561
35,104,1,70,-0.5,0.5,0.5,2,4,0.6,2,639,1,1,639,1,0,1.4,0.2,-0.0292032296276714,-0.0292032296276714,750,0,0,incongruent,0.1,20236.6202303579,1457.96183421703
35,104,1,71,0.5,-0.5,0,4,NaN,0.6,4,559,1,1,559,1,0,1.2,NaN,-0.631998756636174,-0.631998756636174,750,0,0,neutral,1,2763.07825292614,2811.6728935627
35,104,1,72,-0.5,-0.5,-0.5,1,1,0.6,2,611,0,1,NaN,0,0,1.2,0.4,-0.240181664080647,NaN,750,0,1,congruent,0,11045.241105051,4798.76477556657
35,104,1,73,-0.5,0.5,0,3,NaN,0.6,3,662,1,1,662,1,0,1.2,0.4,0.144100484387273,0.144100484387273,750,0,0,neutral,0.1,11760.8379068716,9607.89170394425
35,104,1,74,-0.5,-0.5,-0.5,2,2,0.6,2,678,1,1,678,0,0,1.2,0.4,0.264659589788973,0.264659589788973,750,1,0,congruent,0,11107.0529372191,6812.868779265
35,104,1,76,-0.5,-0.5,-0.5,3,3,0.6,4,739,0,1,NaN,1,0,1,0.4,0.724291179132957,NaN,750,0,1,congruent,0.1,2921.86255947937,3210.29093825905
35,104,1,78,0.5,0.5,0,2,NaN,0.6,2,554,1,1,554,1,0,0.8,NaN,-0.669673477074205,-0.669673477074205,750,0,0,neutral,1,2392.70075390913,5139.15264491146
35,104,1,79,-0.5,-0.5,-0.5,1,1,0.8,4,431,0,1,NaN,1,0,1,0.4,-1.59647159984978,NaN,750,0,1,congruent,0.1,3338.80123918949,6299.16399670369
35,104,1,81,0.5,0.5,0.5,4,1,0.8,1,839,0,0,NaN,0,0,0.8,NaN,1.47778558789358,NaN,750,1,0,incongruent,0,3501.23306354651,3294.37862595594
35,104,1,82,-0.5,-0.5,0.5,1,3,0.8,1,377,1,1,377,1,0,0.6,0.4,-2.00335858058052,-2.00335858058052,750,0,0,incongruent,0.1,5359.16464052746,3225.58254506509
35,104,1,83,0.5,0.5,0.5,3,4,0.8,4,563,0,1,NaN,0,0,0.8,NaN,-0.601858980285749,NaN,750,1,0,incongruent,0,5432.47046283298,4744.31263517116
35,104,1,84,-0.5,-0.5,0,1,NaN,0.6,3,550,0,1,NaN,1,0,0.4,0.6,-0.69981325342463,NaN,750,0,1,neutral,0.1,16901.7147693831,1513.80393442483
35,104,1,85,0.5,0.5,-0.5,4,4,0.6,4,571,1,1,571,1,0,0.4,NaN,-0.541579427584898,-0.541579427584898,750,1,0,congruent,1,4717.59762716512,4298.95461150063
35,104,1,86,0.5,0.5,0.5,3,2,0.6,2,499,0,1,NaN,0,0,0.8,NaN,-1.08409540189255,NaN,750,1,0,incongruent,0,8033.38170659572,3323.73745246635
35,104,1,87,0.5,0.5,0,4,NaN,0.4,4,626,1,1,626,1,0,0.8,NaN,-0.127157502766553,-0.127157502766553,750,0,0,neutral,1,5404.84697183318,941.652726822815
35,104,1,88,-0.5,-0.5,0.5,1,3,0.4,4,605,0,1,NaN,1,0,1,0.8,-0.285391328606285,NaN,750,0,1,incongruent,0.1,8022.96077240296,4620.05780397019
35,104,1,92,0.5,-0.5,-0.5,3,3,0.4,2,536,0,1,NaN,1,0,1,NaN,-0.805302470651118,NaN,750,0,1,congruent,1,7652.32109573979,5797.6432598884
35,104,1,93,-0.5,-0.5,0.5,2,1,0.4,4,409,0,1,NaN,0,0,1,0.8,-1.76224036977712,NaN,750,0,1,incongruent,0,749.194364637678,3548.02762597351
35,104,1,94,-0.5,0.5,0,3,NaN,0.4,3,713,1,1,713,1,0,0.8,0.6,0.528382632855193,0.528382632855193,750,0,0,neutral,0.1,2051.65814046255,3847.58555656132
35,104,1,95,-0.5,-0.5,0.5,1,2,0.6,2,601,0,1,NaN,1,0,1,0.8,-0.31553110495671,NaN,750,1,0,incongruent,0.1,6395.33010696461,4113.79012217348
35,104,1,96,-0.5,0.5,0,2,NaN,0.6,2,624,1,1,624,1,0,0.8,0.8,-0.142227390941766,-0.142227390941766,750,0,0,neutral,0.1,5119.68164582102,4316.72453213056
35,104,1,98,-0.5,0.5,0.5,2,3,0.6,3,672,0,1,NaN,0,0,0.6,0.8,0.219449925263336,NaN,750,1,0,incongruent,0,8997.86117994273,4843.74557837366
35,104,1,99,0.5,-0.5,-0.5,1,1,0.6,4,620,0,1,NaN,1,0,0.6,NaN,-0.172367167292191,NaN,750,0,1,congruent,1,982.094232485287,4583.20865248522
35,104,1,100,0.5,-0.5,0.5,2,3,0.6,4,634,0,1,NaN,1,0,0.8,NaN,-0.0668779500657028,NaN,750,0,1,incongruent,1,1323.10289277089,3778.48891203799
35,104,1,101,-0.5,-0.5,-0.5,1,1,0.6,3,701,0,1,NaN,1,0,1,0.6,0.437963303803918,NaN,750,0,1,congruent,0.1,2034.06672182584,1058.46927157645
35,104,1,102,-0.5,0.5,0.5,2,4,0.6,3,699,0,1,NaN,0,0,1,0.8,0.422893415628705,NaN,750,0,1,incongruent,0,8309.55020131156,1121.67200057723
35,104,1,103,0.5,-0.5,0,3,NaN,0.4,4,572,0,1,NaN,0,0,1,NaN,-0.534044483497292,NaN,750,0,1,neutral,0,11082.0064789881,2540.04016957708
35,104,1,104,-0.5,-0.5,-0.5,4,4,0.4,2,587,0,1,NaN,0,0,1,0.6,-0.421020322183198,NaN,750,0,1,congruent,0,5857.20337771344,3316.3585981573
35,104,1,105,-0.5,0.5,-0.5,3,3,0.4,3,992,1,0,992,0,0,0.6,0.6,2.63063203329735,2.63063203329735,750,1,0,congruent,0,5803.6640462606,3970.94348272646
35,104,1,106,-0.5,0.5,0.5,2,1,0.4,1,684,0,1,NaN,0,0,0.2,0.4,0.309869254314611,NaN,750,1,0,incongruent,0,3451.70866334232,11136.479981408
35,104,1,107,0.5,-0.5,0.5,4,3,0.2,3,745,0,1,NaN,1,0,0,NaN,0.769500843658594,NaN,750,1,0,incongruent,1,13256.9095263759,3471.2533425273
35,104,1,108,0.5,-0.5,-0.5,2,2,0.2,2,823,1,0,823,0,0,0.4,NaN,1.35722648249188,1.35722648249188,750,1,0,congruent,0,9600.84763718483,5403.99195256383
35,104,1,109,0.5,0.5,0,3,NaN,0.2,3,858,1,0,858,0,0,0.4,NaN,1.6209495255581,1.6209495255581,750,0,0,neutral,0,6437.55122924202,12573.8368024289
35,104,1,110,-0.5,0.5,0.5,1,2,0,2,673,0,1,NaN,0,0,0.4,0.2,0.226984869350942,NaN,750,1,0,incongruent,0,4098.80740549858,4815.45286244622
35,104,1,112,0.5,0.5,-0.5,1,1,0,2,635,0,1,NaN,0,0,0.4,NaN,-0.0593430059780965,NaN,750,0,1,congruent,0,6564.84785415708,2843.0644838396
35,104,1,114,-0.5,-0.5,0,1,NaN,0,1,677,1,1,677,0,0,0,0.4,0.257124645701367,0.257124645701367,750,0,0,neutral,0,3440.61301987066,5390.83090657427
35,104,1,115,-0.5,0.5,0.5,3,2,0,2,515,0,1,NaN,0,0,0,0,-0.96353629649085,NaN,750,1,0,incongruent,0,1049.0952246324,2115.68947126039
35,104,1,116,0.5,0.5,0,1,NaN,0,1,551,1,1,551,1,0,0,NaN,-0.692278309337024,-0.692278309337024,750,0,0,neutral,1,6454.25157548382,3023.76587574783
35,104,1,117,0.5,-0.5,-0.5,2,2,0.2,2,590,1,1,590,1,0,0.4,NaN,-0.398415489920379,-0.398415489920379,750,1,0,congruent,1,13094.9573571254,1397.99542364946
35,104,1,118,0.5,0.5,-0.5,4,4,0.2,4,567,1,1,567,1,0,0.8,NaN,-0.571719203935324,-0.571719203935324,750,1,0,congruent,1,8123.53928654257,4142.94941840296
35,104,1,121,-0.5,-0.5,0,2,NaN,0.4,2,551,1,1,551,0,0,1.4,0.4,-0.692278309337024,-0.692278309337024,750,0,0,neutral,0,5968.42528621353,6579.36405093232
35,104,1,122,-0.5,-0.5,0.5,1,3,0.4,4,589,0,1,NaN,0,0,1,0.2,-0.405950434007985,NaN,750,0,1,incongruent,0,14624.9630973379,5215.14717848477
35,104,1,123,0.5,-0.5,-0.5,2,2,0.4,2,879,1,0,879,1,0,0.6,NaN,1.77918335139784,1.77918335139784,750,1,0,congruent,1,16699.8474986187,2324.80926739757
35,104,1,124,-0.5,-0.5,0,3,NaN,0.4,3,697,1,1,697,0,0,0.6,0.2,0.407823527453493,0.407823527453493,750,0,0,neutral,0,6934.98360642472,2564.68476390389
35,104,1,125,0.5,0.5,0.5,4,2,0.4,2,632,0,1,NaN,0,0,0.6,NaN,-0.0819478382409154,NaN,750,1,0,incongruent,0,6804.94771985948,1586.5795602988
35,104,1,126,-0.5,0.5,0.5,2,4,0.4,4,814,0,0,NaN,0,0,0.4,0,1.28941198570343,NaN,750,1,0,incongruent,0,6277.28391784912,9303.56759700352
35,104,1,128,0.5,0.5,0.5,2,4,0.4,3,708,0,1,NaN,0,0,0.4,NaN,0.490707912417162,NaN,750,0,1,incongruent,0,2108.26437926816,5531.31328837383
35,104,1,129,0.5,0.5,0,3,NaN,0.4,3,805,1,0,805,0,0,0,NaN,1.22159748891497,1.22159748891497,750,0,0,neutral,0,3319.17765046471,8261.96087767468
35,104,1,130,-0.5,-0.5,0.5,4,3,0.2,3,646,0,1,NaN,0,0,0,0.2,0.0235413789855725,NaN,750,1,0,incongruent,0,6262.12916768285,2040.29803954033
35,104,1,131,0.5,0.5,0,2,NaN,0.2,2,418,1,1,418,1,0,0,NaN,-1.69442587298866,-1.69442587298866,750,0,0,neutral,1,5010.17235629479,3219.00367177821
35,104,1,132,0.5,0.5,0.5,3,1,0.2,1,997,0,0,NaN,0,0,0.4,NaN,2.66830675373538,NaN,750,1,0,incongruent,0,4593.56096806042,3477.22355653704
35,104,1,133,-0.5,0.5,-0.5,4,4,0.2,3,701,0,1,NaN,0,0,0.4,0,0.437963303803918,NaN,750,0,1,congruent,0,2710.72238381973,3097.28120932588
35,104,1,134,-0.5,-0.5,0,2,NaN,0.2,2,399,1,1,399,0,0,0.4,0,-1.83758981065318,-1.83758981065318,750,0,0,neutral,0,10169.8187342495,10606.0723370973
35,104,1,135,0.5,-0.5,-0.5,4,4,0.2,4,719,1,1,719,0,0,0.4,NaN,0.573592297380831,0.573592297380831,750,1,0,congruent,0,4333.01213816678,5897.87129569465
35,104,1,137,-0.5,-0.5,-0.5,3,3,0.2,4,839,0,0,NaN,0,0,0,0,1.47778558789358,NaN,750,0,1,congruent,0,12067.005279667,11203.8250654074
35,104,1,138,0.5,0.5,0.5,4,2,0.2,1,592,0,1,NaN,0,0,0,NaN,-0.383345601745167,NaN,750,0,1,incongruent,0,8130.15343851885,6755.54900623615
35,104,1,139,0.5,0.5,-0.5,3,3,0.2,3,590,1,1,590,1,0,0,NaN,-0.398415489920379,-0.398415489920379,750,1,0,congruent,1,8665.04967088235,1174.79167525328
35,104,1,141,0.5,0.5,0.5,3,2,0.2,3,528,1,1,528,1,0,0.4,NaN,-0.865582023351969,-0.865582023351969,750,0,0,incongruent,1,4429.72619318795,1789.54930041562
35,104,1,142,0.5,0.5,-0.5,4,4,0.4,4,533,1,1,533,1,0,0.8,NaN,-0.827907302913937,-0.827907302913937,750,1,0,congruent,1,6246.45050715157,7958.81860232443
35,104,1,143,0.5,0.5,0,3,NaN,0.6,3,705,1,1,705,1,0,1.2,NaN,0.468103080154343,0.468103080154343,750,0,0,neutral,1,3726.9416691507,5127.43591140717
35,104,1,144,0.5,-0.5,0.5,2,1,0.8,1,352,0,1,NaN,1,0,1.6,NaN,-2.19173218277067,NaN,750,1,0,incongruent,1,8810.6489051821,1266.92252240363
35,104,1,145,0.5,0.5,-0.5,4,4,0.8,3,450,0,1,NaN,0,0,1.6,NaN,-1.45330766218526,NaN,750,0,1,congruent,0,7974.26688012576,4973.21378519574
35,104,1,146,-0.5,0.5,-0.5,2,2,0.8,1,682,0,1,NaN,0,0,1.6,0,0.294799366139399,NaN,750,0,1,congruent,0,6456.81708379747,12650.8734013432
35,104,1,147,0.5,-0.5,0,1,NaN,0.6,3,702,0,1,NaN,1,0,1.2,NaN,0.445498247891524,NaN,750,0,1,neutral,1,6478.06410299078,3614.70153536876
35,104,1,148,0.5,0.5,0.5,4,2,0.6,2,513,0,1,NaN,0,0,1.2,NaN,-0.978606184666063,NaN,750,1,0,incongruent,0,7388.21156794165,2192.69020891289
35,104,1,149,0.5,0.5,0.5,2,3,0.4,3,718,0,1,NaN,0,0,0.8,NaN,0.566057353293225,NaN,750,1,0,incongruent,0,8437.42680227936,2314.8649427945
35,104,1,150,0.5,0.5,-0.5,4,4,0.2,4,648,1,1,648,1,0,0.4,NaN,0.0386112671607851,0.0386112671607851,750,1,0,congruent,1,3957.64758235357,6426.16532346298
35,104,2,151,0.5,0.5,0.5,3,2,0.2,2,757,0,0,NaN,0,0,0.8,NaN,0.85992017270987,NaN,750,1,0,incongruent,0,954.910904438676,3161.20138819193
35,104,2,152,-0.5,0.5,0,1,NaN,0.2,1,787,1,0,787,0,0,0.8,0,1.08596849533806,1.08596849533806,750,0,0,neutral,0,7593.25013060231,6012.96135409654
35,104,2,153,-0.5,0.5,-0.5,2,2,0.2,2,582,1,1,582,1,0,0.4,0,-0.458695042621229,-0.458695042621229,750,1,0,congruent,0.1,2573.72710741503,9250.77545479917
35,104,2,154,-0.5,0.5,0.5,1,4,0.4,1,585,1,1,585,1,0,0.6,0.2,-0.436090210358411,-0.436090210358411,750,0,0,incongruent,0.1,7969.44422169829,4570.36823911974
35,104,2,156,-0.5,-0.5,-0.5,4,4,0.6,4,468,1,1,468,1,0,0.8,0,-1.31767866860835,-1.31767866860835,750,1,0,congruent,0.1,8994.68900914477,2280.64602022109
35,104,2,157,-0.5,0.5,-0.5,1,1,0.6,4,533,0,1,NaN,0,0,1,0.4,-0.827907302913937,NaN,750,0,1,congruent,0,43842.3140574084,4850.13901519419
35,104,2,158,0.5,0.5,-0.5,4,4,0.6,4,648,1,1,648,1,0,1,NaN,0.0386112671607851,0.0386112671607851,750,1,0,congruent,1,23509.6713179329,13844.8100657294
35,104,2,159,-0.5,0.5,0.5,1,3,0.8,3,813,0,0,NaN,0,0,1.2,0.4,1.28187704161582,NaN,750,1,0,incongruent,0,8394.73838936466,4655.70592967607
35,104,2,160,-0.5,0.5,0,4,NaN,0.6,4,492,1,1,492,1,0,1,0.4,-1.13684001050579,-1.13684001050579,750,0,0,neutral,0.1,12618.278285965,733.656000180258
35,104,2,161,0.5,-0.5,-0.5,2,2,0.6,2,584,1,1,584,1,0,0.8,NaN,-0.443625154446017,-0.443625154446017,750,1,0,congruent,1,5965.09328240089,1308.74446399133
35,104,2,162,-0.5,0.5,0,4,NaN,0.6,4,618,1,1,618,1,0,1,0.6,-0.187437055467403,-0.187437055467403,750,0,0,neutral,0.1,1830.55568638671,5947.56161762116
35,104,2,164,0.5,-0.5,0.5,2,3,0.6,3,542,0,1,NaN,1,0,1,NaN,-0.760092806125481,NaN,750,1,0,incongruent,1,1230.6274559322,7068.42434356572
35,104,2,165,-0.5,-0.5,0.5,1,2,0.6,4,307,0,1,NaN,0,0,1.4,0.4,-2.53080466671296,NaN,750,0,1,incongruent,0,6828.44654138452,2775.77049187864
35,104,2,166,0.5,-0.5,0,2,NaN,0.6,2,585,1,1,585,0,0,1.2,NaN,-0.436090210358411,-0.436090210358411,750,0,0,neutral,0,13059.165648737,3754.99759424528
35,104,2,169,0.5,-0.5,0,2,NaN,0.6,2,778,1,0,778,1,0,1.2,NaN,1.0181539985496,1.0181539985496,750,0,0,neutral,1,1416.10515552863,1326.3835262229
35,104,2,170,0.5,0.5,-0.5,4,4,0.6,3,710,0,1,NaN,0,0,1.2,NaN,0.505777800592374,NaN,750,0,1,congruent,0,8745.79648183118,4766.66485684057
35,104,2,172,0.5,-0.5,0.5,3,4,0.6,4,905,0,0,NaN,1,0,1.6,NaN,1.9750918976756,NaN,750,1,0,incongruent,1,3983.83174488845,4455.55460017084
35,104,2,174,-0.5,-0.5,0,2,NaN,0.6,2,673,1,1,673,1,0,1.2,0.4,0.226984869350942,0.226984869350942,750,0,0,neutral,0.1,2694.92431032947,7125.99296836324
35,104,2,177,-0.5,0.5,0,3,NaN,0.4,3,900,1,0,900,0,0,0.6,0.4,1.93741717723757,1.93741717723757,750,0,0,neutral,0,3310.8202725425,6073.4717483538
35,104,2,178,-0.5,-0.5,0.5,2,1,0.2,2,534,1,1,534,0,0,0.2,0.6,-0.820372358826331,-0.820372358826331,750,0,0,incongruent,0,2965.47510639712,4988.07256573607
35,104,2,180,-0.5,-0.5,0,4,NaN,0.2,4,705,1,1,705,0,0,0,0.4,0.468103080154343,0.468103080154343,750,0,0,neutral,0,1924.22944358405,3770.59362213343
35,104,2,181,0.5,-0.5,-0.5,3,3,0.2,3,677,1,1,677,0,0,0,NaN,0.257124645701367,0.257124645701367,750,1,0,congruent,0,5411.34398637391,3018.05293214469
35,104,2,182,0.5,0.5,0.5,2,1,0.2,2,593,1,1,593,1,0,0,NaN,-0.37581065765756,-0.37581065765756,750,0,0,incongruent,1,3249.74558207593,691.145932632479
35,104,2,183,0.5,-0.5,-0.5,3,3,0.4,4,585,0,1,NaN,0,0,0.4,NaN,-0.436090210358411,NaN,750,0,1,congruent,0,3425.42944453726,1924.64133954391
35,104,2,184,0.5,-0.5,0.5,4,1,0.4,2,669,0,1,NaN,1,0,0.4,NaN,0.196845093000517,NaN,750,0,1,incongruent,1,6176.70436017107,771.871062484854
35,104,2,187,-0.5,0.5,0.5,3,1,0.2,4,689,0,1,NaN,0,0,1.2,0.4,0.347543974752643,NaN,750,0,1,incongruent,0,5495.72760950821,1848.53616938293
35,104,2,188,-0.5,0.5,0.5,1,4,0.2,4,539,0,1,NaN,0,0,0.8,0.2,-0.782697638388299,NaN,750,1,0,incongruent,0,2972.21311200371,1961.30449732796
35,104,2,189,-0.5,-0.5,0.5,4,1,0.2,1,536,0,1,NaN,0,0,0.8,0.2,-0.805302470651118,NaN,750,1,0,incongruent,0,919.375899083997,2799.08283817728
35,104,2,190,0.5,-0.5,-0.5,2,2,0.2,2,429,1,1,429,0,0,0.4,NaN,-1.61154148802499,-1.61154148802499,750,1,0,congruent,0,4271.31645614046,4309.74708392657
35,104,2,192,-0.5,0.5,0,1,NaN,0.4,2,549,0,1,NaN,0,0,0.2,0.2,-0.707348197512237,NaN,750,0,1,neutral,0,2463.7906171142,1800.31301484079
35,104,2,193,0.5,-0.5,-0.5,3,3,0.2,4,700,0,1,NaN,0,0,0.2,NaN,0.430428359716312,NaN,750,0,1,congruent,0,5650.76923087673,4167.8352478448
35,104,2,194,0.5,0.5,0.5,2,4,0.2,4,670,0,1,NaN,0,0,0.2,NaN,0.204380037088123,NaN,750,1,0,incongruent,0,16577.6973581028,8453.08224339617
35,104,2,195,0.5,0.5,-0.5,1,1,0.2,1,585,1,1,585,1,0,0.2,NaN,-0.436090210358411,-0.436090210358411,750,1,0,congruent,1,3857.69312439062,4630.01088962301
35,104,2,197,0.5,0.5,0.5,2,3,0.4,3,820,0,0,NaN,0,0,0.4,NaN,1.33462165022907,NaN,750,1,0,incongruent,0,9011.02716537591,1458.35148766684
35,104,2,198,0.5,-0.5,-0.5,4,4,0.2,4,547,1,1,547,0,0,0.4,NaN,-0.722418085687449,-0.722418085687449,750,1,0,congruent,0,2613.07024417118,3713.29095807713
35,104,2,199,-0.5,-0.5,0.5,2,3,0.2,2,716,1,1,716,1,0,0.4,0.2,0.550987465118012,0.550987465118012,750,0,0,incongruent,0.1,2696.37513195145,1478.18379234361
35,104,2,200,0.5,-0.5,-0.5,1,1,0.2,1,659,1,1,659,0,0,0.6,NaN,0.121495652124454,0.121495652124454,750,1,0,congruent,0,6818.73500613363,5227.97492376846
35,104,2,203,-0.5,-0.5,0.5,3,4,0.2,3,789,1,0,789,0,0,0.2,0.2,1.10103838351327,1.10103838351327,750,0,0,incongruent,0,3282.83404069768,13040.6240226795
35,104,2,204,0.5,-0.5,-0.5,1,1,0.2,1,668,1,1,668,0,0,0.2,NaN,0.189310148912911,0.189310148912911,750,1,0,congruent,0,4237.80244644206,9733.58428683763
35,104,2,205,-0.5,0.5,-0.5,2,2,0.2,2,340,1,1,340,1,0,0,0.2,-2.28215151182195,-2.28215151182195,750,1,0,congruent,0.1,3142.72435483976,6427.91060544382
35,104,2,206,-0.5,-0.5,-0.5,1,1,0.4,1,553,1,1,553,1,0,0.2,0.2,-0.677208421161811,-0.677208421161811,750,1,0,congruent,0.1,1790.72062209525,3991.72152480315
35,104,2,209,0.5,-0.5,0.5,3,1,0.4,3,912,1,0,912,1,0,0.6,NaN,2.02783650628884,2.02783650628884,750,0,0,incongruent,1,4631.12297912724,2535.43648932892
35,104,2,210,-0.5,0.5,-0.5,4,4,0.4,1,797,0,0,NaN,0,0,1,0.4,1.16131793621412,NaN,750,0,1,congruent,0,5486.98633292539,4845.46874161163
35,104,2,211,-0.5,0.5,0.5,1,3,0.2,1,946,1,0,946,0,0,0.8,0.4,2.28402460526746,2.28402460526746,750,0,0,incongruent,0,4308.31963164737,4058.62874453512
35,104,2,212,0.5,-0.5,0,3,NaN,0.2,3,881,1,0,881,0,0,0.6,NaN,1.79425323957305,1.79425323957305,750,0,0,neutral,0,3105.01993747067,2698.06395858248
35,104,2,214,-0.5,0.5,0.5,4,1,0.2,2,915,0,0,NaN,0,0,0.4,0.2,2.05044133855166,NaN,750,0,1,incongruent,0,8554.18938947268,3219.29242625881
35,104,2,217,0.5,0.5,0,2,NaN,0,2,695,1,1,695,1,0,0,NaN,0.39275363927828,0.39275363927828,750,0,0,neutral,1,7959.22486219815,4600.9244864536
35,104,2,219,0.5,-0.5,0,2,NaN,0.2,2,533,1,1,533,0,0,0.4,NaN,-0.827907302913937,-0.827907302913937,750,0,0,neutral,0,3030.71694917419,4123.21343391555
35,104,2,220,0.5,-0.5,0.5,4,3,0.2,4,760,1,0,760,0,0,0.4,NaN,0.882525004972688,0.882525004972688,750,0,0,incongruent,0,5118.38528097545,4851.96913873512
35,104,2,221,-0.5,0.5,0,2,NaN,0.2,2,524,1,1,524,1,0,0.4,0,-0.895721799702394,-0.895721799702394,750,0,0,neutral,0.1,6586.79789894531,2157.68624597971
35,104,2,222,0.5,0.5,0.5,4,1,0.4,1,707,0,1,NaN,0,0,0.6,NaN,0.483172968329556,NaN,750,1,0,incongruent,0,9363.9326007301,5334.28910255733
35,104,2,223,0.5,-0.5,0.5,1,3,0.4,3,722,0,1,NaN,0,0,0.2,NaN,0.59619712964365,NaN,750,1,0,incongruent,0,15463.7272503895,4298.46643813029
35,104,2,224,-0.5,0.5,0,3,NaN,0.4,3,692,1,1,692,1,0,0.2,0.2,0.370148807015461,0.370148807015461,750,0,0,neutral,0.1,6960.60000767317,12301.7757138325
35,104,2,225,-0.5,0.5,-0.5,4,4,0.6,4,817,1,0,817,0,0,0.4,0.4,1.31201681796625,1.31201681796625,750,1,0,congruent,0,15596.2685963916,18743.1354113104
35,104,2,226,-0.5,-0.5,0.5,2,3,0.6,3,814,0,0,NaN,1,0,0.4,0.4,1.28941198570343,NaN,750,1,0,incongruent,0.1,5199.77644424357,8255.92063345081
35,104,2,227,0.5,-0.5,0.5,1,4,0.6,4,823,0,0,NaN,0,0,0.4,NaN,1.35722648249188,NaN,750,1,0,incongruent,0,7215.86977816247,2744.8919359373
35,104,2,228,0.5,0.5,-0.5,3,3,0.6,4,535,0,1,NaN,0,0,0.4,NaN,-0.812837414738725,NaN,750,0,1,congruent,0,5785.09845005436,2329.43548491513
35,104,2,229,0.5,-0.5,0.5,1,4,0.4,1,853,1,0,853,0,0,0.4,NaN,1.58327480512007,1.58327480512007,750,0,0,incongruent,0,8846.69251208614,11743.146581162
35,104,2,230,0.5,-0.5,-0.5,3,3,0.4,3,555,1,1,555,1,0,0.2,NaN,-0.662138532986599,-0.662138532986599,750,1,0,congruent,1,19622.8663106595,9521.34030161141
35,104,2,231,-0.5,-0.5,-0.5,1,1,0.4,1,576,1,1,576,0,0,0.6,0.6,-0.503904707146867,-0.503904707146867,750,1,0,congruent,0,5699.36754852248,801.044393844539
35,104,2,232,-0.5,0.5,0.5,2,3,0.4,1,730,0,1,NaN,0,0,0.4,0.4,0.6564766823445,NaN,750,0,1,incongruent,0,3380.67501704293,8559.58280695122
35,104,2,233,-0.5,-0.5,0.5,1,4,0.2,4,683,0,1,NaN,1,0,0.4,0.4,0.302334310227005,NaN,750,1,0,incongruent,0.1,2130.55068161286,7714.26277584605
35,104,2,234,-0.5,-0.5,-0.5,3,3,0.2,3,917,1,0,917,0,0,0.6,0.4,2.06551122672687,2.06551122672687,750,1,0,congruent,0,7283.4151397483,2742.08673583551
35,104,2,235,-0.5,-0.5,0,2,NaN,0.2,1,845,0,0,NaN,0,0,0.6,0.4,1.52299525241922,NaN,750,0,1,neutral,0,8673.53828679373,2519.71062050799
35,104,2,236,-0.5,-0.5,0.5,1,2,0.2,1,722,1,1,722,1,0,0.2,0.4,0.59619712964365,0.59619712964365,750,0,0,incongruent,0.1,5024.54849643394,7665.68079193416
35,104,2,238,0.5,0.5,-0.5,4,4,0.2,4,573,1,1,573,1,0,0.4,NaN,-0.526509539409686,-0.526509539409686,750,1,0,congruent,1,6011.39845539698,3319.21749783794
35,104,2,239,0.5,-0.5,0,3,NaN,0.2,3,632,1,1,632,0,0,0.6,NaN,-0.0819478382409154,-0.0819478382409154,750,0,0,neutral,0,3859.90065191133,7448.61794665437
35,104,2,240,-0.5,-0.5,0.5,1,4,0.2,1,907,1,0,907,0,0,0.6,0.4,1.99016178585081,1.99016178585081,750,0,0,incongruent,0,5669.33660576027,6162.01475886333
35,104,2,241,0.5,-0.5,0,4,NaN,0.2,4,811,1,0,811,0,0,0.6,NaN,1.26680715344061,1.26680715344061,750,0,0,neutral,0,4550.88984605539,3919.46203585161
35,104,2,242,-0.5,0.5,-0.5,1,1,0.2,4,705,0,1,NaN,0,0,0.4,0.4,0.468103080154343,NaN,750,0,1,congruent,0,2630.02230992711,2451.12937731023
35,104,2,243,-0.5,-0.5,0.5,4,2,0.2,4,879,1,0,879,1,0,0.4,0.4,1.77918335139784,1.77918335139784,750,0,0,incongruent,0.1,21346.7181521803,5419.67927599949
35,104,2,244,-0.5,0.5,0.5,3,1,0.2,1,682,0,1,NaN,0,0,0.2,0.4,0.294799366139399,NaN,750,1,0,incongruent,0,3259.95030230689,2141.65067422252
35,104,2,245,0.5,-0.5,0,1,NaN,0.2,1,808,1,0,808,0,0,0.2,NaN,1.24420232117779,1.24420232117779,750,0,0,neutral,0,1487.1461589505,6260.01899428143
35,104,2,246,0.5,0.5,-0.5,3,3,0.2,3,664,1,1,664,1,0,0.2,NaN,0.159170372562486,0.159170372562486,750,1,0,congruent,1,9298.96791680457,5123.5969311145
35,104,2,247,0.5,-0.5,0,2,NaN,0.4,1,784,0,0,NaN,1,0,0.6,NaN,1.06336366307524,NaN,750,0,1,neutral,1,3792.28634663941,3881.7213268138
35,104,2,249,-0.5,0.5,-0.5,4,4,0.4,3,686,0,1,NaN,0,0,0.8,0.2,0.324939142489824,NaN,750,0,1,congruent,0,8533.0670935795,9191.70393431861
35,104,2,250,0.5,0.5,0,3,NaN,0.4,3,732,1,1,732,1,0,0.8,NaN,0.671546570519713,0.671546570519713,750,0,0,neutral,1,1835.75786163735,2039.50102096875
35,104,2,251,-0.5,0.5,-0.5,4,4,0.4,4,558,1,1,558,1,0,1.2,0,-0.63953370072378,-0.63953370072378,750,1,0,congruent,0.1,8721.68987752798,2295.73444394837
35,104,2,252,-0.5,-0.5,-0.5,3,3,0.6,3,846,1,0,846,0,0,1,0.4,1.53053019650683,1.53053019650683,750,1,0,congruent,0,2154.8380969471,9997.84665919331
35,104,2,253,0.5,0.5,0,4,NaN,0.6,4,793,1,0,793,0,0,0.6,NaN,1.1311781598637,1.1311781598637,750,0,0,neutral,0,1664.32153485554,4585.03461479407
35,104,2,254,0.5,0.5,0.5,3,2,0.6,3,821,1,0,821,0,0,0.6,NaN,1.34215659431667,1.34215659431667,750,0,0,incongruent,0,2812.00661688471,2417.95818793899
35,104,2,255,0.5,-0.5,-0.5,4,4,0.4,4,598,1,1,598,0,0,0.6,NaN,-0.338135937219529,-0.338135937219529,750,1,0,congruent,0,3336.98442200922,2785.13313460809
35,104,2,257,-0.5,0.5,0,1,NaN,0.4,1,913,1,0,913,0,0,0,0.2,2.03537145037645,2.03537145037645,750,0,0,neutral,0,1295.66497267399,3145.26648944572
35,104,2,259,-0.5,-0.5,0,3,NaN,0,3,570,1,1,570,0,0,0,0.4,-0.549114371672505,-0.549114371672505,750,0,0,neutral,0,4439.06132531654,1147.66828817933
35,104,2,260,0.5,0.5,-0.5,2,2,0,2,537,1,1,537,1,0,0,NaN,-0.797767526563512,-0.797767526563512,750,1,0,congruent,1,4332.97929121107,2740.61387627188
35,104,2,262,0.5,0.5,-0.5,1,1,0.2,1,604,1,1,604,1,0,0.4,NaN,-0.292926272693891,-0.292926272693891,750,1,0,congruent,1,15165.7499949647,4326.37207878524
35,104,2,263,0.5,-0.5,0,2,NaN,0.4,2,574,1,1,574,1,0,0.8,NaN,-0.51897459532208,-0.51897459532208,750,0,0,neutral,1,5091.68792545169,4867.20357684318
35,104,2,264,-0.5,0.5,-0.5,3,3,0.4,3,709,1,1,709,1,0,1.2,0.2,0.498242856504768,0.498242856504768,750,1,0,congruent,0.1,2399.88290541339,4670.14015944553
35,104,2,265,-0.5,0.5,0,2,NaN,0.6,2,672,1,1,672,1,0,1.4,0.4,0.219449925263336,0.219449925263336,750,0,0,neutral,0.1,7806.38314029159,3366.07726981832
35,104,2,266,-0.5,0.5,-0.5,4,4,0.8,4,648,1,1,648,1,0,1.2,0.6,0.0386112671607851,0.0386112671607851,750,1,0,congruent,0.1,2378.14423522375,3295.35452374797
35,104,2,267,0.5,0.5,0,2,NaN,1,1,951,0,0,NaN,0,0,1.4,NaN,2.32169932570549,NaN,750,0,1,neutral,0,17705.8779344999,777.094378815819
35,104,2,269,0.5,0.5,0,2,NaN,0.6,2,644,1,1,644,1,0,0.6,NaN,0.00847149081035997,0.00847149081035997,750,0,0,neutral,1,11751.4490674078,3754.88215834972
35,104,2,270,0.5,0.5,-0.5,3,3,0.6,3,734,1,1,734,1,0,0.8,NaN,0.686616458694925,0.686616458694925,750,1,0,congruent,1,7709.5089933804,8243.58758156571
35,104,2,271,0.5,-0.5,0.5,1,2,0.6,1,778,1,0,778,0,0,1,NaN,1.0181539985496,1.0181539985496,750,0,0,incongruent,0,4164.21035863408,2827.44542465663
35,104,2,272,-0.5,-0.5,0,2,NaN,0.6,2,499,1,1,499,1,0,0.8,0.2,-1.08409540189255,-1.08409540189255,750,0,0,neutral,0.1,7866.15767789532,3415.66588054991
35,104,2,273,0.5,0.5,-0.5,3,3,0.6,3,654,1,1,654,1,0,1,NaN,0.0838209316864228,0.0838209316864228,750,1,0,congruent,1,6857.35049157032,13247.9486805634
35,104,2,274,0.5,-0.5,0,2,NaN,0.6,2,523,1,1,523,0,0,1.4,NaN,-0.90325674379,-0.90325674379,750,0,0,neutral,0,2324.48224925564,3709.75982856898
35,104,2,275,0.5,-0.5,-0.5,1,1,0.6,1,687,1,1,687,1,0,1,NaN,0.33247408657743,0.33247408657743,750,1,0,congruent,1,8080.69833175472,4345.36699686134
35,104,2,276,-0.5,0.5,0,4,NaN,0.6,4,648,1,1,648,1,0,1,0.6,0.0386112671607851,0.0386112671607851,750,0,0,neutral,0.1,3698.17898068593,3777.91551344919
35,104,2,277,0.5,0.5,0.5,3,2,0.8,2,956,0,0,NaN,0,0,1.2,NaN,2.35937404614352,NaN,750,1,0,incongruent,0,8165.03113155675,25268.1861574488
35,104,2,279,0.5,0.5,0.5,3,4,0.6,4,554,0,1,NaN,0,0,0.6,NaN,-0.669673477074205,NaN,750,1,0,incongruent,0,3826.77090776659,2166.41447952293
35,104,2,280,-0.5,0.5,0.5,1,2,0.4,2,496,0,1,NaN,0,0,0.6,0.8,-1.10670023415537,NaN,750,1,0,incongruent,0,1612.81585031689,3180.75715203337
35,104,2,281,0.5,-0.5,-0.5,4,4,0.2,4,548,1,1,548,0,0,0.2,NaN,-0.714883141599843,-0.714883141599843,750,1,0,congruent,0,2158.87914333349,7337.5820149092
35,104,2,282,0.5,-0.5,0,2,NaN,0.2,2,637,1,1,637,0,0,0,NaN,-0.044273117802884,-0.044273117802884,750,0,0,neutral,0,3929.55008529041,4585.06980705867
35,104,2,283,-0.5,0.5,-0.5,4,4,0.2,4,683,1,1,683,1,0,0,0.6,0.302334310227005,0.302334310227005,750,1,0,congruent,0.1,4074.59545839758,1644.65668088254
35,104,2,285,-0.5,-0.5,0.5,4,2,0.2,2,738,0,1,NaN,0,0,0.6,0.4,0.71675623504535,NaN,750,1,0,incongruent,0,4134.74060396614,2278.69787431565
35,104,2,286,-0.5,-0.5,-0.5,3,3,0.2,4,716,0,1,NaN,0,0,0.6,0.2,0.550987465118012,NaN,750,0,1,congruent,0,2533.19367201022,3791.35929014037
35,104,2,287,0.5,0.5,0.5,2,1,0.2,2,671,1,1,671,1,0,0.6,NaN,0.21191498117573,0.21191498117573,750,0,0,incongruent,1,5570.93705382887,2102.40235872314
35,104,2,288,0.5,0.5,0.5,1,4,0.4,4,626,0,1,NaN,0,0,1,NaN,-0.127157502766553,NaN,750,1,0,incongruent,0,2773.3145397929,5631.99483737888
35,104,2,289,-0.5,0.5,-0.5,2,2,0.4,2,597,1,1,597,1,0,0.8,0.6,-0.345670881307135,-0.345670881307135,750,1,0,congruent,0.1,11751.0758340479,4801.52388964662
35,104,2,290,0.5,0.5,-0.5,1,1,0.6,1,820,1,0,820,0,0,0.6,NaN,1.33462165022907,1.33462165022907,750,1,0,congruent,0,3069.34954442076,1698.1632303101
35,104,2,291,-0.5,0.5,0,3,NaN,0.6,2,707,0,1,NaN,0,0,0.6,0.6,0.483172968329556,NaN,750,0,1,neutral,0,8539.23943678716,4741.15897314967
35,104,2,292,-0.5,0.5,-0.5,1,1,0.4,1,659,1,1,659,1,0,0.6,0.6,0.121495652124454,0.121495652124454,750,1,0,congruent,0.1,4171.0953699493,3616.17377734004
35,104,2,293,-0.5,0.5,0,2,NaN,0.4,2,594,1,1,594,1,0,0.4,0.6,-0.368275713569954,-0.368275713569954,750,0,0,neutral,0.1,1597.3003623167,4488.91106398573
35,104,2,294,0.5,0.5,-0.5,1,1,0.6,1,556,1,1,556,1,0,0.6,NaN,-0.654603588898993,-0.654603588898993,750,1,0,congruent,1,4247.71894902764,6684.32493430422
35,104,2,296,-0.5,0.5,-0.5,1,1,0.6,1,642,1,1,642,1,0,0.8,0.8,-0.00659839736485259,-0.00659839736485259,750,1,0,congruent,0.1,5668.86149326537,11900.2343492672
35,104,2,297,0.5,-0.5,0,4,NaN,0.8,4,845,1,0,845,1,0,1,NaN,1.52299525241922,1.52299525241922,750,0,0,neutral,1,9540.45609671761,3034.32003302885
35,104,2,298,-0.5,-0.5,-0.5,1,1,0.8,1,764,1,0,764,1,0,1.2,0.2,0.912664781323114,0.912664781323114,750,1,0,congruent,0.1,6430.07787464814,3831.47287315778
35,104,2,299,-0.5,0.5,0.5,3,4,0.8,2,791,0,0,NaN,0,0,1.2,0.8,1.11610827168848,NaN,750,0,1,incongruent,0,12926.754360009,1789.21834160104
35,104,2,300,-0.5,-0.5,0,4,NaN,0.8,4,608,1,1,608,1,0,0.8,0.4,-0.262786496343466,-0.262786496343466,750,0,0,neutral,0.1,2360.33805082287,7316.04512804619
35,104,3,301,0.5,0.5,-0.5,2,2,0.8,2,518,1,1,518,1,0,1,NaN,-0.940931464228031,-0.940931464228031,750,1,0,congruent,1,3340.52269945591,4404.28402635302
35,104,3,303,-0.5,-0.5,-0.5,1,1,0.6,1,604,1,1,604,1,0,0.8,0.4,-0.292926272693891,-0.292926272693891,750,1,0,congruent,0.1,3531.7490048387,2549.55689229395
35,104,3,304,-0.5,0.5,-0.5,4,4,0.6,4,425,1,1,425,1,0,0.8,0.6,-1.64168126437542,-1.64168126437542,750,1,0,congruent,0.1,4620.31061843209,6313.56153858496
35,104,3,305,-0.5,0.5,-0.5,3,3,0.6,3,802,1,0,802,0,0,1,0.6,1.19899265665215,1.19899265665215,750,1,0,congruent,0,762.04622510136,3524.31315609723
35,104,3,306,-0.5,-0.5,-0.5,1,1,0.4,1,646,1,1,646,1,0,0.8,0.6,0.0235413789855725,0.0235413789855725,750,1,0,congruent,0.1,2873.98334153009,1111.98696154843
35,104,3,307,-0.5,0.5,0.5,3,2,0.4,2,559,0,1,NaN,0,0,0.6,0.4,-0.631998756636174,NaN,750,1,0,incongruent,0,5919.80337886937,5777.96461805323
35,104,3,308,0.5,-0.5,0.5,4,1,0.4,1,633,0,1,NaN,1,0,0.6,NaN,-0.0744128941533091,NaN,750,1,0,incongruent,1,5469.19802916131,2735.97863434138
35,104,3,310,0.5,-0.5,0.5,4,2,0.4,2,615,0,1,NaN,0,0,0.6,NaN,-0.210041887730222,NaN,750,1,0,incongruent,0,3952.5294002325,5778.14887246477
35,104,3,311,0.5,-0.5,0.5,3,1,0.4,1,532,0,1,NaN,1,0,0.6,NaN,-0.835442247001543,NaN,750,1,0,incongruent,1,9304.22344365599,4349.61596557254
35,104,3,312,-0.5,-0.5,-0.5,4,4,0.4,4,616,1,1,616,1,0,0.8,0.8,-0.202506943642616,-0.202506943642616,750,1,0,congruent,0.1,1884.61371992594,7238.90514569769
35,104,3,313,0.5,-0.5,-0.5,2,2,0.4,2,605,1,1,605,1,0,1,NaN,-0.285391328606285,-0.285391328606285,750,1,0,congruent,1,6209.80889189684,6587.68378693152
35,104,3,314,-0.5,0.5,0,3,NaN,0.4,4,950,0,0,NaN,0,0,1,0.2,2.31416438161788,NaN,750,0,1,neutral,0,14345.0818387353,7469.98239955832
35,104,3,315,0.5,-0.5,-0.5,4,4,0.2,4,737,1,1,737,0,0,1,NaN,0.709221290957744,0.709221290957744,750,1,0,congruent,0,3543.02041568398,4141.51369943945
35,104,3,316,0.5,-0.5,0.5,3,1,0.2,1,863,0,0,NaN,1,0,1,NaN,1.65862424599614,NaN,750,1,0,incongruent,1,5426.39470790569,7038.85826963766
35,104,3,317,0.5,0.5,-0.5,2,2,0.2,2,901,1,0,901,0,0,1,NaN,1.94495212132517,1.94495212132517,750,1,0,congruent,0,5603.66069461418,3007.82417578578
35,104,3,318,0.5,-0.5,-0.5,4,4,0.2,4,647,1,1,647,0,0,0.8,NaN,0.0310763230731788,0.0310763230731788,750,1,0,congruent,0,4924.26655410883,2330.98929928001
35,104,3,319,-0.5,-0.5,0.5,3,2,0.2,2,555,0,1,NaN,1,0,0.4,1,-0.662138532986599,NaN,750,1,0,incongruent,0.1,3671.68267717488,1720.57953657168
35,104,3,320,-0.5,-0.5,-0.5,1,1,0.2,1,767,1,0,767,1,0,0.6,1,0.935269613585932,0.935269613585932,750,1,0,congruent,0.1,7924.44921160297,1535.14907890882
35,104,3,321,0.5,-0.5,-0.5,4,4,0.2,4,662,1,1,662,1,0,0.8,NaN,0.144100484387273,0.144100484387273,750,1,0,congruent,1,7589.94965737853,4022.05031535732
35,104,3,322,-0.5,-0.5,-0.5,2,2,0.2,2,789,1,0,789,1,0,0.8,1,1.10103838351327,1.10103838351327,750,1,0,congruent,0.1,9142.8918401343,3980.58878068597
35,104,3,323,0.5,-0.5,0,3,NaN,0.2,3,845,1,0,845,1,0,1,NaN,1.52299525241922,1.52299525241922,750,0,0,neutral,1,11308.206712831,6098.50007240196
35,104,3,324,0.5,0.5,0.5,2,3,0.2,3,822,0,0,NaN,0,0,1.4,NaN,1.34969153840428,NaN,750,1,0,incongruent,0,1918.36313940068,14177.3762570345
35,104,3,325,-0.5,0.5,0.5,3,1,0,1,732,0,1,NaN,0,0,1.2,0.2,0.671546570519713,NaN,750,1,0,incongruent,0,3162.05389793789,10154.1635542858
35,104,3,326,-0.5,-0.5,-0.5,2,2,0,2,533,1,1,533,0,0,1,1,-0.827907302913937,-0.827907302913937,750,1,0,congruent,0,8603.65121951016,6293.85548517102
35,104,3,327,0.5,0.5,-0.5,1,1,0,1,891,1,0,891,0,0,0.6,NaN,1.86960268044911,1.86960268044911,750,1,0,congruent,0,10116.7121917572,2609.9917933093
35,104,3,328,-0.5,0.5,0,3,NaN,0,3,704,1,1,704,1,0,0.4,0.2,0.460568136066737,0.460568136066737,750,0,0,neutral,0.1,26746.6205732937,8956.63773793016
35,104,3,329,0.5,-0.5,-0.5,4,4,0.2,4,637,1,1,637,1,0,0.2,NaN,-0.044273117802884,-0.044273117802884,750,1,0,congruent,1,848.425522434962,6035.63590037821
35,104,3,330,0.5,0.5,0.5,3,2,0.2,2,677,0,1,NaN,0,0,0.6,NaN,0.257124645701367,NaN,750,1,0,incongruent,0,17285.9714821488,4078.55061634522
35,104,3,331,0.5,0.5,-0.5,1,1,0.2,1,514,1,1,514,1,0,0.6,NaN,-0.971071240578456,-0.971071240578456,750,1,0,congruent,1,2158.19942618908,4556.25855550456
35,104,3,333,0.5,0.5,0,1,NaN,0.4,1,763,1,0,763,0,0,1,NaN,0.905129837235507,0.905129837235507,750,0,0,neutral,0,2889.63933259629,8024.97243164277
35,104,3,334,-0.5,0.5,-0.5,2,2,0.4,2,702,1,1,702,1,0,0.8,0.2,0.445498247891524,0.445498247891524,750,1,0,congruent,0.1,1989.82095448952,1339.28976349007
35,104,3,335,-0.5,0.5,0,4,NaN,0.6,4,734,1,1,734,1,0,0.6,0.4,0.686616458694925,0.686616458694925,750,0,0,neutral,0.1,6173.59652409621,3740.06217185563
35,104,3,337,-0.5,0.5,0,2,NaN,0.6,1,990,0,0,NaN,0,0,0.4,0.6,2.61556214512213,NaN,750,0,1,neutral,0,5764.66417807909,6986.01723676751
35,104,3,338,0.5,0.5,-0.5,4,4,0.4,4,627,1,1,627,1,0,0.4,NaN,-0.119622558678947,-0.119622558678947,750,1,0,congruent,1,2914.47628491271,6879.83378906344
35,104,3,339,0.5,0.5,0.5,2,1,0.6,2,755,1,0,755,0,0,0.8,NaN,0.844850284534657,0.844850284534657,750,0,0,incongruent,0,4500.559962903,952.509937592053
35,104,3,340,0.5,-0.5,0.5,1,4,0.4,4,546,0,1,NaN,0,0,0.6,NaN,-0.729953029775055,NaN,750,1,0,incongruent,0,6174.4778876303,5519.95566981187
35,104,3,341,0.5,0.5,0.5,4,1,0.4,4,864,1,0,864,0,0,0.4,NaN,1.66615919008374,1.66615919008374,750,0,0,incongruent,0,2887.74674369479,12254.3726177412
35,104,3,342,-0.5,-0.5,0.5,1,3,0.2,3,934,0,0,NaN,0,0,0.4,0.6,2.19360527621618,NaN,750,1,0,incongruent,0,5275.50783328273,4836.6879618448
35,104,3,343,0.5,-0.5,0,4,NaN,0.2,4,613,1,1,613,0,0,0.4,NaN,-0.225111775905435,-0.225111775905435,750,0,0,neutral,0,5216.30542759924,2053.54134256446
35,104,3,344,-0.5,-0.5,-0.5,1,1,0.2,2,644,0,1,NaN,0,0,0,0.4,0.00847149081035997,NaN,750,0,1,congruent,0,10594.5590512451,2074.26685516001
35,104,3,345,0.5,0.5,0.5,3,2,0.2,1,681,0,1,NaN,0,0,0,NaN,0.287264422051792,NaN,750,0,1,incongruent,0,5500.45938983254,6100.48187042439
35,104,3,346,-0.5,-0.5,0.5,1,4,0.2,1,858,1,0,858,0,0,0,0.2,1.6209495255581,1.6209495255581,750,0,0,incongruent,0,10275.5106171978,3575.82024285075
35,104,3,347,0.5,0.5,-0.5,3,3,0.2,3,608,1,1,608,1,0,0,NaN,-0.262786496343466,-0.262786496343466,750,1,0,congruent,1,2750.25580953146,6455.3104585751
35,104,3,348,0.5,0.5,0.5,1,2,0.4,1,755,1,0,755,0,0,0.4,NaN,0.844850284534657,0.844850284534657,750,0,0,incongruent,0,29018.681736997,1120.1060164159
35,104,3,350,-0.5,-0.5,0.5,3,1,0.2,2,572,0,1,NaN,1,0,0.4,0,-0.534044483497292,NaN,750,0,1,incongruent,0.1,1708.51061656484,2489.29876423501
35,104,3,351,-0.5,-0.5,0,1,NaN,0.2,2,636,0,1,NaN,0,0,0.6,0.2,-0.0518080618904903,NaN,750,0,1,neutral,0,5252.10431828869,4336.85391709522
35,104,3,353,0.5,0.5,0,2,NaN,0.2,1,832,0,0,NaN,0,0,0.2,NaN,1.42504097928034,NaN,750,0,1,neutral,0,5441.79246190806,988.505855165075
35,104,3,354,-0.5,0.5,-0.5,3,3,0.2,4,701,0,1,NaN,0,0,0.2,0.4,0.437963303803918,NaN,750,0,1,congruent,0,7421.81476656763,6239.76696412794
35,104,3,355,-0.5,-0.5,-0.5,2,2,0.2,2,550,1,1,550,1,0,0.2,0.2,-0.69981325342463,-0.69981325342463,750,1,0,congruent,0.1,3695.35558475692,2761.64112433312
35,104,3,356,0.5,0.5,-0.5,1,1,0.2,1,643,1,1,643,1,0,0.2,NaN,0.000936546722753691,0.000936546722753691,750,1,0,congruent,1,8122.39951788667,2359.06532904451
35,104,3,358,-0.5,-0.5,0.5,1,4,0.2,4,502,0,1,NaN,0,0,0.6,0.4,-1.06149056962973,NaN,750,1,0,incongruent,0,7492.87671543827,10241.2112976149
35,104,3,359,0.5,0.5,0,3,NaN,0.2,3,601,1,1,601,1,0,0.6,NaN,-0.31553110495671,-0.31553110495671,750,0,0,neutral,1,2588.83493286565,3294.62444466447
35,104,3,360,0.5,-0.5,-0.5,1,1,0.4,1,635,1,1,635,0,0,1,NaN,-0.0593430059780965,-0.0593430059780965,750,1,0,congruent,0,3562.2401380159,1744.18028506743
35,104,3,361,0.5,0.5,0,2,NaN,0.4,2,530,1,1,530,1,0,0.8,NaN,-0.850512135176756,-0.850512135176756,750,0,0,neutral,1,4015.35306944455,1947.68918052328
35,104,3,362,-0.5,-0.5,0.5,1,3,0.6,3,394,0,1,NaN,0,0,0.8,0.4,-1.87526453109121,NaN,750,1,0,incongruent,0,1653.00050690299,3195.68077794556
35,104,3,364,0.5,0.5,0,4,NaN,0.8,4,618,1,1,618,1,0,1,NaN,-0.187437055467403,-0.187437055467403,750,0,0,neutral,1,6641.71484333111,5653.91914868344
35,104,3,365,-0.5,-0.5,0.5,1,2,0.8,2,354,0,1,NaN,1,0,1,0.2,-2.17666229459546,NaN,750,1,0,incongruent,0.1,19796.3228795193,1383.43069086495
35,104,3,366,-0.5,0.5,-0.5,3,3,0.8,3,552,1,1,552,1,0,1.2,0.2,-0.684743365249418,-0.684743365249418,750,1,0,congruent,0.1,4307.64442206378,2143.27424648242
35,104,3,367,0.5,0.5,-0.5,2,2,1,2,461,1,1,461,1,0,1,NaN,-1.37042327722159,-1.37042327722159,750,1,0,congruent,1,8499.66706095847,6432.03231407151
35,104,3,368,0.5,-0.5,0.5,3,1,1,1,556,0,1,NaN,1,0,1.4,NaN,-0.654603588898993,NaN,750,1,0,incongruent,1,3676.30667158445,3141.51110657289
35,104,3,369,-0.5,0.5,0,4,NaN,1,4,384,1,1,384,1,0,1.6,0.4,-1.95061397196727,-1.95061397196727,750,0,0,neutral,0.1,7332.77286702139,1567.17084076204
35,104,3,370,0.5,0.5,0.5,3,4,1,4,494,0,1,NaN,0,0,1.4,NaN,-1.12177012233058,NaN,750,1,0,incongruent,0,1084.14312456415,2205.98063362607
35,104,3,371,-0.5,0.5,0.5,1,2,0.8,2,501,0,1,NaN,0,0,1.2,0.6,-1.06902551371734,NaN,750,1,0,incongruent,0,12816.0572132959,4335.26018273458
35,104,3,373,-0.5,0.5,0,3,NaN,0.6,3,645,1,1,645,1,0,0.6,0.6,0.0160064348979662,0.0160064348979662,750,0,0,neutral,0.1,1516.72213111888,4209.60154107025
35,104,3,374,-0.5,0.5,-0.5,4,4,0.6,4,476,1,1,476,1,0,0.4,0.8,-1.2573991159075,-1.2573991159075,750,1,0,congruent,0.1,5276.26075846868,1167.75491058016
35,104,3,376,-0.5,-0.5,0.5,4,2,0.6,2,620,0,1,NaN,1,0,0.8,0.4,-0.172367167292191,NaN,750,1,0,incongruent,0.1,4838.20690129282,1482.89580141098
35,104,3,377,0.5,0.5,0.5,2,1,0.6,1,479,0,1,NaN,0,0,1,NaN,-1.23479428364468,NaN,750,1,0,incongruent,0,15608.2331017173,954.646797622352
35,104,3,378,-0.5,-0.5,0.5,3,2,0.4,2,472,0,1,NaN,1,0,1,0.4,-1.28753889225792,NaN,750,1,0,incongruent,0.1,14196.965186951,3216.64351391213
35,104,3,379,0.5,0.5,0.5,4,1,0.4,1,535,0,1,NaN,0,0,1,NaN,-0.812837414738725,NaN,750,1,0,incongruent,0,8233.58924234065,6603.91299407581
35,104,3,380,-0.5,0.5,0,1,NaN,0.4,2,720,0,1,NaN,0,0,0.8,0.8,0.581127241468437,NaN,750,0,1,neutral,0,7176.82632696921,1965.33687433952
35,104,3,381,-0.5,-0.5,0.5,4,3,0.4,4,528,1,1,528,0,0,0.4,0.6,-0.865582023351969,-0.865582023351969,750,0,0,incongruent,0,4465.52769049809,6195.72210098955
35,104,3,382,0.5,-0.5,-0.5,2,2,0.4,2,565,1,1,565,1,0,0.2,NaN,-0.586789092110536,-0.586789092110536,750,1,0,congruent,1,2930.13208379329,5694.82580611607
35,104,3,383,0.5,0.5,-0.5,1,1,0.4,1,547,1,1,547,1,0,0.6,NaN,-0.722418085687449,-0.722418085687449,750,1,0,congruent,1,5851.37107837203,2879.35835203323
35,104,3,384,-0.5,-0.5,0.5,2,4,0.4,2,676,1,1,676,0,0,0.8,0.6,0.249589701613761,0.249589701613761,750,0,0,incongruent,0,9324.25947256488,2482.93571365381
35,104,3,385,-0.5,-0.5,0,3,NaN,0.4,3,596,1,1,596,0,0,0.8,0.4,-0.353205825394741,-0.353205825394741,750,0,0,neutral,0,3836.09615747036,1056.40397980596
35,104,3,386,-0.5,-0.5,0.5,4,2,0.4,2,582,0,1,NaN,1,0,0.8,0.4,-0.458695042621229,NaN,750,1,0,incongruent,0.1,6053.4653941082,2481.25839947126
35,104,3,387,0.5,-0.5,0.5,2,1,0.4,1,654,0,1,NaN,0,0,1,NaN,0.0838209316864228,NaN,750,1,0,incongruent,0,4744.05538230856,6350.02443409776
35,104,3,388,-0.5,-0.5,0.5,1,4,0.4,4,453,0,1,NaN,1,0,0.6,0.4,-1.43070282992244,NaN,750,1,0,incongruent,0.1,8697.34301185544,3139.41747559157
35,104,3,389,-0.5,-0.5,0,4,NaN,0.4,4,813,1,0,813,1,0,0.4,0.4,1.28187704161582,1.28187704161582,750,0,0,neutral,0.1,14279.6313456882,8672.55145865969
35,104,3,390,-0.5,-0.5,-0.5,1,1,0.4,2,599,0,1,NaN,0,0,0.6,0.6,-0.330600993131923,NaN,750,0,1,congruent,0,2055.99644204637,1992.62021194333
35,104,3,391,0.5,0.5,0,4,NaN,0.4,4,473,1,1,473,1,0,0.6,NaN,-1.28000394817031,-1.28000394817031,750,0,0,neutral,1,8355.91485830816,1490.7004514577
35,104,3,392,-0.5,0.5,-0.5,2,2,0.4,2,492,1,1,492,1,0,0.8,0.6,-1.13684001050579,-1.13684001050579,750,1,0,congruent,0.1,12298.9778195349,4834.99952851539
35,104,3,393,-0.5,-0.5,-0.5,4,4,0.6,4,519,1,1,519,1,0,1,0.6,-0.933396520140425,-0.933396520140425,750,1,0,congruent,0.1,4548.77889506828,7936.04817667853
35,104,3,394,0.5,0.5,-0.5,1,1,0.6,1,609,1,1,609,1,0,1,NaN,-0.25525155225586,-0.25525155225586,750,1,0,congruent,1,2798.9462477781,1118.88307377662
35,104,3,395,0.5,0.5,0,3,NaN,0.8,4,744,0,1,NaN,0,0,1.2,NaN,0.761965899570988,NaN,750,0,1,neutral,0,3231.25858884159,5548.27806540213
35,104,3,396,0.5,0.5,0.5,4,2,0.8,2,543,0,1,NaN,0,0,1.2,NaN,-0.752557862037874,NaN,750,1,0,incongruent,0,3363.84927222833,3998.13319497323
35,104,3,397,0.5,-0.5,0.5,2,3,0.6,4,682,0,1,NaN,0,0,0.8,NaN,0.294799366139399,NaN,750,0,1,incongruent,0,2461.42705309828,7297.53550057157
35,104,3,398,-0.5,0.5,0,4,NaN,0.6,4,600,1,1,600,1,0,0.6,0.6,-0.323066049044316,-0.323066049044316,750,0,0,neutral,0.1,8096.74539460211,5098.61729871612
35,104,3,399,-0.5,-0.5,0.5,2,3,0.6,3,621,0,1,NaN,0,0,0.6,0.8,-0.164832223204584,NaN,750,1,0,incongruent,0,4461.01118708234,1952.40214971283
35,104,3,400,0.5,0.5,0,4,NaN,0.6,4,492,1,1,492,1,0,0.2,NaN,-1.13684001050579,-1.13684001050579,750,0,0,neutral,1,4196.48322023462,9738.41404445802
35,104,3,401,0.5,-0.5,-0.5,3,3,0.6,4,833,0,0,NaN,1,0,0.6,NaN,1.43257592336795,NaN,750,0,1,congruent,1,7452.89248063,4573.75021831544
35,104,3,402,-0.5,0.5,0,4,NaN,0.6,4,569,1,1,569,1,0,1,0.8,-0.556649315760111,-0.556649315760111,750,0,0,neutral,0.1,4507.26779997812,1921.32788973932
35,104,3,403,-0.5,-0.5,-0.5,1,1,0.6,2,284,0,1,NaN,0,0,1.2,0.6,-2.7041083807279,NaN,750,0,1,congruent,0,13828.9703358895,3729.95932634682
35,104,3,404,0.5,0.5,0,2,NaN,0.6,2,420,1,1,420,1,0,1,NaN,-1.67935598481345,-1.67935598481345,750,0,0,neutral,1,12267.7801038728,2264.40619141622
35,104,3,405,0.5,-0.5,-0.5,4,4,0.8,4,549,1,1,549,1,0,1.4,NaN,-0.707348197512237,-0.707348197512237,750,1,0,congruent,1,8470.62800973039,3471.60749102552
35,104,3,406,-0.5,0.5,0,1,NaN,0.8,2,561,0,1,NaN,0,0,1.4,0.8,-0.616928868460961,NaN,750,0,1,neutral,0,21049.8707497345,3787.48766486262
35,104,3,407,-0.5,0.5,-0.5,2,2,0.8,2,649,1,1,649,1,0,1,0.6,0.0461462112483914,0.0461462112483914,750,1,0,congruent,0.1,6587.43403193776,3218.15297277322
35,104,3,408,0.5,-0.5,0.5,1,4,0.8,4,576,0,1,NaN,1,0,1,NaN,-0.503904707146867,NaN,750,1,0,incongruent,1,11406.8033484849,6866.05721881348
35,104,3,409,-0.5,-0.5,0,2,NaN,0.8,2,438,1,1,438,1,0,1.4,0.4,-1.54372699123653,-1.54372699123653,750,0,0,neutral,0.1,5398.71063635109,11257.6559678526
35,104,3,410,0.5,0.5,0.5,1,3,0.8,3,652,0,1,NaN,0,0,1.2,NaN,0.0687510435112102,NaN,750,1,0,incongruent,0,4121.12889184062,5148.95317747667
35,104,3,411,0.5,0.5,-0.5,2,2,0.6,2,496,1,1,496,1,0,0.8,NaN,-1.10670023415537,-1.10670023415537,750,1,0,congruent,1,11159.4348655177,1056.33987230041
35,104,3,412,-0.5,-0.5,-0.5,4,4,0.6,4,708,1,1,708,0,0,1.2,0.4,0.490707912417162,0.490707912417162,750,1,0,congruent,0,6445.89983490371,1846.23756614206
35,104,3,413,0.5,0.5,0,2,NaN,0.6,2,433,1,1,433,1,0,1,NaN,-1.58140171167457,-1.58140171167457,750,0,0,neutral,1,2123.42837291809,5774.93091381508
35,104,3,414,-0.5,-0.5,0.5,3,2,0.6,1,735,0,1,NaN,1,0,1,0.4,0.694151402782531,NaN,750,0,1,incongruent,0.1,4186.00784524599,1458.82456265345
35,104,3,415,-0.5,0.5,-0.5,4,4,0.6,4,543,1,1,543,1,0,1,0.8,-0.752557862037874,-0.752557862037874,750,1,0,congruent,0.1,4719.28554283837,1803.57261413292
35,104,3,416,0.5,-0.5,0,3,NaN,0.8,2,564,0,1,NaN,1,0,1.2,NaN,-0.594324036198142,NaN,750,0,1,neutral,1,5438.85097760012,3392.43345284108
35,104,3,417,-0.5,-0.5,-0.5,2,2,0.8,2,468,1,1,468,0,0,1.2,0.4,-1.31767866860835,-1.31767866860835,750,1,0,congruent,0,1906.9153101095,699.96884760916
35,104,3,419,-0.5,0.5,-0.5,2,2,0.8,2,608,1,1,608,1,0,1.2,0.8,-0.262786496343466,-0.262786496343466,750,1,0,congruent,0.1,6512.42953996488,4947.63303367518
35,104,3,420,-0.5,-0.5,0,4,NaN,0.8,4,597,1,1,597,1,0,1.2,0.4,-0.345670881307135,-0.345670881307135,750,0,0,neutral,0.1,4473.91231563428,7449.30021112412
35,104,3,421,0.5,-0.5,-0.5,2,2,0.8,2,503,1,1,503,0,0,1.2,NaN,-1.05395562554213,-1.05395562554213,750,1,0,congruent,0,5343.37427101744,4982.05312311397
35,104,3,422,0.5,-0.5,-0.5,3,3,0.8,4,625,0,1,NaN,1,0,0.8,NaN,-0.134692446854159,NaN,750,0,1,congruent,1,4265.93571148754,3001.62158723184
35,104,3,423,-0.5,-0.5,0,1,NaN,0.8,1,517,1,1,517,1,0,1.2,0.6,-0.948466408315638,-0.948466408315638,750,0,0,neutral,0.1,10183.2182388132,4256.77361758787
35,104,3,424,-0.5,-0.5,-0.5,3,3,0.8,2,706,0,1,NaN,1,0,1,0.6,0.475638024241949,NaN,750,0,1,congruent,0.1,17972.1122209146,7211.06024418273
35,104,3,425,0.5,0.5,0.5,4,2,0.8,2,448,0,1,NaN,0,0,1,NaN,-1.46837755036047,NaN,750,1,0,incongruent,0,9508.95825646831,19414.2866005253
35,104,3,426,0.5,0.5,0,1,NaN,0.8,3,434,0,1,NaN,0,0,0.8,NaN,-1.57386676758696,NaN,750,0,1,neutral,0,4395.48492043745,2850.43857328297
35,104,3,427,-0.5,0.5,-0.5,3,3,0.6,2,539,0,1,NaN,0,0,0.8,0.8,-0.782697638388299,NaN,750,0,1,congruent,0,8091.05526217118,6684.67245828062
35,104,3,428,-0.5,0.5,-0.5,4,4,0.4,4,708,1,1,708,1,0,0.4,0.6,0.490707912417162,0.490707912417162,750,1,0,congruent,0.1,7858.83145613434,6519.75127944742
35,104,3,429,-0.5,-0.5,0,2,NaN,0.4,2,508,1,1,508,0,0,0.4,0.8,-1.01628090510409,-1.01628090510409,750,0,0,neutral,0,10621.3606066929,2994.78155010898
35,104,3,431,-0.5,0.5,-0.5,2,2,0.4,2,773,1,0,773,0,0,0.6,0.8,0.98047927811157,0.98047927811157,750,1,0,congruent,0,3257.24100067174,4545.76978683496
35,104,3,432,0.5,-0.5,0,1,NaN,0.2,1,650,1,1,650,0,0,0.6,NaN,0.0536811553359976,0.0536811553359976,750,0,0,neutral,0,3498.01738260549,3843.80836782126
35,104,3,433,-0.5,0.5,-0.5,3,3,0.2,2,784,0,0,NaN,0,0,0.6,0.6,1.06336366307524,NaN,750,0,1,congruent,0,7995.57770058093,3885.93246641668
35,104,3,434,-0.5,-0.5,0.5,4,1,0.2,1,667,0,1,NaN,0,0,0.4,0.6,0.181775204825304,NaN,750,1,0,incongruent,0,3479.8039963241,9693.61922595319
35,104,3,435,0.5,-0.5,-0.5,2,2,0.2,2,635,1,1,635,0,0,0.4,NaN,-0.0593430059780965,-0.0593430059780965,750,1,0,congruent,0,12646.5659166121,6318.57998352021
35,104,3,436,-0.5,0.5,0,4,NaN,0.2,4,569,1,1,569,1,0,0,0.4,-0.556649315760111,-0.556649315760111,750,0,0,neutral,0.1,3379.58535836964,4640.39617363604
35,104,3,437,0.5,0.5,0.5,1,4,0.4,2,765,0,0,NaN,0,0,0.2,NaN,0.92019972541072,NaN,750,0,1,incongruent,0,27378.6305154416,4343.38384479444
35,104,3,438,0.5,0.5,0,4,NaN,0.4,3,816,0,0,NaN,0,0,0.2,NaN,1.30448187387864,NaN,750,0,1,neutral,0,1739.37893072669,2885.65875264578
35,104,3,439,-0.5,-0.5,-0.5,3,3,0.2,3,625,1,1,625,0,0,0.2,0.6,-0.134692446854159,-0.134692446854159,750,1,0,congruent,0,5597.97419940412,11321.1977944201
35,104,3,440,-0.5,0.5,0,2,NaN,0.2,2,531,1,1,531,1,0,0.2,0.4,-0.84297719108915,-0.84297719108915,750,0,0,neutral,0.1,2104.84516192082,7009.62277618808
35,104,3,441,-0.5,-0.5,0.5,1,2,0.4,1,753,1,0,753,0,0,0.4,0.4,0.829780396359444,0.829780396359444,750,0,0,incongruent,0,6596.18468865449,4418.59592836404
35,104,3,442,0.5,0.5,0.5,3,1,0.4,1,640,0,1,NaN,0,0,0.2,NaN,-0.0216682855400651,NaN,750,1,0,incongruent,0,9683.84110409843,7604.46490094596
35,104,3,443,-0.5,0.5,-0.5,4,4,0.4,4,939,1,0,939,0,0,0.2,0.6,2.23127999665421,2.23127999665421,750,1,0,congruent,0,3072.9067829211,2645.33880583745
35,104,3,444,-0.5,0.5,0,3,NaN,0.2,3,567,1,1,567,1,0,0.2,0.4,-0.571719203935324,-0.571719203935324,750,0,0,neutral,0.1,2408.37659273747,3220.27333656656
35,104,3,445,-0.5,-0.5,-0.5,2,2,0.4,2,383,1,1,383,0,0,0.4,0.2,-1.95814891605488,-1.95814891605488,750,1,0,congruent,0,4042.91738429314,3783.42285734803
35,104,3,447,0.5,0.5,-0.5,2,2,0.4,2,672,1,1,672,1,0,0.2,NaN,0.219449925263336,0.219449925263336,750,1,0,congruent,1,2583.76245497218,5301.17462708279
35,104,3,449,0.5,-0.5,0.5,1,2,0.4,1,764,1,0,764,1,0,0.6,NaN,0.912664781323114,0.912664781323114,750,0,0,incongruent,1,12803.8818777977,3091.80990887777
35,104,3,450,-0.5,-0.5,0,3,NaN,0.4,3,569,1,1,569,0,0,0.8,0,-0.556649315760111,-0.556649315760111,750,0,0,neutral,0,3201.41610071229,1127.13309187256
35,104,4,451,0.5,-0.5,-0.5,4,4,0.4,4,637,1,1,637,0,0,0.8,NaN,-0.044273117802884,-0.044273117802884,750,1,0,congruent,0,1102.78136357432,3585.05517975522
35,104,4,452,0.5,-0.5,-0.5,2,2,0.4,2,583,1,1,583,1,0,0.8,NaN,-0.451160098533623,-0.451160098533623,750,1,0,congruent,1,7517.22148371548,4417.40634382053
35,104,4,453,0.5,-0.5,-0.5,1,1,0.4,1,531,1,1,531,1,0,0.8,NaN,-0.84297719108915,-0.84297719108915,750,1,0,congruent,1,1759.7459261312,2842.11003124113
35,104,4,456,-0.5,0.5,0,1,NaN,0.2,1,546,1,1,546,1,0,0.8,0.4,-0.729953029775055,-0.729953029775055,750,0,0,neutral,0.1,3566.13067064737,3850.60785990421
35,104,4,457,-0.5,0.5,-0.5,2,2,0.4,2,611,1,1,611,1,0,1,0.4,-0.240181664080647,-0.240181664080647,750,1,0,congruent,0.1,4050.69106937951,3409.0919141522
35,104,4,459,-0.5,-0.5,0.5,2,4,0.4,4,796,0,0,NaN,0,0,0.4,0,1.15378299212651,NaN,750,1,0,incongruent,0,2043.7985309837,4018.13274498336
35,104,4,461,0.5,-0.5,-0.5,4,4,0.4,4,633,1,1,633,0,0,0.4,NaN,-0.0744128941533091,-0.0744128941533091,750,1,0,congruent,0,4492.84063296555,2346.64618133306
35,104,4,462,0.5,-0.5,-0.5,1,1,0.4,4,526,0,1,NaN,0,0,0.2,NaN,-0.880651911527181,NaN,750,0,1,congruent,0,4831.24905377642,6351.87815711382
35,104,4,463,0.5,0.5,0.5,2,4,0.4,4,681,0,1,NaN,0,0,0,NaN,0.287264422051792,NaN,750,1,0,incongruent,0,1720.13162243705,5759.0880188779
35,104,4,464,-0.5,-0.5,0.5,1,3,0.4,3,787,0,0,NaN,1,0,0,0,1.08596849533806,NaN,750,1,0,incongruent,0.1,8662.87881634586,21509.5008256656
35,104,4,465,-0.5,-0.5,0,3,NaN,0.4,3,762,1,0,762,0,0,0.2,0.2,0.897594893147901,0.897594893147901,750,0,0,neutral,0,3289.85095198146,5184.76835875495
35,104,4,468,0.5,0.5,-0.5,4,4,0.6,4,570,1,1,570,1,0,0.6,NaN,-0.549114371672505,-0.549114371672505,750,1,0,congruent,1,1434.6476953367,5046.38196267376
35,104,4,469,0.5,0.5,0,2,NaN,0.8,1,866,0,0,NaN,0,0,1,NaN,1.68122907825895,NaN,750,0,1,neutral,0,1784.4460585278,9249.79180827655
35,104,4,470,-0.5,0.5,-0.5,1,1,0.6,1,344,1,1,344,1,0,0.8,0.6,-2.25201173547152,-2.25201173547152,750,1,0,congruent,0.1,2719.00294650753,5613.30556970978
35,104,4,472,-0.5,0.5,0.5,2,1,0.6,1,639,0,1,NaN,0,0,0.8,0.8,-0.0292032296276714,NaN,750,1,0,incongruent,0,2149.35416490003,2775.83557832525
35,104,4,473,0.5,0.5,-0.5,4,4,0.4,4,533,1,1,533,1,0,0.6,NaN,-0.827907302913937,-0.827907302913937,750,1,0,congruent,1,1671.75638268141,3597.72920212854
35,104,4,474,0.5,0.5,-0.5,1,1,0.4,1,703,1,1,703,1,0,0.6,NaN,0.453033191979131,0.453033191979131,750,1,0,congruent,1,5568.35384475817,4752.54417773756
35,104,4,475,0.5,-0.5,0,4,NaN,0.6,4,685,1,1,685,1,0,1,NaN,0.317404198402217,0.317404198402217,750,0,0,neutral,1,7987.18463601658,1890.92949380378
35,104,4,477,0.5,0.5,0.5,4,3,0.4,3,552,0,1,NaN,0,0,1.2,NaN,-0.684743365249418,NaN,750,1,0,incongruent,0,19308.109320255,6188.72391828843
35,104,4,478,0.5,-0.5,0,1,NaN,0.4,1,655,1,1,655,1,0,1.2,NaN,0.0913558757740291,0.0913558757740291,750,0,0,neutral,1,2050.54584978112,21265.5471584844
35,104,4,482,-0.5,0.5,-0.5,1,1,0.4,1,624,1,1,624,1,0,0.4,0.4,-0.142227390941766,-0.142227390941766,750,1,0,congruent,0.1,4256.3092623102,6149.09618030742
35,104,4,483,0.5,-0.5,0,3,NaN,0.4,2,626,0,1,NaN,1,0,0.6,NaN,-0.127157502766553,NaN,750,0,1,neutral,1,8330.24323560505,5116.43516009125
35,104,4,485,-0.5,-0.5,-0.5,1,1,0.4,1,866,1,0,866,0,0,1,0.4,1.68122907825895,1.68122907825895,750,1,0,congruent,0,3074.60104371737,5256.59324508848
35,104,4,486,-0.5,-0.5,0.5,4,2,0.4,2,655,0,1,NaN,0,0,1,0.2,0.0913558757740291,NaN,750,1,0,incongruent,0,6383.65569766798,3075.70237428066
35,104,4,487,-0.5,0.5,-0.5,1,1,0.4,1,858,1,0,858,0,0,1,0.4,1.6209495255581,1.6209495255581,750,1,0,congruent,0,4178.65317999081,3128.11989511339
35,104,4,489,0.5,0.5,-0.5,3,3,0.4,3,670,1,1,670,1,0,0.6,NaN,0.204380037088123,0.204380037088123,750,1,0,congruent,1,2457.01222713313,5937.38988319038
35,104,4,490,0.5,-0.5,0,1,NaN,0.6,1,521,1,1,521,0,0,0.6,NaN,-0.918326631965212,-0.918326631965212,750,0,0,neutral,0,12987.5279657406,9456.99174596933
35,104,4,491,-0.5,0.5,-0.5,4,4,0.6,3,510,0,1,NaN,0,0,0.6,0.2,-1.00121101692888,NaN,750,0,1,congruent,0,15634.6498186451,11842.8016024886
35,104,4,492,0.5,0.5,0.5,2,3,0.6,3,605,0,1,NaN,0,0,0.6,NaN,-0.285391328606285,NaN,750,1,0,incongruent,0,4946.73847505864,2922.58247173714
35,104,4,494,0.5,-0.5,-0.5,2,2,0.4,2,810,1,0,810,0,0,0.8,NaN,1.259272209353,1.259272209353,750,1,0,congruent,0,6383.62329951499,6487.06069668065
35,104,4,495,0.5,-0.5,-0.5,3,3,0.4,4,860,0,0,NaN,0,0,0.4,NaN,1.63601941373332,NaN,750,0,1,congruent,0,10562.0512793997,7267.37541203664
35,104,4,497,-0.5,0.5,0,4,NaN,0.4,1,540,0,1,NaN,0,0,0.4,0.2,-0.775162694300693,NaN,750,0,1,neutral,0,11698.4374837591,3765.67213815859
35,104,4,498,0.5,0.5,0.5,1,2,0.2,1,582,1,1,582,1,0,0.4,NaN,-0.458695042621229,-0.458695042621229,750,0,0,incongruent,1,4639.5832635043,2744.19046950158
35,104,4,500,0.5,0.5,0,3,NaN,0.4,3,870,1,0,870,0,0,0.6,NaN,1.71136885460938,1.71136885460938,750,0,0,neutral,0,9265.87920400184,2574.66956688126
35,104,4,501,-0.5,0.5,-0.5,4,4,0.2,4,742,1,1,742,1,0,0.6,0.2,0.746896011395775,0.746896011395775,750,1,0,congruent,0.1,2385.15173842385,2808.66744226084
35,104,4,504,-0.5,0.5,-0.5,4,4,0.4,4,636,1,1,636,1,0,0.8,0.4,-0.0518080618904903,-0.0518080618904903,750,1,0,congruent,0.1,1876.82666986787,2411.66164050834
35,104,4,506,0.5,0.5,0,3,NaN,0.6,3,572,1,1,572,1,0,1,NaN,-0.534044483497292,-0.534044483497292,750,0,0,neutral,1,4111.89618240318,2405.23328126194
35,104,4,507,0.5,0.5,0.5,2,1,0.8,2,702,1,1,702,1,0,1.2,NaN,0.445498247891524,0.445498247891524,750,0,0,incongruent,1,10683.1119409354,1981.87006178452
35,104,4,510,0.5,0.5,-0.5,2,2,0.8,2,531,1,1,531,1,0,1.4,NaN,-0.84297719108915,-0.84297719108915,750,1,0,congruent,1,6188.42184637614,3401.73476623122
35,104,4,513,0.5,0.5,0,4,NaN,0.8,4,621,1,1,621,1,0,1,NaN,-0.164832223204584,-0.164832223204584,750,0,0,neutral,1,4700.68148910649,2231.27686581465
35,104,4,514,-0.5,0.5,-0.5,2,2,0.8,2,555,1,1,555,1,0,1.2,0.4,-0.662138532986599,-0.662138532986599,750,1,0,congruent,0.1,5271.68938628876,14892.5506361235
35,104,4,515,0.5,-0.5,0,4,NaN,0.8,4,557,1,1,557,1,0,1.2,NaN,-0.647068644811386,-0.647068644811386,750,0,0,neutral,1,10128.6234907715,10528.4036787714
35,104,4,516,0.5,-0.5,-0.5,1,1,0.8,1,579,1,1,579,1,0,1.2,NaN,-0.481299874884048,-0.481299874884048,750,1,0,congruent,1,2411.46702898398,2366.46301787036
35,104,4,518,-0.5,0.5,-0.5,4,4,0.6,4,509,1,1,509,1,0,1.4,0.6,-1.00874596101649,-1.00874596101649,750,1,0,congruent,0.1,9782.94089391267,2755.51067000458
35,104,4,520,0.5,0.5,0.5,2,4,0.6,4,634,0,1,NaN,0,0,1.2,NaN,-0.0668779500657028,NaN,750,1,0,incongruent,0,5598.15543408547,3912.71079740256
35,104,4,523,-0.5,0.5,-0.5,3,3,0.4,3,706,1,1,706,1,0,0.4,0.4,0.475638024241949,0.475638024241949,750,1,0,congruent,0.1,5643.68701954539,9340.66209924827
35,104,4,525,0.5,0.5,0,4,NaN,0.4,4,503,1,1,503,1,0,0.6,NaN,-1.05395562554213,-1.05395562554213,750,0,0,neutral,1,7970.97153206918,2718.60638795434
35,104,4,527,0.5,0.5,0,3,NaN,0.6,3,626,1,1,626,1,0,1.4,NaN,-0.127157502766553,-0.127157502766553,750,0,0,neutral,1,9297.97692334364,1486.24020919261
35,104,4,528,-0.5,0.5,-0.5,4,4,0.8,4,548,1,1,548,1,0,1.8,0.6,-0.714883141599843,-0.714883141599843,750,1,0,congruent,0.1,16372.925362196,1530.81905313851
35,104,4,529,0.5,-0.5,0,1,NaN,1,1,694,1,1,694,1,0,1.8,NaN,0.385218695190674,0.385218695190674,750,0,0,neutral,1,3423.48106319306,3393.40721220872
35,104,4,531,0.5,0.5,0,1,NaN,0.8,1,617,1,1,617,1,0,1.4,NaN,-0.19497199955501,-0.19497199955501,750,0,0,neutral,1,11380.1936916081,7525.20439981687
35,104,4,535,0.5,0.5,0,2,NaN,0.8,2,432,1,1,432,1,0,1,NaN,-1.58893665576217,-1.58893665576217,750,0,0,neutral,1,8706.25497623336,2555.2280248694
35,104,4,536,0.5,-0.5,-0.5,1,1,0.8,1,645,1,1,645,0,0,1.4,NaN,0.0160064348979662,0.0160064348979662,750,1,0,congruent,0,9213.81366487104,8995.97017862592
35,104,4,537,0.5,-0.5,0.5,3,4,0.8,2,906,0,0,NaN,1,0,1,NaN,1.98262684176321,NaN,750,0,1,incongruent,1,3337.16966218679,1522.83614948413
35,104,4,538,-0.5,-0.5,0,4,NaN,0.8,4,369,1,1,369,1,0,1,0.6,-2.06363813328137,-2.06363813328137,750,0,0,neutral,0.1,2197.87910697216,4647.07486256788
35,104,4,539,-0.5,-0.5,-0.5,3,3,0.8,3,662,1,1,662,1,0,1,0.6,0.144100484387273,0.144100484387273,750,1,0,congruent,0.1,18738.2570461757,2439.43940038939
35,104,4,541,0.5,0.5,0.5,1,3,0.8,3,619,0,1,NaN,0,0,0.8,NaN,-0.179902111379797,NaN,750,1,0,incongruent,0,1111.23982885358,8193.79633073985
35,104,4,542,0.5,0.5,0.5,4,1,0.6,1,884,0,0,NaN,0,0,0.8,NaN,1.81685807183587,NaN,750,1,0,incongruent,0,3220.39224943782,4866.2336924288
35,104,4,545,-0.5,-0.5,0.5,1,4,0.4,1,571,1,1,571,0,0,0,0.6,-0.541579427584898,-0.541579427584898,750,0,0,incongruent,0,1718.02336449939,1307.26888536943
35,104,4,546,0.5,-0.5,0,2,NaN,0.4,2,624,1,1,624,1,0,0,NaN,-0.142227390941766,-0.142227390941766,750,0,0,neutral,1,1408.3324609651,5622.40156712378
35,104,4,548,-0.5,-0.5,0.5,1,2,0.4,2,466,0,1,NaN,0,0,0.4,0.4,-1.33274855678356,NaN,750,1,0,incongruent,0,616.639702928515,4034.93481656213
35,104,4,550,-0.5,0.5,-0.5,1,1,0.4,1,460,1,1,460,1,0,0.6,0.6,-1.3779582213092,-1.3779582213092,750,1,0,congruent,0.1,3330.19385314722,2345.15289919094
35,104,4,551,0.5,-0.5,0.5,3,2,0.6,2,499,0,1,NaN,1,0,0.8,NaN,-1.08409540189255,NaN,750,1,0,incongruent,1,3405.51123599292,6466.21784179974
35,104,4,553,0.5,0.5,0,1,NaN,0.6,1,534,1,1,534,1,0,1,NaN,-0.820372358826331,-0.820372358826331,750,0,0,neutral,1,2266.80437871482,2332.19954546367
35,104,4,555,-0.5,0.5,0,4,NaN,0.6,4,656,1,1,656,1,0,1.4,0.8,0.0988908198616353,0.0988908198616353,750,0,0,neutral,0.1,3691.17816479805,4219.78527637567
35,104,4,556,-0.5,0.5,-0.5,2,2,0.6,2,391,1,1,391,1,0,1.4,0.8,-1.89786936335403,-1.89786936335403,750,1,0,congruent,0.1,3593.47403759105,3395.4187249534
35,104,4,558,0.5,0.5,-0.5,4,4,0.8,4,650,1,1,650,1,0,1.2,NaN,0.0536811553359976,0.0536811553359976,750,1,0,congruent,1,7290.59829791781,1632.65610983728
35,104,4,560,0.5,-0.5,0,4,NaN,0.8,1,780,0,0,NaN,1,0,1,NaN,1.03322388672481,NaN,750,0,1,neutral,1,2418.54005111046,2914.35427398531
35,104,4,561,0.5,-0.5,-0.5,3,3,0.8,1,676,0,1,NaN,1,0,1.2,NaN,0.249589701613761,NaN,750,0,1,congruent,1,5974.23982266187,11013.7637820097
35,104,4,562,0.5,-0.5,0.5,4,2,0.8,2,261,0,1,NaN,0,0,1.4,NaN,-2.87741209474285,NaN,750,1,0,incongruent,0,2135.4443421667,917.331253093362
35,104,4,563,0.5,0.5,0,3,NaN,0.8,3,565,1,1,565,1,0,1.2,NaN,-0.586789092110536,-0.586789092110536,750,0,0,neutral,1,8515.21006400896,5985.46395282642
35,104,4,567,-0.5,0.5,-0.5,4,4,0.6,4,448,1,1,448,1,0,0.6,0.6,-1.46837755036047,-1.46837755036047,750,1,0,congruent,0.1,3172.17696307971,2841.15864746325
35,104,4,569,-0.5,-0.5,0.5,2,4,0.6,4,770,0,0,NaN,1,0,0.8,0.8,0.957874445848751,NaN,750,1,0,incongruent,0.1,4511.1795984568,9518.31587988682
35,104,4,570,0.5,0.5,0,1,NaN,0.6,1,807,1,0,807,0,0,1,NaN,1.23666737709018,1.23666737709018,750,0,0,neutral,0,1978.81499533039,8262.26987362878
35,104,4,571,0.5,0.5,-0.5,3,3,0.4,4,650,0,1,NaN,0,0,1,NaN,0.0536811553359976,NaN,750,0,1,congruent,0,7440.82590318287,506.100722388101
35,104,4,572,-0.5,0.5,0.5,1,2,0.4,2,508,0,1,NaN,0,0,0.8,0.6,-1.01628090510409,NaN,750,1,0,incongruent,0,6000.1568412217,4211.98365729184
35,104,4,573,0.5,-0.5,0,4,NaN,0.2,4,462,1,1,462,0,0,0.6,NaN,-1.36288833313398,-1.36288833313398,750,0,0,neutral,0,4008.35619248634,2200.97294942791
35,104,4,574,0.5,-0.5,-0.5,1,1,0.2,2,510,0,1,NaN,0,0,0.2,NaN,-1.00121101692888,NaN,750,0,1,congruent,0,21048.0620556873,2265.06279246401
35,104,4,575,0.5,0.5,0.5,4,3,0.2,3,843,0,0,NaN,0,0,0,NaN,1.50792536424401,NaN,750,1,0,incongruent,0,7561.18164708966,4862.13856736464
35,104,4,578,0.5,0.5,-0.5,2,2,0,2,624,1,1,624,1,0,0.2,NaN,-0.142227390941766,-0.142227390941766,750,1,0,congruent,1,4021.98231614328,4624.88155653023
35,104,4,579,0.5,0.5,0,1,NaN,0.2,4,485,0,1,NaN,0,0,0.6,NaN,-1.18958461911904,NaN,750,0,1,neutral,0,12552.1621139212,1088.60102465893
35,104,4,580,0.5,0.5,0.5,2,4,0.2,4,563,0,1,NaN,0,0,0.6,NaN,-0.601858980285749,NaN,750,1,0,incongruent,0,5726.03160562057,2657.97643616467
35,104,4,582,0.5,0.5,0.5,3,2,0.2,2,597,0,1,NaN,0,0,0.6,NaN,-0.345670881307135,NaN,750,1,0,incongruent,0,4988.77001464724,4402.89199948178
35,104,4,583,0.5,0.5,-0.5,1,1,0.2,1,670,1,1,670,1,0,0.6,NaN,0.204380037088123,0.204380037088123,750,1,0,congruent,1,4698.69404459533,3544.53020493586
35,104,4,584,-0.5,0.5,-0.5,2,2,0.4,2,540,1,1,540,1,0,0.6,0.2,-0.775162694300693,-0.775162694300693,750,1,0,congruent,0.1,9516.96913446009,11850.1985515286
35,104,4,586,0.5,-0.5,-0.5,1,1,0.4,1,985,1,0,985,0,0,0.8,NaN,2.5778874246841,2.5778874246841,750,1,0,congruent,0,3583.78580532836,4108.06067576196
35,104,4,588,0.5,0.5,0.5,4,1,0.4,1,773,0,0,NaN,0,0,0.6,NaN,0.98047927811157,NaN,750,1,0,incongruent,0,8567.23375613711,6991.77442142213
35,104,4,589,0.5,-0.5,0.5,2,4,0.4,1,475,0,1,NaN,0,0,0.2,NaN,-1.2649340599951,NaN,750,0,1,incongruent,0,13729.581039374,4896.16464271139
35,104,4,590,0.5,0.5,0,3,NaN,0.4,3,797,1,0,797,0,0,0,NaN,1.16131793621412,1.16131793621412,750,0,0,neutral,0,4815.76890519194,1343.97817140992
35,104,4,591,-0.5,0.5,-0.5,1,1,0.4,1,560,1,1,560,1,0,0,0.4,-0.624463812548568,-0.624463812548568,750,1,0,congruent,0.1,8841.40104153852,2215.92133952956
35,104,4,592,0.5,-0.5,-0.5,2,2,0.4,2,602,1,1,602,1,0,0.2,NaN,-0.307996160869104,-0.307996160869104,750,1,0,congruent,1,1274.98788320785,5560.13320143571
35,104,4,593,-0.5,0.5,0,1,NaN,0.4,1,583,1,1,583,1,0,0.6,0.4,-0.451160098533623,-0.451160098533623,750,0,0,neutral,0.1,2996.34009026721,3333.94700041435
35,104,4,594,0.5,-0.5,-0.5,3,3,0.4,3,480,1,1,480,0,0,0.8,NaN,-1.22725933955707,-1.22725933955707,750,1,0,congruent,0,2988.4567088037,5053.54447338774
35,104,4,596,-0.5,0.5,-0.5,1,1,0.4,1,612,1,1,612,1,0,0.8,0.6,-0.232646719993041,-0.232646719993041,750,1,0,congruent,0.1,11396.2314172498,6079.13299883979
35,104,4,597,0.5,-0.5,-0.5,4,4,0.6,2,825,0,0,NaN,1,0,0.8,NaN,1.3722963706671,NaN,750,0,1,congruent,1,2466.45458054637,1517.6926945208
35,104,4,598,-0.5,0.5,-0.5,3,3,0.6,3,726,1,1,726,1,0,0.8,0.8,0.626336905994075,0.626336905994075,750,1,0,congruent,0.1,4624.04500091228,4317.44773765664
35,104,4,599,0.5,0.5,-0.5,2,2,0.8,1,335,0,1,NaN,0,0,0.8,NaN,-2.31982623225998,NaN,750,0,1,congruent,0,2154.08083731558,2793.25857462548
35,104,4,600,-0.5,-0.5,-0.5,4,4,0.6,4,578,1,1,578,1,0,0.8,0.8,-0.488834818971654,-0.488834818971654,750,1,0,congruent,0.1,5856.10682711628,3945.17503616192
