subid,vers,block,trial,rewlvl,efflvl,congruency,targetresp,distractorresp,rollingefflvl,resp,rt,acc,fast,accrt,isrewarded,ismiss,runavgrrgen,runavgrrcond,zrt,acczrt,rtthreshold,isdisterror,isranderror,congruence,feedback,fcz_resp_theta,fcz_resp_theta_baseline
37,104,1,1,0.5,0.5,0.5,3,2,0.7,4,737,0,1,NaN,0,0,0,NaN,1.6182504632575,NaN,750,0,1,incongruent,0,7852.55780458423,513.335808959039
37,104,1,2,0.5,0.5,0,2,NaN,0.6,2,606,1,1,606,1,0,0,NaN,0.582990919795893,0.582990919795893,750,0,0,neutral,1,667.228901668498,1346.33010796016
37,104,1,3,0.5,0.5,-0.5,1,1,0.6,1,523,1,1,523,1,0,0.4,NaN,-0.0729368825500131,-0.0729368825500131,750,1,0,congruent,1,785.481888699945,2009.79495643422
37,104,1,4,0.5,-0.5,0.5,4,3,0.7,4,584,1,1,584,1,0,0.8,NaN,0.409130538451195,0.409130538451195,750,0,0,incongruent,1,3524.13171153136,700.116017597434
37,104,1,5,-0.5,0.5,0.5,2,1,0.7,2,467,1,1,467,1,0,1.2,0,-0.515490580518335,-0.515490580518335,750,0,0,incongruent,0.1,1833.56804432465,562.161364735478
37,104,1,6,0.5,-0.5,-0.5,3,3,0.7,3,452,1,1,452,1,0,1.4,NaN,-0.634031749616993,-0.634031749616993,750,1,0,congruent,1,819.871902244661,1015.10841244484
37,104,1,7,-0.5,-0.5,0.5,4,1,0.7,4,458,1,1,458,0,0,1.8,0,-0.58661528197753,-0.58661528197753,750,0,0,incongruent,0,1743.29104245413,1342.28647622708
37,104,1,8,-0.5,0.5,-0.5,3,3,0.7,3,534,1,1,534,1,0,1.4,0.2,0.0139933081223358,0.0139933081223358,750,1,0,congruent,0.1,2846.60423377091,1803.05823198729
37,104,1,9,0.5,-0.5,0.5,4,2,0.8,4,574,1,1,574,1,0,1.2,NaN,0.330103092385423,0.330103092385423,750,0,0,incongruent,1,783.179068338698,1109.51039155649
37,104,1,10,-0.5,0.5,0,2,NaN,0.8,2,456,1,1,456,1,0,1.2,0.4,-0.602420771190684,-0.602420771190684,750,0,0,neutral,0.1,1440.67171803519,4870.62325100408
37,104,1,11,-0.5,-0.5,-0.5,3,3,1,4,590,0,1,NaN,1,0,1.2,0,0.456547006090658,NaN,750,0,1,congruent,0.1,4114.71803822167,1203.98049216509
37,104,1,12,-0.5,-0.5,-0.5,4,4,1,4,588,1,1,588,1,0,1,0.2,0.440741516877503,0.440741516877503,750,1,0,congruent,0.1,2252.78615058623,552.570172738947
37,104,1,13,-0.5,0.5,-0.5,1,1,1,1,368,1,1,368,1,0,1.2,0.6,-1.29786229656948,-1.29786229656948,750,1,0,congruent,0.1,890.835923995262,1681.58775302925
37,104,1,14,0.5,-0.5,0,4,NaN,1,4,608,1,1,608,1,0,1.2,NaN,0.598796409009047,0.598796409009047,750,0,0,neutral,1,1294.42362384888,4373.5406395248
37,104,1,15,-0.5,0.5,0.5,2,1,1,2,597,1,1,597,1,0,1.2,0.8,0.511866218336698,0.511866218336698,750,0,0,incongruent,0.1,2656.462127082,867.963741981601
37,104,1,16,-0.5,0.5,-0.5,3,3,1,3,333,1,1,333,1,0,1.2,1,-1.57445835779968,-1.57445835779968,750,1,0,congruent,0.1,987.584954272001,1333.02128412254
37,104,1,17,0.5,-0.5,0.5,2,4,1,2,745,1,1,745,1,0,1.2,NaN,1.68147242011012,1.68147242011012,750,0,0,incongruent,1,1791.41848148937,3396.93148561327
37,104,1,18,-0.5,0.5,-0.5,3,3,1,3,891,1,0,891,0,0,1.4,1,2.83527313267039,2.83527313267039,750,1,0,congruent,0,3326.27762267913,1078.19168101978
37,104,1,19,-0.5,-0.5,0,1,NaN,0.8,1,591,1,1,591,1,0,1.2,0.4,0.464449750697235,0.464449750697235,750,0,0,neutral,0.1,2387.74474512257,1243.57044849468
37,104,1,20,-0.5,0.5,-0.5,4,4,0.8,4,408,1,1,408,1,0,1,0.8,-0.981752512306388,-0.981752512306388,750,1,0,congruent,0.1,1796.53307948736,659.066343385524
37,104,1,22,0.5,0.5,0.5,1,4,0.6,1,939,1,0,939,0,0,0.8,NaN,3.21460487378609,3.21460487378609,750,0,0,incongruent,0,1380.1667862149,2635.20080040445
37,104,1,23,0.5,-0.5,-0.5,3,3,0.4,3,641,1,1,641,0,0,0.4,NaN,0.859586981026094,0.859586981026094,750,1,0,congruent,0,1798.17047463874,1944.76416462453
37,104,1,24,-0.5,0.5,0.5,1,4,0.4,1,522,1,1,522,1,0,0.4,0.6,-0.0808396271565903,-0.0808396271565903,750,0,0,incongruent,0.1,2270.37085603527,1085.53586272663
37,104,1,25,-0.5,0.5,-0.5,3,3,0.4,3,692,1,1,692,1,0,0.4,0.6,1.26262695596153,1.26262695596153,750,1,0,congruent,0.1,1333.61711151294,2936.95016544497
37,104,1,26,0.5,-0.5,0.5,1,2,0.6,1,483,1,1,483,0,0,0.4,NaN,-0.3890466668131,-0.3890466668131,750,0,0,incongruent,0,212.974486161824,1438.32794446835
37,104,1,27,-0.5,-0.5,-0.5,4,4,0.6,4,529,1,1,529,0,0,0.4,0.6,-0.0255204149105501,-0.0255204149105501,750,1,0,congruent,0,1786.04869085172,929.331679147697
37,104,1,28,0.5,-0.5,0.5,3,2,0.6,3,567,1,1,567,0,0,0.4,NaN,0.274783880139383,0.274783880139383,750,0,0,incongruent,0,3524.42487596225,880.357395660058
37,104,1,29,0.5,0.5,-0.5,4,4,0.6,4,710,1,1,710,1,0,0.4,NaN,1.40487635887992,1.40487635887992,750,1,0,congruent,1,4272.3620184652,2749.1838264958
37,104,1,30,0.5,0.5,0.5,3,1,0.6,2,820,0,0,NaN,0,0,0.6,NaN,2.27417826560341,NaN,750,0,1,incongruent,0,1666.07935504838,3246.99581307462
37,104,1,31,0.5,-0.5,0.5,2,3,0.6,2,586,1,1,586,0,0,0.4,NaN,0.424936027664349,0.424936027664349,750,0,0,incongruent,0,1564.51989593956,932.312713963642
37,104,1,32,0.5,0.5,0.5,3,2,0.6,3,654,1,1,654,1,0,0.4,NaN,0.962322660911597,0.962322660911597,750,0,0,incongruent,1,3013.58556017595,1182.00287636631
37,104,1,33,0.5,-0.5,-0.5,4,4,0.8,4,631,1,1,631,1,0,0.8,NaN,0.780559534960322,0.780559534960322,750,1,0,congruent,1,766.781651170744,1260.06322523783
37,104,1,34,0.5,-0.5,-0.5,3,3,0.8,3,637,1,1,637,1,0,1.2,NaN,0.827976002599785,0.827976002599785,750,1,0,congruent,1,1874.65478440192,519.472055852947
37,104,1,35,-0.5,-0.5,0.5,2,1,0.8,2,538,1,1,538,1,0,1.2,0.6,0.0456042865486445,0.0456042865486445,750,0,0,incongruent,0.1,2126.69473113145,4347.29737265421
37,104,1,36,-0.5,-0.5,0.5,1,2,0.8,1,871,1,0,871,1,0,1.4,0.8,2.67721824053884,2.67721824053884,750,0,0,incongruent,0.1,1891.18724086629,2303.53602500465
37,104,1,37,-0.5,-0.5,0,2,NaN,0.8,2,596,1,1,596,1,0,1.6,0.8,0.503963473730121,0.503963473730121,750,0,0,neutral,0.1,654.399924621331,1779.83533249153
37,104,1,38,0.5,0.5,-0.5,1,1,0.8,1,464,1,1,464,1,0,1.4,NaN,-0.539198814338066,-0.539198814338066,750,1,0,congruent,1,1811.74038379258,1391.64682940951
37,104,1,39,-0.5,0.5,-0.5,3,3,0.8,3,611,1,1,611,1,0,1.4,0.6,0.622504642828778,0.622504642828778,750,1,0,congruent,0.1,2660.82218722946,1173.93410978771
37,104,1,40,0.5,-0.5,0,1,NaN,0.8,1,396,1,1,396,1,0,1.2,NaN,-1.07658544758531,-1.07658544758531,750,0,0,neutral,1,3520.16794355372,1645.16240483446
37,104,1,41,0.5,0.5,-0.5,3,3,0.8,3,628,1,1,628,1,0,1.4,NaN,0.75685130114059,0.75685130114059,750,1,0,congruent,1,891.069801584879,5277.21510953209
37,104,1,42,-0.5,-0.5,0,1,NaN,0.8,1,510,1,1,510,1,0,1.6,0.8,-0.175672562435516,-0.175672562435516,750,0,0,neutral,0.1,2653.19127918519,1364.24788675853
37,104,1,43,-0.5,-0.5,-0.5,3,3,0.8,3,340,1,1,340,1,0,1.6,0.8,-1.51913914555364,-1.51913914555364,750,1,0,congruent,0.1,1962.80779394287,977.700715637098
37,104,1,44,-0.5,-0.5,-0.5,2,2,0.8,2,437,1,1,437,1,0,1.4,1,-0.75257291871565,-0.75257291871565,750,1,0,congruent,0.1,972.772054921278,1553.05312086263
37,104,1,45,0.5,-0.5,0,3,NaN,0.8,3,500,1,1,500,0,0,1.4,NaN,-0.254700008501288,-0.254700008501288,750,0,0,neutral,0,1312.13737651627,1150.27347707331
37,104,1,46,-0.5,-0.5,-0.5,4,4,0.8,4,311,1,1,311,1,0,1,1,-1.74831873914437,-1.74831873914437,750,1,0,congruent,0.1,2958.70118865672,643.003021886797
37,104,1,47,0.5,0.5,-0.5,1,1,0.8,1,422,1,1,422,1,0,0.8,NaN,-0.871114087814308,-0.871114087814308,750,1,0,congruent,1,1497.86406267836,442.406677147743
37,104,1,48,-0.5,-0.5,0,4,NaN,1,4,517,1,1,517,1,0,1,1,-0.120353350189476,-0.120353350189476,750,0,0,neutral,0.1,714.71947861167,1893.57811919346
37,104,1,49,-0.5,-0.5,0.5,3,4,1,3,465,1,1,465,1,0,1,1,-0.531296069731489,-0.531296069731489,750,0,0,incongruent,0.1,2353.05090888329,858.386772162587
37,104,1,50,0.5,-0.5,-0.5,1,1,1,1,373,1,1,373,1,0,1,NaN,-1.25834857353659,-1.25834857353659,750,1,0,congruent,1,1734.21674920441,995.658382297882
37,104,1,51,-0.5,0.5,-0.5,4,4,1,4,397,1,1,397,1,0,1.4,0.8,-1.06868270297874,-1.06868270297874,750,1,0,congruent,0.1,2899.79671682141,300.961784464772
37,104,1,52,0.5,0.5,0.5,2,3,1,2,513,1,1,513,1,0,1.4,NaN,-0.151964328615785,-0.151964328615785,750,0,0,incongruent,1,2535.26033967421,2301.39217676807
37,104,1,53,0.5,0.5,0,1,NaN,1,1,452,1,1,452,1,0,1.4,NaN,-0.634031749616993,-0.634031749616993,750,0,0,neutral,1,1422.68662407385,704.167109415116
37,104,1,54,-0.5,-0.5,-0.5,2,2,1,3,435,0,1,NaN,1,0,1.6,1,-0.768378407928805,NaN,750,0,1,congruent,0.1,1615.20064652981,664.158013735675
37,104,1,55,-0.5,-0.5,0,1,NaN,1,1,545,1,1,545,1,0,1.6,1,0.100923498794685,0.100923498794685,750,0,0,neutral,0.1,1857.3090773376,2806.33336899056
37,104,1,56,-0.5,-0.5,-0.5,4,4,1,4,471,1,1,471,1,0,1.4,1,-0.483879602092026,-0.483879602092026,750,1,0,congruent,0.1,779.097942566531,1119.41668104264
37,104,1,57,0.5,0.5,0,3,NaN,1,3,501,1,1,501,1,0,1.4,NaN,-0.246797263894711,-0.246797263894711,750,0,0,neutral,1,614.442317946941,1986.88875890472
37,104,1,58,0.5,0.5,-0.5,2,2,1,2,520,1,1,520,1,0,1.4,NaN,-0.0966451163697446,-0.0966451163697446,750,1,0,congruent,1,1031.16780466299,874.247447594518
37,104,1,59,-0.5,-0.5,0.5,3,1,1,3,520,1,1,520,1,0,1.4,1,-0.0966451163697446,-0.0966451163697446,750,0,0,incongruent,0.1,884.906733728644,1683.43656715439
37,104,1,60,0.5,-0.5,0.5,1,3,1,1,579,1,1,579,1,0,1.4,NaN,0.369616815418309,0.369616815418309,750,0,0,incongruent,1,867.779718122174,1275.92139251269
37,104,1,61,0.5,-0.5,-0.5,4,4,1,4,528,1,1,528,1,0,1.6,NaN,-0.0334231595171272,-0.0334231595171272,750,1,0,congruent,1,1879.0432051925,1705.78175469309
37,104,1,62,0.5,-0.5,0,2,NaN,1,2,498,1,1,498,1,0,1.8,NaN,-0.270505497714442,-0.270505497714442,750,0,0,neutral,1,4805.66242968111,476.530918535506
37,104,1,63,0.5,0.5,-0.5,3,3,1,3,993,1,0,993,0,0,1.8,NaN,3.64135308254126,3.64135308254126,750,1,0,congruent,0,1625.3163774152,863.726389837325
37,104,1,64,-0.5,0.5,0.5,2,1,0.8,1,532,0,1,NaN,0,0,1.4,0.8,-0.00181218109081852,NaN,750,1,0,incongruent,0,1161.27602135195,191.189195456154
37,104,1,65,-0.5,-0.5,-0.5,4,4,0.6,4,519,1,1,519,1,0,1.2,1,-0.104547860976322,-0.104547860976322,750,1,0,congruent,0.1,2854.52120644195,1782.91178146268
37,104,1,66,0.5,-0.5,0.5,1,2,0.6,2,542,0,1,NaN,1,0,1,NaN,0.0772152649749532,NaN,750,1,0,incongruent,1,1777.44918926748,751.639469720098
37,104,1,67,-0.5,0.5,0,4,NaN,0.6,4,659,1,1,659,1,0,1,0.8,1.00183638394448,1.00183638394448,750,0,0,neutral,0.1,1320.49275097851,845.141932471238
37,104,1,68,0.5,0.5,0.5,2,3,0.6,2,537,1,1,537,1,0,0.8,NaN,0.0377015419420674,0.0377015419420674,750,0,0,incongruent,1,1803.00410068032,1046.45392861278
37,104,1,69,0.5,0.5,-0.5,4,4,0.6,4,426,1,1,426,1,0,1.2,NaN,-0.839503109387999,-0.839503109387999,750,1,0,congruent,1,2158.63983829594,1232.75707323616
37,104,1,70,-0.5,0.5,0,2,NaN,0.6,2,423,1,1,423,1,0,1.6,0.8,-0.863211343207731,-0.863211343207731,750,0,0,neutral,0.1,1987.03063898121,1723.88795785987
37,104,1,71,-0.5,0.5,-0.5,3,3,0.8,4,492,0,1,NaN,0,0,1.6,0.8,-0.317921965353906,NaN,750,0,1,congruent,0,1412.03281525356,2233.35273885028
37,104,1,72,-0.5,0.5,0,2,NaN,0.8,2,521,1,1,521,1,0,1.2,0.6,-0.0887423717631675,-0.0887423717631675,750,0,0,neutral,0.1,3511.00305265722,818.687718972894
37,104,1,73,0.5,-0.5,0.5,1,4,0.8,2,656,0,1,NaN,1,0,1.2,NaN,0.978128150124751,NaN,750,0,1,incongruent,1,4135.83134737459,410.351274143054
37,104,1,74,0.5,0.5,0,2,NaN,0.8,2,552,1,1,552,1,0,1.2,NaN,0.156242711040725,0.156242711040725,750,0,0,neutral,1,405.852505640646,2503.9587508244
37,104,1,75,-0.5,0.5,-0.5,4,4,0.8,4,403,1,1,403,1,0,1.2,0.6,-1.02126623533927,-1.02126623533927,750,1,0,congruent,0.1,1189.12454194309,1305.67020880569
37,104,1,76,-0.5,0.5,0,3,NaN,0.8,4,585,0,1,NaN,0,0,1.2,0.8,0.417033283057772,NaN,750,0,1,neutral,0,7148.5688452027,1134.02554595813
37,104,1,77,0.5,-0.5,-0.5,4,4,0.6,4,595,1,1,595,1,0,1.2,NaN,0.496060729123544,0.496060729123544,750,1,0,congruent,1,1114.86884368597,1075.18977927235
37,104,1,78,0.5,0.5,-0.5,3,3,0.6,3,550,1,1,550,1,0,1.4,NaN,0.140437221827571,0.140437221827571,750,1,0,congruent,1,1551.93734989676,1024.74595900188
37,104,1,79,0.5,-0.5,0.5,2,1,0.8,2,642,1,1,642,1,0,1.4,NaN,0.867489725632671,0.867489725632671,750,0,0,incongruent,1,1679.96500660743,1121.02402902072
37,104,1,80,0.5,-0.5,-0.5,4,4,0.8,4,570,1,1,570,1,0,1.4,NaN,0.298492113959114,0.298492113959114,750,1,0,congruent,1,834.662362411007,1662.8863358485
37,104,1,81,0.5,0.5,0.5,3,1,0.8,2,699,0,1,NaN,0,0,1.6,NaN,1.31794616820757,NaN,750,0,1,incongruent,0,1892.84315141806,1064.01633268557
37,104,1,82,-0.5,0.5,0,2,NaN,0.6,2,513,1,1,513,1,0,1.6,0.6,-0.151964328615785,-0.151964328615785,750,0,0,neutral,0.1,2867.08411201509,1430.91947253874
37,104,1,83,0.5,-0.5,-0.5,4,4,0.6,4,566,1,1,566,1,0,1.4,NaN,0.266881135532805,0.266881135532805,750,1,0,congruent,1,1408.90228594023,438.385471779964
37,104,1,84,0.5,0.5,-0.5,1,1,0.6,1,736,1,1,736,1,0,1.4,NaN,1.61034771865093,1.61034771865093,750,1,0,congruent,1,1615.05146148282,1021.85086605126
37,104,1,85,0.5,-0.5,0.5,2,4,0.6,2,341,1,1,341,0,0,1.4,NaN,-1.51123640094706,-1.51123640094706,750,0,0,incongruent,0,1686.41732564563,1241.25956560027
37,104,1,86,0.5,0.5,0.5,3,2,0.6,3,568,1,1,568,1,0,1,NaN,0.28268662474596,0.28268662474596,750,0,0,incongruent,1,2949.97630773764,1882.31819261729
37,104,1,87,0.5,-0.5,0,4,NaN,0.8,4,449,1,1,449,1,0,1.4,NaN,-0.657739983436724,-0.657739983436724,750,0,0,neutral,1,1040.70557311244,587.567142807226
37,104,1,88,-0.5,-0.5,-0.5,3,3,0.8,3,538,1,1,538,1,0,1.6,1,0.0456042865486445,0.0456042865486445,750,1,0,congruent,0.1,1529.4334387346,1165.1707627985
37,104,1,89,-0.5,-0.5,0,2,NaN,0.8,2,411,1,1,411,1,0,1.4,1,-0.958044278486657,-0.958044278486657,750,0,0,neutral,0.1,3217.38181453375,817.029442181344
37,104,1,90,-0.5,0.5,-0.5,1,1,0.8,1,356,1,1,356,1,0,1.2,0.6,-1.3926952318484,-1.3926952318484,750,1,0,congruent,0.1,3763.78248821656,1516.47470132672
37,104,1,91,-0.5,0.5,0,3,NaN,0.8,3,527,1,1,527,1,0,1.4,0.8,-0.0413259041237044,-0.0413259041237044,750,0,0,neutral,0.1,1162.53546619059,2900.77564387998
37,104,1,92,0.5,-0.5,-0.5,2,2,1,2,474,1,1,474,1,0,1.2,NaN,-0.460171368272295,-0.460171368272295,750,1,0,congruent,1,1577.92925361512,686.661259016698
37,104,1,93,0.5,0.5,-0.5,1,1,1,1,501,1,1,501,1,0,1.2,NaN,-0.246797263894711,-0.246797263894711,750,1,0,congruent,1,1103.32169720054,441.65674878321
37,104,1,94,-0.5,0.5,0.5,2,4,1,2,771,1,0,771,0,0,1.4,0.8,1.88694377988113,1.88694377988113,750,0,0,incongruent,0,537.326794253409,1520.36314573816
37,104,1,95,0.5,-0.5,-0.5,3,3,0.8,3,449,1,1,449,1,0,1.2,NaN,-0.657739983436724,-0.657739983436724,750,1,0,congruent,1,5025.53729416796,787.297913212518
37,104,1,96,0.5,-0.5,0,4,NaN,0.8,4,523,1,1,523,1,0,1.4,NaN,-0.0729368825500131,-0.0729368825500131,750,0,0,neutral,1,4789.2178244572,2235.10095003979
37,104,1,97,0.5,0.5,-0.5,2,2,0.8,2,432,1,1,432,1,0,1.6,NaN,-0.792086641748536,-0.792086641748536,750,1,0,congruent,1,1413.95392927789,921.289424916868
37,104,1,98,-0.5,0.5,0,1,NaN,0.8,1,334,1,1,334,1,0,1.6,0.6,-1.5665556131931,-1.5665556131931,750,0,0,neutral,0.1,1404.54311068702,1736.73109421678
37,104,1,99,-0.5,0.5,-0.5,2,2,0.8,3,405,0,1,NaN,0,0,1.4,0.8,-1.00546074612612,NaN,750,0,1,congruent,0,1804.12160431617,1635.70104740933
37,104,1,100,-0.5,0.5,-0.5,4,4,0.6,4,317,1,1,317,1,0,1.4,0.6,-1.70090227150491,-1.70090227150491,750,1,0,congruent,0.1,875.846791307564,1629.40419212097
37,104,1,101,0.5,-0.5,0.5,2,1,0.6,2,638,1,1,638,0,0,1.2,NaN,0.835878747206362,0.835878747206362,750,0,0,incongruent,0,4313.42160003806,1618.94905726163
37,104,1,102,0.5,0.5,0,1,NaN,0.6,1,446,1,1,446,1,0,0.8,NaN,-0.681448217256456,-0.681448217256456,750,0,0,neutral,1,1509.04086127629,639.257996014042
37,104,1,103,0.5,0.5,-0.5,4,4,0.8,4,608,1,1,608,1,0,0.8,NaN,0.598796409009047,0.598796409009047,750,1,0,congruent,1,1244.12327006958,1083.98935838519
37,104,1,104,0.5,-0.5,0,1,NaN,0.8,1,446,1,1,446,0,0,1,NaN,-0.681448217256456,-0.681448217256456,750,0,0,neutral,0,1218.19569783021,1143.42474504822
37,104,1,105,0.5,0.5,-0.5,4,4,0.8,1,552,0,1,NaN,0,0,1,NaN,0.156242711040725,NaN,750,0,1,congruent,0,734.352649278517,1178.77477760803
37,104,1,106,0.5,-0.5,0.5,3,1,0.6,3,691,1,1,691,0,0,0.8,NaN,1.25472421135495,1.25472421135495,750,0,0,incongruent,0,786.363507345301,274.732350064524
37,104,1,107,0.5,-0.5,0,1,NaN,0.6,1,453,1,1,453,0,0,0.8,NaN,-0.626129005010415,-0.626129005010415,750,0,0,neutral,0,2815.86223890807,822.143625531241
37,104,1,109,0.5,-0.5,-0.5,2,2,0.6,2,495,1,1,495,0,0,0,NaN,-0.294213731534174,-0.294213731534174,750,1,0,congruent,0,2980.97551733673,1385.92425528048
37,104,1,110,0.5,0.5,0.5,3,1,0.6,3,286,1,1,286,1,0,0,NaN,-1.9458873543088,-1.9458873543088,750,0,0,incongruent,1,3490.57521234244,1439.55911913193
37,104,1,111,0.5,0.5,0,1,NaN,0.8,2,334,0,1,NaN,0,0,0.4,NaN,-1.5665556131931,NaN,750,0,1,neutral,0,5725.17514079424,480.588318334124
37,104,1,112,-0.5,0.5,-0.5,3,3,0.6,3,523,1,1,523,1,0,0.4,0.6,-0.0729368825500131,-0.0729368825500131,750,1,0,congruent,0.1,1729.08703888242,1846.77866707612
37,104,1,113,0.5,-0.5,0,2,NaN,0.6,2,519,1,1,519,1,0,0.6,NaN,-0.104547860976322,-0.104547860976322,750,0,0,neutral,1,1763.33861222576,803.175795055565
37,104,1,114,-0.5,-0.5,0.5,3,2,0.6,3,653,1,1,653,0,0,1,0.8,0.95441991630502,0.95441991630502,750,0,0,incongruent,0,3591.95677820433,1295.85615760594
37,104,1,115,-0.5,0.5,0.5,1,3,0.6,1,503,1,1,503,1,0,1,0.6,-0.230991774681557,-0.230991774681557,750,0,0,incongruent,0.1,902.122572821969,2880.72265300158
37,104,1,116,0.5,0.5,0,4,NaN,0.6,4,339,1,1,339,1,0,0.8,NaN,-1.52704189016021,-1.52704189016021,750,0,0,neutral,1,2430.19632263329,1734.43689262135
37,104,1,117,0.5,0.5,-0.5,1,1,0.8,1,695,1,1,695,1,0,1.2,NaN,1.28633518978126,1.28633518978126,750,1,0,congruent,1,1245.40471006125,602.783273182288
37,104,1,118,0.5,0.5,0.5,3,4,0.8,3,647,1,1,647,1,0,1.4,NaN,0.907003448665557,0.907003448665557,750,0,0,incongruent,1,1358.97514848789,1094.21359473885
37,104,1,119,0.5,0.5,0,2,NaN,1,2,344,1,1,344,1,0,1.4,NaN,-1.48752816712733,-1.48752816712733,750,0,0,neutral,1,1040.39212506337,1152.4708995408
37,104,1,120,-0.5,0.5,0.5,3,2,1,3,419,1,1,419,1,0,1.8,0.8,-0.894822321634039,-0.894822321634039,750,0,0,incongruent,0.1,703.929746951251,976.93843645836
37,104,1,121,-0.5,0.5,0.5,4,1,1,4,574,1,1,574,1,0,1.8,0.8,0.330103092385423,0.330103092385423,750,0,0,incongruent,0.1,282.871208914433,1619.01429030945
37,104,1,122,0.5,0.5,-0.5,2,2,1,2,667,1,1,667,1,0,1.6,NaN,1.0650583407971,1.0650583407971,750,1,0,congruent,1,708.084424531406,363.012526265242
37,104,1,123,-0.5,0.5,0.5,3,1,1,3,639,1,1,639,1,0,1.6,1,0.843781491812939,0.843781491812939,750,0,0,incongruent,0.1,1557.17558294712,1131.33032843039
37,104,1,124,-0.5,-0.5,0,1,NaN,1,1,405,1,1,405,1,0,1.4,0.6,-1.00546074612612,-1.00546074612612,750,0,0,neutral,0.1,4431.34043503036,816.486185463194
37,104,1,125,0.5,0.5,-0.5,4,4,1,4,488,1,1,488,1,0,1.2,NaN,-0.349532943780214,-0.349532943780214,750,1,0,congruent,1,1122.87125444125,1720.63405342157
37,104,1,126,0.5,-0.5,0,2,NaN,1,2,528,1,1,528,1,0,1.4,NaN,-0.0334231595171272,-0.0334231595171272,750,0,0,neutral,1,3171.78142864486,1053.48592141196
37,104,1,127,-0.5,0.5,0.5,4,3,1,4,722,1,1,722,1,0,1.6,1,1.49970929415885,1.49970929415885,750,0,0,incongruent,0.1,1569.125175433,1689.08506723766
37,104,1,128,-0.5,-0.5,0.5,3,1,1,3,562,1,1,562,1,0,1.4,0.6,0.235270157106497,0.235270157106497,750,0,0,incongruent,0.1,940.739112561923,1890.03581782304
37,104,1,129,-0.5,-0.5,0.5,1,3,1,1,489,1,1,489,1,0,1.4,0.6,-0.341630199173637,-0.341630199173637,750,0,0,incongruent,0.1,1899.24999186884,1049.88064946506
37,104,1,130,0.5,0.5,0,2,NaN,1,2,525,1,1,525,1,0,1.4,NaN,-0.0571313933368588,-0.0571313933368588,750,0,0,neutral,1,2058.16907783219,1407.92414115665
37,104,1,131,-0.5,-0.5,-0.5,4,4,1,4,978,1,0,978,1,0,1.4,0.6,3.5228119134426,3.5228119134426,750,1,0,congruent,0.1,2436.58207790245,2055.86963230652
37,104,1,132,0.5,-0.5,0.5,1,2,1,1,528,1,1,528,1,0,1.2,NaN,-0.0334231595171272,-0.0334231595171272,750,0,0,incongruent,1,2812.98835834779,2325.07043693171
37,104,1,133,-0.5,0.5,-0.5,3,3,1,3,504,1,1,504,1,0,1.4,1,-0.223089030074979,-0.223089030074979,750,1,0,congruent,0.1,751.333607572847,2431.54346884784
37,104,1,134,0.5,-0.5,0.5,4,2,1,4,618,1,1,618,1,0,1.4,NaN,0.677823855074819,0.677823855074819,750,0,0,incongruent,1,552.961414661951,1755.01684736374
37,104,1,135,0.5,0.5,-0.5,1,1,1,1,869,1,0,869,0,0,1.6,NaN,2.66141275132569,2.66141275132569,750,1,0,congruent,0,853.800376468853,2387.24503424254
37,104,1,136,-0.5,-0.5,0.5,3,2,0.8,3,480,1,1,480,1,0,1.2,0.8,-0.412754900632832,-0.412754900632832,750,0,0,incongruent,0.1,1555.02580019247,2043.45804927186
37,104,1,137,0.5,-0.5,-0.5,4,4,0.8,4,442,1,1,442,1,0,1.2,NaN,-0.713059195682764,-0.713059195682764,750,1,0,congruent,1,2625.96151456791,1623.54301187764
37,104,1,138,-0.5,0.5,0.5,3,1,0.8,3,601,1,1,601,1,0,1.2,1,0.543477196763007,0.543477196763007,750,0,0,incongruent,0.1,2379.38303428831,1004.96874433027
37,104,1,139,0.5,-0.5,0,2,NaN,0.8,2,452,1,1,452,1,0,1.2,NaN,-0.634031749616993,-0.634031749616993,750,0,0,neutral,1,1156.0554654463,3395.98968507232
37,104,1,140,-0.5,-0.5,-0.5,1,1,0.8,1,393,1,1,393,1,0,1.2,1,-1.10029368140505,-1.10029368140505,750,1,0,congruent,0.1,432.388630538016,296.440749975739
37,104,1,141,0.5,-0.5,-0.5,4,4,0.8,4,649,1,1,649,1,0,1.4,NaN,0.922808937878711,0.922808937878711,750,1,0,congruent,1,812.286409780532,1113.65877105914
37,104,1,142,0.5,0.5,0,1,NaN,0.8,1,447,1,1,447,1,0,1.6,NaN,-0.673545472649879,-0.673545472649879,750,0,0,neutral,1,1644.07769973565,1571.813569411
37,104,1,143,0.5,-0.5,-0.5,3,3,0.8,3,592,1,1,592,1,0,1.6,NaN,0.472352495303812,0.472352495303812,750,1,0,congruent,1,1889.75448325271,1499.34646278348
37,104,1,144,0.5,0.5,0.5,2,4,0.8,2,564,1,1,564,1,0,1.8,NaN,0.251075646319651,0.251075646319651,750,0,0,incongruent,1,1457.46395613749,4634.94648741573
37,104,1,145,-0.5,-0.5,0.5,3,2,0.8,3,616,1,1,616,1,0,1.8,1,0.662018365861664,0.662018365861664,750,0,0,incongruent,0.1,592.869677448611,2443.2614623495
37,104,1,146,-0.5,0.5,0,2,NaN,0.8,1,544,0,1,NaN,0,0,1.8,1,0.0930207541881076,NaN,750,0,1,neutral,0,2826.382474599,678.343749497919
37,104,1,147,0.5,0.5,0.5,3,2,0.6,3,650,1,1,650,1,0,1.4,NaN,0.930711682485288,0.930711682485288,750,0,0,incongruent,1,1365.19130915914,462.278680255096
37,104,1,148,-0.5,0.5,0.5,2,4,0.8,2,534,1,1,534,1,0,1.4,0.8,0.0139933081223358,0.0139933081223358,750,0,0,incongruent,0.1,1644.94007107892,518.886745562047
37,104,1,149,0.5,-0.5,0,1,NaN,0.8,1,474,1,1,474,1,0,1.2,NaN,-0.460171368272295,-0.460171368272295,750,0,0,neutral,1,2492.10494390708,2358.37642604616
37,104,1,150,-0.5,0.5,-0.5,4,4,0.8,3,577,0,1,NaN,0,0,1.2,0.8,0.353811326205154,NaN,750,0,1,congruent,0,6064.67292947855,1870.67195617214
37,104,2,151,0.5,0.5,0.5,3,2,0.6,3,705,1,1,705,1,0,1,NaN,1.36536263584703,1.36536263584703,750,0,0,incongruent,1,4127.76749019438,3126.68809331982
37,104,2,152,0.5,-0.5,0,2,NaN,0.6,2,584,1,1,584,0,0,1.4,NaN,0.409130538451195,0.409130538451195,750,0,0,neutral,0,2650.68322960395,1440.58870482951
37,104,2,153,0.5,0.5,0.5,4,1,0.6,4,257,1,1,257,1,0,1,NaN,-2.17506694789954,-2.17506694789954,750,0,0,incongruent,1,1078.75930284681,602.076518094493
37,104,2,154,0.5,0.5,0,3,NaN,0.8,3,402,1,1,402,1,0,1.2,NaN,-1.02916897994585,-1.02916897994585,750,0,0,neutral,1,885.700196399004,2986.55715065077
37,104,2,155,-0.5,-0.5,-0.5,2,2,0.8,2,409,1,1,409,1,0,1.2,1,-0.973849767699811,-0.973849767699811,750,1,0,congruent,0.1,635.724957050599,1751.85234744901
37,104,2,156,-0.5,-0.5,-0.5,3,3,0.8,3,469,1,1,469,0,0,1.4,1,-0.499685091305181,-0.499685091305181,750,1,0,congruent,0,1737.98736276556,255.086180849455
37,104,2,157,-0.5,0.5,0.5,2,4,0.8,3,437,0,1,NaN,0,0,1,0.6,-0.75257291871565,NaN,750,0,1,incongruent,0,3827.78028336241,1210.13652582013
37,104,2,159,-0.5,0.5,-0.5,2,2,0.6,2,444,1,1,444,1,0,0.8,0.4,-0.69725370646961,-0.69725370646961,750,1,0,congruent,0.1,1912.2447006487,308.080697959196
37,104,2,160,0.5,0.5,-0.5,1,1,0.8,1,503,1,1,503,1,0,0.6,NaN,-0.230991774681557,-0.230991774681557,750,1,0,congruent,1,995.078454544667,1094.10265758439
37,104,2,161,-0.5,-0.5,-0.5,2,2,0.8,2,472,1,1,472,1,0,0.8,0.8,-0.475976857485449,-0.475976857485449,750,1,0,congruent,0.1,858.110537604943,1410.53256221673
37,104,2,162,0.5,0.5,-0.5,4,4,0.8,4,513,1,1,513,1,0,1,NaN,-0.151964328615785,-0.151964328615785,750,1,0,congruent,1,1704.83677570126,1921.26550887665
37,104,2,163,-0.5,-0.5,-0.5,1,1,0.8,1,562,1,1,562,1,0,1.4,0.8,0.235270157106497,0.235270157106497,750,1,0,congruent,0.1,1251.38509449457,634.705106104301
37,104,2,164,0.5,-0.5,-0.5,2,2,0.8,2,448,1,1,448,1,0,1.4,NaN,-0.665642728043301,-0.665642728043301,750,1,0,congruent,1,1279.27196548578,1120.13752487909
37,104,2,165,0.5,-0.5,0,4,NaN,0.8,4,470,1,1,470,1,0,1.6,NaN,-0.491782346698603,-0.491782346698603,750,0,0,neutral,1,1865.32243598406,530.568882859134
37,104,2,166,0.5,0.5,-0.5,1,1,0.8,1,581,1,1,581,1,0,1.6,NaN,0.385422304631463,0.385422304631463,750,1,0,congruent,1,1986.08554313077,4410.78479638546
37,104,2,167,-0.5,-0.5,-0.5,2,2,0.8,2,695,1,1,695,1,0,1.8,0.8,1.28633518978126,1.28633518978126,750,1,0,congruent,0.1,2307.47707676562,1145.29893554645
37,104,2,169,0.5,0.5,-0.5,2,2,0.8,2,527,1,1,527,1,0,1.4,NaN,-0.0413259041237044,-0.0413259041237044,750,1,0,congruent,1,680.049161503169,2197.71471619205
37,104,2,170,0.5,0.5,0,4,NaN,0.8,4,330,1,1,330,1,0,1.4,NaN,-1.59816659161941,-1.59816659161941,750,0,0,neutral,1,1065.55624609421,946.587073288107
37,104,2,172,-0.5,0.5,0,2,NaN,0.8,2,526,1,1,526,1,0,1.4,0.4,-0.0492286487302816,-0.0492286487302816,750,0,0,neutral,0.1,1594.81366919265,2069.40889226737
37,104,2,173,-0.5,-0.5,0.5,4,2,0.8,4,857,1,0,857,1,0,1.4,0.8,2.56657981604676,2.56657981604676,750,0,0,incongruent,0.1,1176.26991186413,1747.52665550988
37,104,2,174,-0.5,0.5,0,2,NaN,0.8,2,481,1,1,481,1,0,1.6,0.4,-0.404852156026255,-0.404852156026255,750,0,0,neutral,0.1,2324.85829188853,1201.21982043105
37,104,2,175,0.5,-0.5,-0.5,3,3,0.8,3,407,1,1,407,1,0,1.4,NaN,-0.989655256912966,-0.989655256912966,750,1,0,congruent,1,941.655665394315,357.949388013409
37,104,2,176,0.5,-0.5,0,2,NaN,0.8,2,408,1,1,408,1,0,1.4,NaN,-0.981752512306388,-0.981752512306388,750,0,0,neutral,1,1796.09562786141,1376.97493659401
37,104,2,177,-0.5,-0.5,-0.5,4,4,0.8,4,466,1,1,466,1,0,1.4,1,-0.523393325124912,-0.523393325124912,750,1,0,congruent,0.1,1648.17801755632,983.896541438962
37,104,2,178,0.5,0.5,0.5,1,2,0.8,1,362,1,1,362,1,0,1.4,NaN,-1.34527876420894,-1.34527876420894,750,0,0,incongruent,1,3159.22819527355,500.578263457212
37,104,2,179,-0.5,-0.5,0,4,NaN,1,4,423,1,1,423,1,0,1.6,1,-0.863211343207731,-0.863211343207731,750,0,0,neutral,0.1,1492.0473697016,595.617377039551
37,104,2,180,0.5,-0.5,-0.5,3,3,1,3,469,1,1,469,1,0,1.6,NaN,-0.499685091305181,-0.499685091305181,750,1,0,congruent,1,1497.77362718368,985.5479394363
37,104,2,181,-0.5,0.5,0.5,2,1,1,2,517,1,1,517,1,0,1.6,0.6,-0.120353350189476,-0.120353350189476,750,0,0,incongruent,0.1,5967.8961197823,367.755953005296
37,104,2,182,0.5,-0.5,0.5,1,2,1,1,300,1,1,300,1,0,1.4,NaN,-1.83524892981672,-1.83524892981672,750,0,0,incongruent,1,912.106197409573,1600.70072924151
37,104,2,183,-0.5,0.5,0,3,NaN,1,3,657,1,1,657,1,0,1.6,0.8,0.986030894731329,0.986030894731329,750,0,0,neutral,0.1,743.102757721661,536.901268069186
37,104,2,184,0.5,-0.5,-0.5,1,1,1,1,574,1,1,574,1,0,1.4,NaN,0.330103092385423,0.330103092385423,750,1,0,congruent,1,277.653917841673,1374.82731937432
37,104,2,185,0.5,-0.5,0.5,2,4,1,3,584,0,1,NaN,1,0,1.6,NaN,0.409130538451195,NaN,750,0,1,incongruent,1,2675.57115569336,672.380476990171
37,104,2,186,0.5,-0.5,0.5,4,1,1,4,587,1,1,587,1,0,1.6,NaN,0.432838772270926,0.432838772270926,750,0,0,incongruent,1,2226.09419411854,927.792996963386
37,104,2,187,-0.5,0.5,0,3,NaN,1,3,597,1,1,597,1,0,1.8,0.8,0.511866218336698,0.511866218336698,750,0,0,neutral,0.1,1279.17040151586,1552.48984850567
37,104,2,188,0.5,-0.5,0.5,2,1,1,2,480,1,1,480,1,0,1.6,NaN,-0.412754900632832,-0.412754900632832,750,0,0,incongruent,1,1049.60283068697,1028.16780422076
37,104,2,189,0.5,-0.5,0,1,NaN,1,1,339,1,1,339,1,0,1.8,NaN,-1.52704189016021,-1.52704189016021,750,0,0,neutral,1,900.730883331,1042.01173314014
37,104,2,190,0.5,-0.5,-0.5,4,4,1,4,569,1,1,569,1,0,1.8,NaN,0.290589369352537,0.290589369352537,750,1,0,congruent,1,1476.46698386623,1238.1476954436
37,104,2,191,0.5,0.5,-0.5,2,2,1,2,452,1,1,452,1,0,1.8,NaN,-0.634031749616993,-0.634031749616993,750,1,0,congruent,1,1296.66315170005,1024.75943729639
37,104,2,192,-0.5,0.5,0.5,1,4,1,1,561,1,1,561,1,0,1.8,1,0.22736741249992,0.22736741249992,750,0,0,incongruent,0.1,812.222150669023,2407.94574693459
37,104,2,193,-0.5,-0.5,-0.5,3,3,1,3,528,1,1,528,1,0,1.8,1,-0.0334231595171272,-0.0334231595171272,750,1,0,congruent,0.1,898.931541864844,2331.8648653405
37,104,2,194,0.5,0.5,-0.5,1,1,1,1,476,1,1,476,1,0,1.6,NaN,-0.44436587905914,-0.44436587905914,750,1,0,congruent,1,2049.3638482509,2757.84773421673
37,104,2,195,-0.5,-0.5,-0.5,4,4,1,4,575,1,1,575,1,0,1.6,1,0.338005836992,0.338005836992,750,1,0,congruent,0.1,798.982219687515,2264.69073073078
37,104,2,196,0.5,-0.5,-0.5,3,3,1,3,680,1,1,680,1,0,1.4,NaN,1.1677940206826,1.1677940206826,750,1,0,congruent,1,778.630277294691,1435.92811027613
37,104,2,197,0.5,0.5,0,4,NaN,1,4,595,1,1,595,1,0,1.4,NaN,0.496060729123544,0.496060729123544,750,0,0,neutral,1,1608.94583501498,1430.75475703552
37,104,2,198,-0.5,0.5,0.5,1,3,1,1,516,1,1,516,1,0,1.6,1,-0.128256094796053,-0.128256094796053,750,0,0,incongruent,0.1,1131.05384350167,1235.95606565155
37,104,2,200,0.5,-0.5,0.5,1,2,0.8,1,483,1,1,483,1,0,1.2,NaN,-0.3890466668131,-0.3890466668131,750,0,0,incongruent,1,1085.03892410798,1338.11464857877
37,104,2,201,0.5,-0.5,0.5,3,1,0.8,2,555,0,1,NaN,1,0,1.4,NaN,0.179950944860457,NaN,750,0,1,incongruent,1,3647.65876052894,252.382915508597
37,104,2,202,-0.5,-0.5,-0.5,4,4,0.8,4,603,1,1,603,1,0,1.4,1,0.559282685976161,0.559282685976161,750,1,0,congruent,0.1,163.536470370664,635.548753058799
37,104,2,203,-0.5,-0.5,0,2,NaN,0.8,3,541,0,1,NaN,0,0,1.2,1,0.0693125203683761,NaN,750,0,1,neutral,0,1414.0181839331,981.375651664699
37,104,2,204,0.5,0.5,-0.5,3,3,0.8,3,601,1,1,601,1,0,1,NaN,0.543477196763007,0.543477196763007,750,1,0,congruent,1,3241.44656257541,361.319341346058
37,104,2,205,0.5,0.5,0,4,NaN,0.8,4,486,1,1,486,1,0,1.4,NaN,-0.365338432993369,-0.365338432993369,750,0,0,neutral,1,1667.90033364012,2799.25549757549
37,104,2,206,0.5,0.5,0.5,3,1,0.8,2,602,0,1,NaN,0,0,1.4,NaN,0.551379941369584,NaN,750,0,1,incongruent,0,1515.84281185977,1315.10419971251
37,104,2,207,0.5,0.5,-0.5,2,2,0.6,2,462,1,1,462,1,0,1,NaN,-0.555004303551221,-0.555004303551221,750,1,0,congruent,1,2631.71515940668,373.13067682732
37,104,2,208,-0.5,0.5,0,1,NaN,0.6,1,441,1,1,441,1,0,1.2,0.8,-0.720961940289342,-0.720961940289342,750,0,0,neutral,0.1,1133.97874911379,593.865465455934
37,104,2,209,-0.5,0.5,-0.5,4,4,0.8,3,574,0,1,NaN,0,0,1.4,0.8,0.330103092385423,NaN,750,0,1,congruent,0,3864.87484269949,369.79779164038
37,104,2,210,-0.5,0.5,0,2,NaN,0.6,2,319,1,1,319,1,0,1,0.6,-1.68509678229176,-1.68509678229176,750,0,0,neutral,0.1,410.365462803984,248.08182671469
37,104,2,211,0.5,0.5,0.5,3,2,0.6,3,518,1,1,518,1,0,0.8,NaN,-0.112450605582899,-0.112450605582899,750,0,0,incongruent,1,1358.14764767237,1124.53645360429
37,104,2,212,-0.5,0.5,0.5,2,1,0.8,2,588,1,1,588,1,0,1.2,0.6,0.440741516877503,0.440741516877503,750,0,0,incongruent,0.1,3602.23546798449,1562.52678951301
37,104,2,213,-0.5,0.5,0,1,NaN,0.8,1,343,1,1,343,1,0,1,0.6,-1.4954309117339,-1.4954309117339,750,0,0,neutral,0.1,1409.5100860776,1053.05631602543
37,104,2,214,0.5,-0.5,-0.5,2,2,0.8,2,496,1,1,496,1,0,1,NaN,-0.286310986927597,-0.286310986927597,750,1,0,congruent,1,644.461828047284,555.986507851165
37,104,2,215,0.5,0.5,0.5,4,3,0.8,4,458,1,1,458,1,0,1.4,NaN,-0.58661528197753,-0.58661528197753,750,0,0,incongruent,1,932.834225295055,1288.27112900844
37,104,2,216,0.5,-0.5,0.5,1,2,1,1,633,1,1,633,1,0,1.6,NaN,0.796365024173476,0.796365024173476,750,0,0,incongruent,1,2015.40662334164,1618.4820628537
37,104,2,217,-0.5,-0.5,-0.5,4,4,1,4,604,1,1,604,1,0,1.6,0.8,0.567185430582738,0.567185430582738,750,1,0,congruent,0.1,636.538545693926,928.371869086187
37,104,2,218,0.5,0.5,-0.5,3,3,1,3,587,1,1,587,1,0,1.6,NaN,0.432838772270926,0.432838772270926,750,1,0,congruent,1,6296.05933594187,1721.36856329837
37,104,2,219,-0.5,-0.5,0.5,4,1,1,4,564,1,1,564,1,0,1.8,0.8,0.251075646319651,0.251075646319651,750,0,0,incongruent,0.1,447.465050616127,914.375516838577
37,104,2,220,0.5,-0.5,0,3,NaN,1,3,662,1,1,662,1,0,1.6,NaN,1.02554461776421,1.02554461776421,750,0,0,neutral,1,630.632176891039,280.231327197951
37,104,2,221,-0.5,-0.5,0.5,1,2,1,1,644,1,1,644,1,0,1.6,0.8,0.883295214845825,0.883295214845825,750,0,0,incongruent,0.1,1904.24459833953,1764.21313310466
37,104,2,222,-0.5,0.5,-0.5,3,3,1,3,765,1,0,765,0,0,1.4,0.8,1.83952731224166,1.83952731224166,750,1,0,congruent,0,3041.41593631597,1106.47565019002
37,104,2,223,0.5,-0.5,0,4,NaN,0.8,4,481,1,1,481,1,0,1.2,NaN,-0.404852156026255,-0.404852156026255,750,0,0,neutral,1,1678.59552560594,185.009538531559
37,104,2,225,-0.5,0.5,0,2,NaN,0.8,2,517,1,1,517,1,0,1.2,0.6,-0.120353350189476,-0.120353350189476,750,0,0,neutral,0.1,1786.49813724534,1784.49148716857
37,104,2,226,-0.5,0.5,-0.5,1,1,0.8,1,422,1,1,422,1,0,1,0.8,-0.871114087814308,-0.871114087814308,750,1,0,congruent,0.1,366.8040730088,839.253356241255
37,104,2,227,-0.5,0.5,0,2,NaN,0.8,2,488,1,1,488,1,0,1,0.8,-0.349532943780214,-0.349532943780214,750,0,0,neutral,0.1,1043.80911687703,480.482952980843
37,104,2,228,0.5,0.5,0.5,4,3,0.8,4,372,1,1,372,1,0,1.2,NaN,-1.26625131814317,-1.26625131814317,750,0,0,incongruent,1,2869.80922573632,1139.6737963737
37,104,2,229,-0.5,-0.5,-0.5,2,2,0.8,2,616,1,1,616,1,0,1.2,0.8,0.662018365861664,0.662018365861664,750,1,0,congruent,0.1,1501.82785889747,2823.43224765952
37,104,2,231,-0.5,-0.5,0.5,1,3,0.8,2,533,0,1,NaN,1,0,1,0.8,0.00609056351575865,NaN,750,0,1,incongruent,0.1,1990.5414193195,1023.1371682501
37,104,2,232,0.5,0.5,-0.5,4,4,0.8,4,786,1,0,786,0,0,1,NaN,2.00548494897978,2.00548494897978,750,1,0,congruent,0,1837.43755106693,1714.03641367147
37,104,2,233,-0.5,-0.5,-0.5,3,3,0.8,3,583,1,1,583,1,0,0.8,0.8,0.401227793844617,0.401227793844617,750,1,0,congruent,0.1,1199.95220045584,1232.6351432357
37,104,2,234,-0.5,0.5,0.5,4,2,0.8,4,809,1,0,809,0,0,0.6,0.8,2.18724807493106,2.18724807493106,750,0,0,incongruent,0,703.515596533633,2593.37946316487
37,104,2,235,-0.5,-0.5,-0.5,3,3,0.6,3,481,1,1,481,0,0,0.4,0.8,-0.404852156026255,-0.404852156026255,750,1,0,congruent,0,2032.75735537674,749.128008896869
37,104,2,236,-0.5,0.5,0,1,NaN,0.6,1,536,1,1,536,1,0,0.4,0.6,0.0297987973354902,0.0297987973354902,750,0,0,neutral,0.1,2428.711933864,4273.52411923809
37,104,2,238,0.5,-0.5,0,1,NaN,0.4,1,501,1,1,501,1,0,0.4,NaN,-0.246797263894711,-0.246797263894711,750,0,0,neutral,1,1556.71443932369,695.881166544801
37,104,2,239,-0.5,-0.5,0.5,4,2,0.4,3,502,0,1,NaN,0,0,0.6,0.6,-0.238894519288134,NaN,750,0,1,incongruent,0,1900.17090045255,364.634825503043
37,104,2,240,0.5,0.5,0,1,NaN,0.4,1,656,1,1,656,1,0,0.6,NaN,0.978128150124751,0.978128150124751,750,0,0,neutral,1,691.273055212706,1177.6932078767
37,104,2,241,-0.5,-0.5,-0.5,3,3,0.4,3,674,1,1,674,0,0,1,0.4,1.12037755304314,1.12037755304314,750,1,0,congruent,0,3829.03421633566,2059.84384052842
37,104,2,242,-0.5,0.5,0,2,NaN,0.4,2,490,1,1,490,1,0,0.8,0.8,-0.33372745456706,-0.33372745456706,750,0,0,neutral,0.1,1069.26627553056,631.454840863235
37,104,2,243,0.5,-0.5,-0.5,4,4,0.6,3,810,0,0,NaN,0,0,1,NaN,2.19515081953764,NaN,750,0,1,congruent,0,926.39532648856,724.434213046855
37,104,2,244,0.5,0.5,0,1,NaN,0.6,1,483,1,1,483,1,0,0.6,NaN,-0.3890466668131,-0.3890466668131,750,0,0,neutral,1,2717.13723206339,1804.78279172634
37,104,2,245,0.5,0.5,-0.5,4,4,0.8,4,641,1,1,641,1,0,1,NaN,0.859586981026094,0.859586981026094,750,1,0,congruent,1,1483.41338367041,1468.38480264868
37,104,2,246,0.5,-0.5,0.5,2,3,0.8,2,537,1,1,537,1,0,1,NaN,0.0377015419420674,0.0377015419420674,750,0,0,incongruent,1,976.904437408094,437.737229177877
37,104,2,247,-0.5,-0.5,0.5,3,4,0.8,3,519,1,1,519,1,0,1.4,0.4,-0.104547860976322,-0.104547860976322,750,0,0,incongruent,0.1,1985.80619914945,1848.95393852548
37,104,2,249,0.5,0.5,0,3,NaN,1,3,622,1,1,622,1,0,1.6,NaN,0.709434833501127,0.709434833501127,750,0,0,neutral,1,1229.0653349526,1690.7975307143
37,104,2,250,-0.5,-0.5,0.5,2,1,1,2,413,1,1,413,1,0,1.6,0.4,-0.942238789273502,-0.942238789273502,750,0,0,incongruent,0.1,2193.23434140079,1593.55988450871
37,104,2,251,-0.5,-0.5,0.5,4,3,1,4,531,1,1,531,1,0,1.4,0.4,-0.0097149256973957,-0.0097149256973957,750,0,0,incongruent,0.1,1888.97537836727,628.883843955695
37,104,2,252,0.5,0.5,0.5,3,2,1,3,523,1,1,523,1,0,1.2,NaN,-0.0729368825500131,-0.0729368825500131,750,0,0,incongruent,1,2367.15420780005,409.383987283231
37,104,2,253,-0.5,0.5,-0.5,1,1,1,1,560,1,1,560,1,0,1.4,0.8,0.219464667893342,0.219464667893342,750,1,0,congruent,0.1,1397.93529907051,1478.35708180375
37,104,2,254,-0.5,-0.5,-0.5,3,3,1,3,373,1,1,373,1,0,1.4,0.6,-1.25834857353659,-1.25834857353659,750,1,0,congruent,0.1,2156.87943948201,1189.03885894331
37,104,2,255,0.5,0.5,0,2,NaN,1,2,579,1,1,579,1,0,1.2,NaN,0.369616815418309,0.369616815418309,750,0,0,neutral,1,7743.94008196952,703.168010214128
37,104,2,256,0.5,-0.5,0.5,3,1,1,3,477,1,1,477,1,0,1.4,NaN,-0.436463134452563,-0.436463134452563,750,0,0,incongruent,1,487.293189358825,1685.08398810277
37,104,2,257,-0.5,-0.5,0,1,NaN,1,1,556,1,1,556,1,0,1.6,0.8,0.187853689467034,0.187853689467034,750,0,0,neutral,0.1,1385.63807295232,1358.06930346789
37,104,2,258,-0.5,-0.5,0.5,4,3,1,4,455,1,1,455,1,0,1.4,1,-0.610323515797261,-0.610323515797261,750,0,0,incongruent,0.1,838.049927134342,905.480165276904
37,104,2,259,0.5,-0.5,0,2,NaN,1,2,478,1,1,478,1,0,1.4,NaN,-0.428560389845986,-0.428560389845986,750,0,0,neutral,1,1612.64100303182,2038.92740700312
37,104,2,260,-0.5,0.5,-0.5,3,3,1,3,631,1,1,631,1,0,1.6,0.8,0.780559534960322,0.780559534960322,750,1,0,congruent,0.1,2303.86511091881,654.320231419322
37,104,2,261,0.5,-0.5,0.5,2,4,1,2,807,1,0,807,1,0,1.4,NaN,2.1714425857179,2.1714425857179,750,0,0,incongruent,1,397.79707834881,712.813220737075
37,104,2,262,0.5,-0.5,-0.5,3,3,1,3,610,1,1,610,1,0,1.4,NaN,0.614601898222201,0.614601898222201,750,1,0,congruent,1,2411.65229725677,3847.4603027337
37,104,2,263,-0.5,-0.5,-0.5,1,1,1,1,473,1,1,473,1,0,1.6,1,-0.468074112878872,-0.468074112878872,750,1,0,congruent,0.1,2053.03954985731,911.325330458637
37,104,2,264,-0.5,-0.5,0,2,NaN,1,2,417,1,1,417,1,0,1.6,1,-0.910627810847194,-0.910627810847194,750,0,0,neutral,0.1,1372.57842903281,202.569356350784
37,104,2,265,-0.5,-0.5,-0.5,3,3,1,3,483,1,1,483,1,0,1.4,1,-0.3890466668131,-0.3890466668131,750,1,0,congruent,0.1,1050.04968967521,1386.79709115097
37,104,2,266,0.5,0.5,0.5,4,1,1,4,368,1,1,368,1,0,1.4,NaN,-1.29786229656948,-1.29786229656948,750,0,0,incongruent,1,690.559486085758,330.590241543365
37,104,2,267,-0.5,-0.5,0,2,NaN,1,2,429,1,1,429,1,0,1.4,1,-0.815794875568268,-0.815794875568268,750,0,0,neutral,0.1,1686.30680388825,1577.31014469468
37,104,2,268,0.5,-0.5,-0.5,3,3,1,3,442,1,1,442,1,0,1.2,NaN,-0.713059195682764,-0.713059195682764,750,1,0,congruent,1,2213.38057569767,2597.72456190659
37,104,2,269,-0.5,0.5,0,2,NaN,1,2,376,1,1,376,1,0,1.4,1,-1.23464033971686,-1.23464033971686,750,0,0,neutral,0.1,1620.47326443638,371.409081791106
37,104,2,270,0.5,-0.5,-0.5,4,4,1,4,406,1,1,406,1,0,1.4,NaN,-0.997558001519543,-0.997558001519543,750,1,0,congruent,1,2874.90487668378,955.17967436723
37,104,2,271,-0.5,0.5,-0.5,1,1,1,2,518,0,1,NaN,0,0,1.6,1,-0.112450605582899,NaN,750,0,1,congruent,0,2215.39366468068,374.552441980457
37,104,2,272,0.5,-0.5,-0.5,2,2,0.8,2,293,1,1,293,1,0,1.2,NaN,-1.89056814206276,-1.89056814206276,750,1,0,congruent,1,513.030777846762,1218.12093958576
37,104,2,273,-0.5,0.5,-0.5,3,3,0.8,3,552,1,1,552,1,0,1.4,0.8,0.156242711040725,0.156242711040725,750,1,0,congruent,0.1,623.615240716267,1726.194092379
37,104,2,274,-0.5,0.5,-0.5,4,4,0.8,4,455,1,1,455,1,0,1.2,0.8,-0.610323515797261,-0.610323515797261,750,1,0,congruent,0.1,470.656639180955,1471.10958159448
37,104,2,275,0.5,0.5,0,3,NaN,0.8,3,544,1,1,544,1,0,1.2,NaN,0.0930207541881076,0.0930207541881076,750,0,0,neutral,1,2085.54537921729,1844.67875024048
37,104,2,276,0.5,0.5,-0.5,2,2,0.8,2,470,1,1,470,1,0,1.2,NaN,-0.491782346698603,-0.491782346698603,750,1,0,congruent,1,4530.49153099121,731.620784119512
37,104,2,277,0.5,0.5,0.5,3,1,0.8,2,538,0,1,NaN,0,0,1.6,NaN,0.0456042865486445,NaN,750,0,1,incongruent,0,1542.8809070173,825.947835064218
37,104,2,278,0.5,0.5,0,1,NaN,0.8,1,476,1,1,476,1,0,1.2,NaN,-0.44436587905914,-0.44436587905914,750,0,0,neutral,1,2561.97533100266,1912.70035463403
37,104,2,279,0.5,-0.5,-0.5,3,3,0.8,3,429,1,1,429,1,0,1.4,NaN,-0.815794875568268,-0.815794875568268,750,1,0,congruent,1,1435.12986457381,1948.02552024196
37,104,2,280,-0.5,0.5,0,4,NaN,0.8,4,869,1,0,869,0,0,1.6,0.8,2.66141275132569,2.66141275132569,750,0,0,neutral,0,856.814516630898,1306.44778752906
37,104,2,281,0.5,0.5,-0.5,1,1,0.6,1,602,1,1,602,1,0,1.2,NaN,0.551379941369584,0.551379941369584,750,1,0,congruent,1,1924.52112507664,820.869197773803
37,104,2,282,0.5,-0.5,-0.5,4,4,0.6,4,486,1,1,486,1,0,1.2,NaN,-0.365338432993369,-0.365338432993369,750,1,0,congruent,1,500.927711985131,3237.34357506818
37,104,2,283,-0.5,0.5,0,3,NaN,0.6,3,500,1,1,500,1,0,1.6,0.6,-0.254700008501288,-0.254700008501288,750,0,0,neutral,0.1,2889.01638210952,1761.83171848905
37,104,2,284,0.5,-0.5,-0.5,2,2,0.6,2,624,1,1,624,0,0,1.4,NaN,0.725240322714282,0.725240322714282,750,1,0,congruent,0,3356.84236633885,558.515666235084
37,104,2,285,-0.5,-0.5,0.5,4,3,0.6,3,799,0,0,NaN,1,0,1,1,2.10822062886529,NaN,750,1,0,incongruent,0.1,2254.7088709624,3274.14505186535
37,104,2,286,-0.5,-0.5,0,3,NaN,0.6,3,632,1,1,632,0,0,1.2,1,0.788462279566899,0.788462279566899,750,0,0,neutral,0,2076.54019689687,505.851414873882
37,104,2,287,-0.5,-0.5,-0.5,1,1,0.6,1,588,1,1,588,1,0,0.8,0.8,0.440741516877503,0.440741516877503,750,1,0,congruent,0.1,3660.50763801774,3352.24986048746
37,104,2,288,0.5,-0.5,0,2,NaN,0.6,2,447,1,1,447,0,0,0.6,NaN,-0.673545472649879,-0.673545472649879,750,0,0,neutral,0,2536.97782981692,1470.5372065375
37,104,2,289,0.5,0.5,-0.5,3,3,0.6,3,391,1,1,391,1,0,0.4,NaN,-1.1160991706182,-1.1160991706182,750,1,0,congruent,1,1729.54913419452,330.242169234735
37,104,2,290,0.5,-0.5,-0.5,1,1,0.8,1,575,1,1,575,1,0,0.8,NaN,0.338005836992,0.338005836992,750,1,0,congruent,1,2768.58876736371,2905.5248880076
37,104,2,291,0.5,0.5,-0.5,3,3,0.8,3,514,1,1,514,1,0,1,NaN,-0.144061584009208,-0.144061584009208,750,1,0,congruent,1,1776.27418930881,1831.41218712923
37,104,2,292,-0.5,0.5,0.5,1,2,0.8,2,713,0,1,NaN,0,0,1.4,0.6,1.42858459269965,NaN,750,1,0,incongruent,0,336.121463960579,2532.84201527449
37,104,2,293,-0.5,-0.5,0.5,2,4,0.8,2,955,1,0,955,1,0,1.2,0.8,3.34104878749133,3.34104878749133,750,0,0,incongruent,0.1,1457.66397761829,528.255945662996
37,104,2,294,-0.5,-0.5,0,1,NaN,0.8,1,494,1,1,494,1,0,1.4,0.8,-0.302116476140751,-0.302116476140751,750,0,0,neutral,0.1,2231.2422349171,654.584889163484
37,104,2,295,-0.5,0.5,-0.5,4,4,0.8,4,365,1,1,365,1,0,1.2,0.6,-1.32157053038921,-1.32157053038921,750,1,0,congruent,0.1,1528.21366227639,2459.80872987004
37,104,2,296,0.5,0.5,0,2,NaN,0.8,2,461,1,1,461,1,0,1,NaN,-0.562907048157798,-0.562907048157798,750,0,0,neutral,1,927.725961998849,1627.55561091979
37,104,2,297,0.5,0.5,0.5,3,4,0.8,3,515,1,1,515,1,0,1,NaN,-0.136158839402631,-0.136158839402631,750,0,0,incongruent,1,1727.13866786148,1356.27333968787
37,104,2,298,-0.5,-0.5,0,4,NaN,0.8,4,403,1,1,403,1,0,1.4,0.8,-1.02126623533927,-1.02126623533927,750,0,0,neutral,0.1,1490.03850792678,1389.0655673526
37,104,2,299,0.5,-0.5,0.5,2,3,0.8,3,642,0,1,NaN,1,0,1.4,NaN,0.867489725632671,NaN,750,1,0,incongruent,1,1297.64031551571,3495.59915885343
37,104,2,300,0.5,0.5,0,1,NaN,0.8,2,540,0,1,NaN,0,0,1.6,NaN,0.0614097757617989,NaN,750,0,1,neutral,0,1870.60163240779,3977.61808112588
37,104,3,301,0.5,0.5,0.5,2,3,0.6,2,814,1,0,814,0,0,1.4,NaN,2.22676179796395,2.22676179796395,750,0,0,incongruent,0,2510.50208616586,4650.46056106879
37,104,3,302,-0.5,0.5,0,3,NaN,0.6,4,549,0,1,NaN,0,0,1,0.6,0.132534477220993,NaN,750,0,1,neutral,0,1974.86678212282,1763.82441044912
37,104,3,303,0.5,0.5,-0.5,4,4,0.4,4,600,1,1,600,1,0,0.6,NaN,0.53557445215643,0.53557445215643,750,1,0,congruent,1,682.947061042281,4051.8245319285
37,104,3,304,0.5,0.5,0.5,2,1,0.4,2,666,1,1,666,1,0,0.8,NaN,1.05715559619052,1.05715559619052,750,0,0,incongruent,1,460.388702463014,1201.47313408245
37,104,3,305,-0.5,0.5,0,1,NaN,0.4,1,450,1,1,450,1,0,0.8,0.4,-0.649837238830147,-0.649837238830147,750,0,0,neutral,0.1,639.288425696379,728.377429122798
37,104,3,306,0.5,-0.5,0.5,2,4,0.6,4,435,0,1,NaN,1,0,1,NaN,-0.768378407928805,NaN,750,1,0,incongruent,1,2061.91582216066,1083.91815104378
37,104,3,307,-0.5,-0.5,0,1,NaN,0.6,1,538,1,1,538,1,0,1.4,0.8,0.0456042865486445,0.0456042865486445,750,0,0,neutral,0.1,1394.91974177097,963.249883954697
37,104,3,308,-0.5,-0.5,-0.5,3,3,0.6,3,515,1,1,515,0,0,1.6,1,-0.136158839402631,-0.136158839402631,750,1,0,congruent,0,1312.20826534776,1580.69666110156
37,104,3,309,0.5,0.5,0.5,1,2,0.6,2,659,0,1,NaN,0,0,1.2,NaN,1.00183638394448,NaN,750,1,0,incongruent,0,2502.81676689137,720.216112211971
37,104,3,310,-0.5,0.5,-0.5,3,3,0.6,3,518,1,1,518,1,0,0.8,0.6,-0.112450605582899,-0.112450605582899,750,1,0,congruent,0.1,1301.62031489154,1479.57395386319
37,104,3,311,0.5,-0.5,0,2,NaN,0.8,2,486,1,1,486,0,0,0.8,NaN,-0.365338432993369,-0.365338432993369,750,0,0,neutral,0,1551.82996824654,935.660420411767
37,104,3,312,0.5,-0.5,-0.5,1,1,0.8,1,559,1,1,559,1,0,0.4,NaN,0.211561923286765,0.211561923286765,750,1,0,congruent,1,1128.37109630745,498.120602027271
37,104,3,313,-0.5,-0.5,0,4,NaN,0.8,4,712,1,1,712,1,0,0.6,0.8,1.42068184809307,1.42068184809307,750,0,0,neutral,0.1,2814.15075710597,2927.55940120893
37,104,3,314,-0.5,0.5,-0.5,3,3,0.8,3,503,1,1,503,1,0,0.8,0.6,-0.230991774681557,-0.230991774681557,750,1,0,congruent,0.1,1052.55412569849,689.320697362056
37,104,3,315,-0.5,0.5,0,4,NaN,0.8,4,535,1,1,535,1,0,1,0.8,0.021896052728913,0.021896052728913,750,0,0,neutral,0.1,1044.05744680114,783.386984808368
37,104,3,316,-0.5,0.5,-0.5,1,1,0.8,1,360,1,1,360,1,0,1,0.8,-1.36108425342209,-1.36108425342209,750,1,0,congruent,0.1,1516.18981821595,4403.32007583156
37,104,3,318,0.5,-0.5,0.5,1,3,0.8,1,533,1,1,533,1,0,0.8,NaN,0.00609056351575865,0.00609056351575865,750,0,0,incongruent,1,774.641164045688,778.922770465072
37,104,3,319,0.5,0.5,-0.5,4,4,0.8,4,467,1,1,467,1,0,1,NaN,-0.515490580518335,-0.515490580518335,750,1,0,congruent,1,835.289292062816,138.572851360871
37,104,3,320,0.5,0.5,-0.5,2,2,0.8,2,765,1,0,765,0,0,1.2,NaN,1.83952731224166,1.83952731224166,750,1,0,congruent,0,694.557065282742,3548.14816262293
37,104,3,321,-0.5,0.5,0,3,NaN,0.6,3,479,1,1,479,1,0,1,1,-0.420657645239409,-0.420657645239409,750,0,0,neutral,0.1,1709.78783000294,903.286028506561
37,104,3,322,-0.5,0.5,-0.5,2,2,0.6,2,585,1,1,585,1,0,1,1,0.417033283057772,0.417033283057772,750,1,0,congruent,0.1,638.231425430037,1101.58339665234
37,104,3,323,-0.5,-0.5,0,3,NaN,0.6,3,654,1,1,654,0,0,1.2,0.8,0.962322660911597,0.962322660911597,750,0,0,neutral,0,3385.07917140549,3177.04127150222
37,104,3,324,0.5,-0.5,0.5,2,4,0.6,2,910,1,0,910,0,0,0.8,NaN,2.98542528019535,2.98542528019535,750,0,0,incongruent,0,1542.62984183689,2434.91303261421
37,104,3,325,-0.5,0.5,0.5,3,1,0.6,1,656,0,1,NaN,0,0,0.4,1,0.978128150124751,NaN,750,1,0,incongruent,0,6184.92961758414,1068.83851825859
37,104,3,326,-0.5,-0.5,0.5,1,2,0.6,2,607,0,1,NaN,1,0,0.4,0.6,0.59089366440247,NaN,750,1,0,incongruent,0.1,1370.64311306463,846.312631410691
37,104,3,327,0.5,0.5,0,3,NaN,0.6,3,873,1,0,873,0,0,0.4,NaN,2.693023729752,2.693023729752,750,0,0,neutral,0,1209.78834920087,3555.388286497
37,104,3,328,0.5,0.5,-0.5,4,4,0.4,4,520,1,1,520,1,0,0.2,NaN,-0.0966451163697446,-0.0966451163697446,750,1,0,congruent,1,659.189658103697,726.952098238788
37,104,3,329,0.5,0.5,-0.5,3,3,0.6,3,544,1,1,544,1,0,0.6,NaN,0.0930207541881076,0.0930207541881076,750,1,0,congruent,1,6101.45043736954,1911.76638495634
37,104,3,330,-0.5,0.5,0.5,2,4,0.6,2,704,1,1,704,1,0,1,0.8,1.35745989124046,1.35745989124046,750,0,0,incongruent,0.1,2535.82941403124,2402.60770924569
37,104,3,332,-0.5,-0.5,0,1,NaN,0.6,1,614,1,1,614,0,0,1,0.4,0.64621287664851,0.64621287664851,750,0,0,neutral,0,1018.06878419169,528.066643134714
37,104,3,333,0.5,-0.5,-0.5,4,4,0.6,4,577,1,1,577,1,0,1,NaN,0.353811326205154,0.353811326205154,750,1,0,congruent,1,3137.86663246036,1342.47194856143
37,104,3,334,-0.5,-0.5,-0.5,1,1,0.6,1,690,1,1,690,1,0,1,0.4,1.24682146674838,1.24682146674838,750,1,0,congruent,0.1,1013.54381602012,2014.13939736377
37,104,3,335,0.5,0.5,-0.5,2,2,0.6,2,584,1,1,584,1,0,0.8,NaN,0.409130538451195,0.409130538451195,750,1,0,congruent,1,1509.20581612738,4542.82478717419
37,104,3,336,-0.5,-0.5,0.5,4,1,0.8,4,731,1,1,731,1,0,1,0.4,1.57083399561804,1.57083399561804,750,0,0,incongruent,0.1,896.678629309339,2802.1276629386
37,104,3,337,0.5,0.5,0,1,NaN,0.8,1,583,1,1,583,1,0,1.2,NaN,0.401227793844617,0.401227793844617,750,0,0,neutral,1,1505.10900813338,1375.60898802032
37,104,3,338,-0.5,-0.5,-0.5,2,2,1,2,450,1,1,450,1,0,1.6,0.6,-0.649837238830147,-0.649837238830147,750,1,0,congruent,0.1,401.040674181396,919.743695630082
37,104,3,339,0.5,-0.5,0.5,3,4,1,3,377,1,1,377,1,0,1.4,NaN,-1.22673759511028,-1.22673759511028,750,0,0,incongruent,1,1182.88203398273,4129.23534239055
37,104,3,340,0.5,-0.5,0,4,NaN,1,4,445,1,1,445,1,0,1.6,NaN,-0.689350961863033,-0.689350961863033,750,0,0,neutral,1,1934.62175158957,1003.4260160711
37,104,3,341,0.5,-0.5,-0.5,2,2,1,2,585,1,1,585,1,0,1.6,NaN,0.417033283057772,0.417033283057772,750,1,0,congruent,1,722.47519792398,660.613161261208
37,104,3,342,-0.5,0.5,0.5,4,1,1,4,721,1,1,721,1,0,1.8,0.8,1.49180654955227,1.49180654955227,750,0,0,incongruent,0.1,249.634692419206,2192.49813871941
37,104,3,343,-0.5,0.5,0.5,1,2,1,1,596,1,1,596,1,0,1.6,0.8,0.503963473730121,0.503963473730121,750,0,0,incongruent,0.1,11275.0406536967,1403.27873412034
37,104,3,344,0.5,0.5,-0.5,3,3,1,3,337,1,1,337,1,0,1.6,NaN,-1.54284737937337,-1.54284737937337,750,1,0,congruent,1,858.228670429654,1276.19723726922
37,104,3,345,-0.5,-0.5,-0.5,2,2,1,2,795,1,0,795,1,0,1.6,0.6,2.07660965043898,2.07660965043898,750,1,0,congruent,0.1,525.719557144602,2822.7586022002
37,104,3,347,0.5,0.5,0.5,1,4,1,1,590,1,1,590,1,0,1.4,NaN,0.456547006090658,0.456547006090658,750,0,0,incongruent,1,675.356629792769,4279.45923503627
37,104,3,348,-0.5,0.5,-0.5,3,3,1,3,460,1,1,460,1,0,1.6,0.8,-0.570809792764375,-0.570809792764375,750,1,0,congruent,0.1,931.219285923799,1762.72908523167
37,104,3,350,-0.5,-0.5,0.5,1,2,0.8,1,504,1,1,504,1,0,1.2,0.8,-0.223089030074979,-0.223089030074979,750,0,0,incongruent,0.1,2876.86513471918,791.806004110558
37,104,3,351,-0.5,-0.5,-0.5,3,3,0.8,3,556,1,1,556,1,0,1.2,1,0.187853689467034,0.187853689467034,750,1,0,congruent,0.1,2067.88088166434,7513.1986530601
37,104,3,352,0.5,0.5,0.5,4,2,0.8,4,552,1,1,552,1,0,1,NaN,0.156242711040725,0.156242711040725,750,0,0,incongruent,1,1306.01646922676,2298.32021141297
37,104,3,353,-0.5,0.5,0.5,3,4,0.8,3,735,1,1,735,1,0,1,0.8,1.60244497404435,1.60244497404435,750,0,0,incongruent,0.1,1768.80092548945,886.356803644657
37,104,3,354,0.5,0.5,-0.5,2,2,0.8,2,387,1,1,387,1,0,1,NaN,-1.14771014904451,-1.14771014904451,750,1,0,congruent,1,3165.15780223352,285.700946106061
37,104,3,355,0.5,-0.5,0.5,3,4,0.8,3,401,1,1,401,1,0,1.4,NaN,-1.03707172455243,-1.03707172455243,750,0,0,incongruent,1,2735.37379120757,1052.35335080976
37,104,3,356,0.5,0.5,0,1,NaN,0.8,1,349,1,1,349,1,0,1.6,NaN,-1.44801444409444,-1.44801444409444,750,0,0,neutral,1,3770.99450556964,1608.16883385711
37,104,3,357,-0.5,-0.5,0.5,2,4,0.8,2,942,1,0,942,1,0,1.8,1,3.23831310760582,3.23831310760582,750,0,0,incongruent,0.1,2045.28081876066,2401.55627088589
37,104,3,358,-0.5,-0.5,0.5,1,3,0.8,1,538,1,1,538,1,0,1.6,1,0.0456042865486445,0.0456042865486445,750,0,0,incongruent,0.1,921.956883835318,2074.28386641067
37,104,3,359,-0.5,-0.5,-0.5,2,2,0.8,2,587,1,1,587,1,0,1.6,1,0.432838772270926,0.432838772270926,750,1,0,congruent,0.1,3406.5325948576,1067.28490130403
37,104,3,360,0.5,-0.5,-0.5,4,4,0.8,4,715,1,1,715,1,0,1.4,NaN,1.4443900819128,1.4443900819128,750,1,0,congruent,1,3397.68385105367,2097.37461576738
37,104,3,361,-0.5,-0.5,0,2,NaN,0.8,2,512,1,1,512,1,0,1.4,1,-0.159867073222362,-0.159867073222362,750,0,0,neutral,0.1,699.857677481026,1304.19833537678
37,104,3,362,0.5,-0.5,-0.5,1,1,0.8,1,482,1,1,482,1,0,1.2,NaN,-0.396949411419677,-0.396949411419677,750,1,0,congruent,1,1816.40821855484,1076.58147449606
37,104,3,363,0.5,0.5,-0.5,2,2,0.8,2,456,1,1,456,1,0,1.4,NaN,-0.602420771190684,-0.602420771190684,750,1,0,congruent,1,1142.76381574154,1368.15352449847
37,104,3,364,0.5,0.5,0.5,4,1,1,4,643,1,1,643,1,0,1.6,NaN,0.875392470239248,0.875392470239248,750,0,0,incongruent,1,2645.39203005508,5148.45719975634
37,104,3,365,-0.5,-0.5,0,1,NaN,1,1,655,1,1,655,1,0,1.8,1,0.970225405518174,0.970225405518174,750,0,0,neutral,0.1,1701.82942625585,1828.52490006779
37,104,3,366,-0.5,-0.5,0.5,3,4,1,3,542,1,1,542,1,0,1.6,1,0.0772152649749532,0.0772152649749532,750,0,0,incongruent,0.1,1857.27241084341,1959.3204704495
37,104,3,367,0.5,-0.5,-0.5,2,2,1,3,828,0,0,NaN,1,0,1.6,NaN,2.33740022245603,NaN,750,0,1,congruent,1,1086.46366390765,4964.90601657319
37,104,3,368,0.5,0.5,0,3,NaN,1,2,525,0,1,NaN,0,0,1.6,NaN,-0.0571313933368588,NaN,750,0,1,neutral,0,3684.95848319187,2649.86144664479
37,104,3,369,-0.5,0.5,-0.5,2,2,0.8,2,474,1,1,474,1,0,1.2,0.8,-0.460171368272295,-0.460171368272295,750,1,0,congruent,0.1,1494.6352478879,1875.04834687594
37,104,3,370,-0.5,0.5,-0.5,4,4,0.8,4,543,1,1,543,1,0,1,0.8,0.0851180095815304,0.0851180095815304,750,1,0,congruent,0.1,3930.7712165389,1409.84424558841
37,104,3,371,-0.5,-0.5,0.5,1,2,0.8,1,640,1,1,640,1,0,1,1,0.851684236419517,0.851684236419517,750,0,0,incongruent,0.1,2054.56693064552,1272.38940223514
37,104,3,372,-0.5,0.5,-0.5,3,3,0.8,3,469,1,1,469,1,0,1,0.8,-0.499685091305181,-0.499685091305181,750,1,0,congruent,0.1,1808.7610477245,2167.38706671207
37,104,3,373,0.5,-0.5,0.5,4,1,0.8,1,533,0,1,NaN,1,0,0.8,NaN,0.00609056351575865,NaN,750,1,0,incongruent,1,1217.60178271628,1486.26212635553
37,104,3,374,0.5,0.5,-0.5,2,2,0.8,2,536,1,1,536,1,0,1.2,NaN,0.0297987973354902,0.0297987973354902,750,1,0,congruent,1,3244.96775477145,1400.72924495816
37,104,3,375,-0.5,-0.5,0,1,NaN,0.8,1,424,1,1,424,1,0,1.4,1,-0.855308598601154,-0.855308598601154,750,0,0,neutral,0.1,2182.18310615021,1949.97912676738
37,104,3,376,0.5,0.5,-0.5,2,2,0.8,2,406,1,1,406,1,0,1.4,NaN,-0.997558001519543,-0.997558001519543,750,1,0,congruent,1,611.542004014293,1402.02330409819
37,104,3,377,0.5,-0.5,0.5,4,1,1,2,489,0,1,NaN,1,0,1.6,NaN,-0.341630199173637,NaN,750,0,1,incongruent,1,1793.30043802376,570.016838729859
37,104,3,378,-0.5,-0.5,-0.5,2,2,1,2,559,1,1,559,1,0,1.8,1,0.211561923286765,0.211561923286765,750,1,0,congruent,0.1,3883.97920634594,433.797225443819
37,104,3,379,-0.5,-0.5,-0.5,1,1,1,1,415,1,1,415,1,0,1.6,1,-0.926433300060348,-0.926433300060348,750,1,0,congruent,0.1,729.247035145812,1080.71843180832
37,104,3,380,0.5,0.5,-0.5,4,4,1,4,510,1,1,510,1,0,1.4,NaN,-0.175672562435516,-0.175672562435516,750,1,0,congruent,1,1845.29884408791,2037.39116234838
37,104,3,381,-0.5,-0.5,0,1,NaN,1,1,425,1,1,425,1,0,1.6,1,-0.847405853994576,-0.847405853994576,750,0,0,neutral,0.1,1499.34638259373,1860.56574114276
37,104,3,382,0.5,-0.5,0.5,2,3,1,3,501,0,1,NaN,1,0,1.4,NaN,-0.246797263894711,NaN,750,1,0,incongruent,1,13002.0301029172,2416.54731356089
37,104,3,383,-0.5,0.5,-0.5,1,1,1,1,424,1,1,424,1,0,1.4,0.8,-0.855308598601154,-0.855308598601154,750,1,0,congruent,0.1,1515.9856970618,380.762323579572
37,104,3,384,-0.5,0.5,0.5,2,4,1,2,474,1,1,474,1,0,1.4,1,-0.460171368272295,-0.460171368272295,750,0,0,incongruent,0.1,1640.06437476068,1974.9913612051
37,104,3,385,-0.5,-0.5,-0.5,1,1,1,1,403,1,1,403,1,0,1.4,1,-1.02126623533927,-1.02126623533927,750,1,0,congruent,0.1,657.570021184874,1479.20776678723
37,104,3,386,-0.5,-0.5,0.5,3,4,1,3,493,1,1,493,1,0,1.2,1,-0.310019220747328,-0.310019220747328,750,0,0,incongruent,0.1,759.598910889546,1433.29914036372
37,104,3,387,0.5,-0.5,-0.5,2,2,1,2,492,1,1,492,1,0,1.2,NaN,-0.317921965353906,-0.317921965353906,750,1,0,congruent,1,729.982409593469,2457.74300758782
37,104,3,388,0.5,0.5,-0.5,4,4,1,4,521,1,1,521,1,0,1.2,NaN,-0.0887423717631675,-0.0887423717631675,750,1,0,congruent,1,1949.10218478881,2569.31067118519
37,104,3,389,-0.5,0.5,-0.5,1,1,1,1,390,1,1,390,1,0,1.4,1,-1.12400191522478,-1.12400191522478,750,1,0,congruent,0.1,3252.3018213378,2277.89553027338
37,104,3,390,-0.5,-0.5,0.5,2,3,1,2,706,1,1,706,1,0,1.4,1,1.37326538045361,1.37326538045361,750,0,0,incongruent,0.1,903.443739788919,786.287451868113
37,104,3,391,-0.5,0.5,-0.5,4,4,1,4,762,1,0,762,0,0,1.4,1,1.81581907842193,1.81581907842193,750,1,0,congruent,0,1145.58127814467,1294.40752261694
37,104,3,392,-0.5,-0.5,0.5,2,1,0.8,2,772,1,0,772,1,0,1.2,1,1.8948465244877,1.8948465244877,750,0,0,incongruent,0.1,1186.67957852992,712.488436621665
37,104,3,393,-0.5,-0.5,-0.5,3,3,0.8,3,533,1,1,533,1,0,1,1,0.00609056351575865,0.00609056351575865,750,1,0,congruent,0.1,535.697045494256,2558.658020541
37,104,3,394,-0.5,0.5,0,2,NaN,0.8,2,622,1,1,622,1,0,0.8,0.8,0.709434833501127,0.709434833501127,750,0,0,neutral,0.1,2031.98927509323,2282.94987722703
37,104,3,395,-0.5,0.5,0.5,3,4,0.8,3,520,1,1,520,1,0,0.8,0.8,-0.0966451163697446,-0.0966451163697446,750,0,0,incongruent,0.1,1160.87121484607,1378.39910476337
37,104,3,396,-0.5,0.5,0.5,1,3,0.8,1,497,1,1,497,1,0,0.8,0.8,-0.27840824232102,-0.27840824232102,750,0,0,incongruent,0.1,875.86650456452,1802.99172768153
37,104,3,397,-0.5,0.5,0,2,NaN,0.8,2,548,1,1,548,1,0,1,0.8,0.124631732614416,0.124631732614416,750,0,0,neutral,0.1,2985.35069374977,2883.63303498603
37,104,3,398,0.5,0.5,-0.5,1,1,0.8,1,557,1,1,557,1,0,1,NaN,0.195756434073611,0.195756434073611,750,1,0,congruent,1,1243.99628575918,532.011337672551
37,104,3,399,0.5,-0.5,-0.5,4,4,1,4,665,1,1,665,1,0,1.2,NaN,1.04925285158395,1.04925285158395,750,1,0,congruent,1,1822.50434554169,1107.16045688442
37,104,3,400,0.5,-0.5,0,3,NaN,1,2,614,0,1,NaN,1,0,1.4,NaN,0.64621287664851,NaN,750,0,1,neutral,1,2124.16474906985,2594.32040741965
37,104,3,401,-0.5,-0.5,0.5,1,2,1,1,579,1,1,579,1,0,1.6,1,0.369616815418309,0.369616815418309,750,0,0,incongruent,0.1,2844.33806703738,1886.12570235405
37,104,3,402,0.5,-0.5,0.5,3,4,1,3,452,1,1,452,1,0,1.6,NaN,-0.634031749616993,-0.634031749616993,750,0,0,incongruent,1,1046.84528759311,1280.60818812174
37,104,3,403,-0.5,-0.5,0.5,4,2,1,4,398,1,1,398,1,0,1.8,1,-1.06077995837216,-1.06077995837216,750,0,0,incongruent,0.1,1115.56066808067,2687.84347415156
37,104,3,404,0.5,0.5,0.5,2,4,1,2,735,1,1,735,1,0,1.6,NaN,1.60244497404435,1.60244497404435,750,0,0,incongruent,1,4248.02866297799,1079.12953669479
37,104,3,405,-0.5,-0.5,0.5,4,1,1,4,637,1,1,637,1,0,1.6,1,0.827976002599785,0.827976002599785,750,0,0,incongruent,0.1,3884.60439690144,1523.05500147221
37,104,3,406,0.5,-0.5,0.5,1,4,1,1,451,1,1,451,1,0,1.4,NaN,-0.64193449422357,-0.64193449422357,750,0,0,incongruent,1,585.337269854476,1118.37916993494
37,104,3,407,-0.5,-0.5,-0.5,3,3,1,3,364,1,1,364,1,0,1.6,1,-1.32947327499578,-1.32947327499578,750,1,0,congruent,0.1,1672.45611129564,1440.54062822646
37,104,3,408,-0.5,-0.5,0,1,NaN,1,2,417,0,1,NaN,1,0,1.4,1,-0.910627810847194,NaN,750,0,1,neutral,0.1,2444.82149337215,1357.75441289514
37,104,3,409,-0.5,0.5,-0.5,2,2,1,2,322,1,1,322,1,0,1.4,0.8,-1.66138854847203,-1.66138854847203,750,1,0,congruent,0.1,1210.23676612575,388.11931439443
37,104,3,410,-0.5,-0.5,0.5,4,3,1,4,535,1,1,535,1,0,1.2,1,0.021896052728913,0.021896052728913,750,0,0,incongruent,0.1,1456.66741044645,1510.53622193125
37,104,3,411,-0.5,-0.5,0,3,NaN,1,3,496,1,1,496,1,0,1.2,1,-0.286310986927597,-0.286310986927597,750,0,0,neutral,0.1,2616.81907447816,1407.42653020144
37,104,3,412,-0.5,0.5,-0.5,1,1,1,1,731,1,1,731,1,0,1,1,1.57083399561804,1.57083399561804,750,1,0,congruent,0.1,998.400966233383,710.382009265438
37,104,3,413,0.5,-0.5,-0.5,4,4,1,3,493,0,1,NaN,1,0,1,NaN,-0.310019220747328,NaN,750,0,1,congruent,1,1922.74802084742,610.798591282111
37,104,3,414,-0.5,-0.5,-0.5,2,2,1,2,491,1,1,491,1,0,1.2,1,-0.325824709960483,-0.325824709960483,750,1,0,congruent,0.1,894.81853474892,1595.85447807085
37,104,3,415,0.5,-0.5,-0.5,1,1,1,1,438,1,1,438,1,0,1.2,NaN,-0.744670174109073,-0.744670174109073,750,1,0,congruent,1,1933.41968838527,3995.56910458986
37,104,3,416,0.5,0.5,0.5,2,4,1,2,445,1,1,445,1,0,1.4,NaN,-0.689350961863033,-0.689350961863033,750,0,0,incongruent,1,2260.24992408785,1843.75303409541
37,104,3,417,0.5,0.5,-0.5,3,3,1,3,264,1,1,264,1,0,1.6,NaN,-2.1197477356535,-2.1197477356535,750,1,0,congruent,1,712.064033001305,1520.28578402732
37,104,3,418,-0.5,0.5,-0.5,4,4,1,4,579,1,1,579,1,0,1.8,1,0.369616815418309,0.369616815418309,750,1,0,congruent,0.1,1473.15658814462,793.005151804546
37,104,3,419,0.5,0.5,-0.5,3,3,1,2,414,0,1,NaN,0,0,1.6,NaN,-0.934336044666925,NaN,750,0,1,congruent,0,3320.144081487,1154.1869566972
37,104,3,420,0.5,-0.5,-0.5,1,1,0.8,1,361,1,1,361,0,0,1.4,NaN,-1.35318150881552,-1.35318150881552,750,1,0,congruent,0,593.937688527785,1479.4946856913
37,104,3,421,0.5,-0.5,-0.5,3,3,0.8,3,405,1,1,405,1,0,1,NaN,-1.00546074612612,-1.00546074612612,750,1,0,congruent,1,2046.8448015585,556.564977121188
37,104,3,422,-0.5,0.5,-0.5,2,2,0.8,2,584,1,1,584,1,0,1,1,0.409130538451195,0.409130538451195,750,1,0,congruent,0.1,1639.58418556853,805.116612664349
37,104,3,423,-0.5,0.5,0.5,1,3,0.8,1,531,1,1,531,1,0,0.8,1,-0.0097149256973957,-0.0097149256973957,750,0,0,incongruent,0.1,2387.39621235256,1539.06163601935
37,104,3,424,0.5,0.5,0,4,NaN,0.8,4,579,1,1,579,1,0,0.8,NaN,0.369616815418309,0.369616815418309,750,0,0,neutral,1,637.177273936537,2220.77326573662
37,104,3,425,-0.5,0.5,0.5,3,1,0.8,3,521,1,1,521,1,0,1.2,1,-0.0887423717631675,-0.0887423717631675,750,0,0,incongruent,0.1,1585.76526698573,698.372548247074
37,104,3,426,0.5,0.5,0.5,2,4,0.8,3,570,0,1,NaN,0,0,1.4,NaN,0.298492113959114,NaN,750,0,1,incongruent,0,1394.51119990997,2113.85680773863
37,104,3,427,0.5,0.5,-0.5,3,3,0.8,3,657,1,1,657,1,0,1,NaN,0.986030894731329,0.986030894731329,750,1,0,congruent,1,3087.90432484063,2142.06672237218
37,104,3,428,0.5,0.5,0.5,2,1,0.8,2,412,1,1,412,1,0,1.2,NaN,-0.95014153388008,-0.95014153388008,750,0,0,incongruent,1,3050.59682864499,802.960964803609
37,104,3,429,0.5,-0.5,0.5,1,4,0.8,1,428,1,1,428,1,0,1.4,NaN,-0.823697620174845,-0.823697620174845,750,0,0,incongruent,1,501.267915995564,1087.30068663069
37,104,3,430,0.5,0.5,0.5,4,1,0.8,4,589,1,1,589,1,0,1.4,NaN,0.448644261484081,0.448644261484081,750,0,0,incongruent,1,1590.24832822433,1195.68574750881
37,104,3,431,-0.5,0.5,0.5,2,3,0.8,2,568,1,1,568,1,0,1.6,1,0.28268662474596,0.28268662474596,750,0,0,incongruent,0.1,1818.58707126257,200.357583640962
37,104,3,432,-0.5,-0.5,0.5,3,4,0.8,3,529,1,1,529,1,0,1.8,1,-0.0255204149105501,-0.0255204149105501,750,0,0,incongruent,0.1,785.047415942246,725.821423453386
37,104,3,433,0.5,0.5,0,2,NaN,0.8,2,470,1,1,470,1,0,1.6,NaN,-0.491782346698603,-0.491782346698603,750,0,0,neutral,1,782.922080629543,755.600967421653
37,104,3,434,-0.5,-0.5,0.5,3,4,1,3,548,1,1,548,1,0,1.6,1,0.124631732614416,0.124631732614416,750,0,0,incongruent,0.1,4736.92224313093,1452.09132099129
37,104,3,436,0.5,-0.5,-0.5,2,2,1,2,449,1,1,449,1,0,1.2,NaN,-0.657739983436724,-0.657739983436724,750,1,0,congruent,1,1133.52180065076,1413.1378214233
37,104,3,437,0.5,-0.5,0.5,3,4,1,3,525,1,1,525,1,0,1.4,NaN,-0.0571313933368588,-0.0571313933368588,750,0,0,incongruent,1,1264.62888656651,837.105371248677
37,104,3,438,0.5,-0.5,0,4,NaN,1,4,393,1,1,393,1,0,1.6,NaN,-1.10029368140505,-1.10029368140505,750,0,0,neutral,1,1400.38914196687,1151.4526471211
37,104,3,439,0.5,-0.5,-0.5,2,2,1,2,501,1,1,501,1,0,1.6,NaN,-0.246797263894711,-0.246797263894711,750,1,0,congruent,1,3807.46469755515,1993.68668107688
37,104,3,440,-0.5,-0.5,0.5,3,1,1,3,611,1,1,611,1,0,1.8,1,0.622504642828778,0.622504642828778,750,0,0,incongruent,0.1,494.034806137328,803.047227601821
37,104,3,441,0.5,0.5,0,2,NaN,1,2,497,1,1,497,1,0,1.8,NaN,-0.27840824232102,-0.27840824232102,750,0,0,neutral,1,1706.86806912781,1404.77266929092
37,104,3,443,0.5,0.5,0,3,NaN,0.8,3,678,1,1,678,1,0,1.4,NaN,1.15198853146945,1.15198853146945,750,0,0,neutral,1,2769.25671306286,1828.37935549595
37,104,3,444,0.5,0.5,0.5,1,4,0.8,1,703,1,1,703,1,0,1.4,NaN,1.34955714663388,1.34955714663388,750,0,0,incongruent,1,919.618776650252,1270.39497897595
37,104,3,445,-0.5,0.5,-0.5,2,2,0.8,2,448,1,1,448,1,0,1.4,1,-0.665642728043301,-0.665642728043301,750,1,0,congruent,0.1,2420.39024051106,888.715839960524
37,104,3,447,0.5,-0.5,0.5,1,3,0.8,2,424,0,1,NaN,1,0,1.2,NaN,-0.855308598601154,NaN,750,0,1,incongruent,1,933.18027955288,1101.06290550688
37,104,3,448,0.5,0.5,0.5,3,1,0.8,1,974,0,0,NaN,0,0,1.6,NaN,3.49120093501629,NaN,750,1,0,incongruent,0,3375.79216796195,2088.33896644008
37,104,3,449,0.5,-0.5,-0.5,2,2,0.6,2,505,1,1,505,1,0,1.2,NaN,-0.215186285468402,-0.215186285468402,750,1,0,congruent,1,2266.24241382187,437.032934942851
37,104,4,451,0.5,0.5,0.5,4,2,0.6,4,781,1,0,781,0,0,1.4,NaN,1.9659712259469,1.9659712259469,750,0,0,incongruent,0,398.428075822907,570.275168960155
37,104,4,452,0.5,0.5,0.5,1,4,0.6,1,509,1,1,509,1,0,1.2,NaN,-0.183575307042094,-0.183575307042094,750,0,0,incongruent,1,2111.1393082224,764.768193359019
37,104,4,453,-0.5,0.5,0,4,NaN,0.6,4,421,1,1,421,1,0,1.2,1,-0.879016832420885,-0.879016832420885,750,0,0,neutral,0.1,685.013434593327,1060.26188473273
37,104,4,454,-0.5,0.5,-0.5,3,3,0.6,3,324,1,1,324,1,0,1.4,1,-1.64558305925887,-1.64558305925887,750,1,0,congruent,0.1,1116.36003008542,408.952551956947
37,104,4,455,-0.5,0.5,0,1,NaN,0.6,1,583,1,1,583,1,0,1.2,1,0.401227793844617,0.401227793844617,750,0,0,neutral,0.1,345.565479564716,1515.59598172821
37,104,4,456,-0.5,0.5,0.5,3,4,0.8,3,696,1,1,696,1,0,1,1,1.29423793438784,1.29423793438784,750,0,0,incongruent,0.1,1027.90558326171,1005.76320701027
37,104,4,457,0.5,0.5,0,2,NaN,1,2,334,1,1,334,1,0,1.2,NaN,-1.5665556131931,-1.5665556131931,750,0,0,neutral,1,1193.99366168212,1530.15193571531
37,104,4,458,-0.5,-0.5,0.5,1,4,1,1,450,1,1,450,1,0,1.2,1,-0.649837238830147,-0.649837238830147,750,0,0,incongruent,0.1,5972.32371902332,2785.42958154378
37,104,4,459,-0.5,-0.5,0,4,NaN,1,4,377,1,1,377,1,0,1.2,1,-1.22673759511028,-1.22673759511028,750,0,0,neutral,0.1,1274.1997850361,1254.23264740911
37,104,4,460,0.5,0.5,-0.5,1,1,1,1,558,1,1,558,1,0,1.2,NaN,0.203659178680188,0.203659178680188,750,1,0,congruent,1,3938.28817188241,2529.52739012306
37,104,4,461,-0.5,-0.5,-0.5,4,4,1,4,489,1,1,489,1,0,1.4,1,-0.341630199173637,-0.341630199173637,750,1,0,congruent,0.1,680.631134599158,864.256488382771
37,104,4,462,0.5,0.5,-0.5,1,1,1,1,492,1,1,492,1,0,1.4,NaN,-0.317921965353906,-0.317921965353906,750,1,0,congruent,1,1775.65797514538,2550.48731335285
37,104,4,463,-0.5,-0.5,0,2,NaN,1,3,469,0,1,NaN,1,0,1.4,1,-0.499685091305181,NaN,750,0,1,neutral,0.1,894.99301285924,540.713251669484
37,104,4,464,-0.5,-0.5,-0.5,4,4,1,4,676,1,1,676,1,0,1.4,1,1.13618304225629,1.13618304225629,750,1,0,congruent,0.1,894.137508869736,1266.45679976187
37,104,4,465,-0.5,-0.5,0,3,NaN,1,3,608,1,1,608,1,0,1.4,1,0.598796409009047,0.598796409009047,750,0,0,neutral,0.1,2568.42749173831,435.481791716105
37,104,4,466,-0.5,-0.5,-0.5,4,4,1,4,461,1,1,461,1,0,1.2,1,-0.562907048157798,-0.562907048157798,750,1,0,congruent,0.1,1992.19599156987,4259.15771433146
37,104,4,467,0.5,0.5,0.5,1,3,1,1,630,1,1,630,1,0,1.2,NaN,0.772656790353745,0.772656790353745,750,0,0,incongruent,1,2122.72153698581,1023.17998300076
37,104,4,468,-0.5,-0.5,0.5,4,2,1,4,455,1,1,455,1,0,1.2,1,-0.610323515797261,-0.610323515797261,750,0,0,incongruent,0.1,2153.7343338243,1634.70417423932
37,104,4,469,0.5,0.5,0,3,NaN,1,3,481,1,1,481,1,0,1.2,NaN,-0.404852156026255,-0.404852156026255,750,0,0,neutral,1,2025.74444235239,706.424550180135
37,104,4,470,-0.5,0.5,-0.5,1,1,1,1,678,1,1,678,1,0,1.4,1,1.15198853146945,1.15198853146945,750,1,0,congruent,0.1,1546.03524116271,1279.13897945984
37,104,4,471,-0.5,0.5,0,4,NaN,1,4,505,1,1,505,1,0,1.4,1,-0.215186285468402,-0.215186285468402,750,0,0,neutral,0.1,1285.59275123529,830.770250317598
37,104,4,472,0.5,0.5,-0.5,1,1,1,1,455,1,1,455,1,0,1.4,NaN,-0.610323515797261,-0.610323515797261,750,1,0,congruent,1,1549.66229217041,259.724794701572
37,104,4,474,-0.5,-0.5,-0.5,1,1,0.8,1,426,1,1,426,1,0,1.2,1,-0.839503109387999,-0.839503109387999,750,1,0,congruent,0.1,4758.82337497051,1069.70774616134
37,104,4,476,0.5,0.5,-0.5,2,2,0.8,2,560,1,1,560,1,0,1,NaN,0.219464667893342,0.219464667893342,750,1,0,congruent,1,1817.97099690883,752.769487794292
37,104,4,477,-0.5,0.5,-0.5,3,3,0.8,3,392,1,1,392,1,0,1.2,0.8,-1.10819642601162,-1.10819642601162,750,1,0,congruent,0.1,10242.1331067718,2813.71336623404
37,104,4,478,-0.5,-0.5,0.5,1,2,0.8,1,656,1,1,656,1,0,1,1,0.978128150124751,0.978128150124751,750,0,0,incongruent,0.1,352.970383513539,2499.10808536278
37,104,4,479,0.5,-0.5,0,4,NaN,0.8,4,578,1,1,578,1,0,1.2,NaN,0.361714070811732,0.361714070811732,750,0,0,neutral,1,945.370848040214,897.851050768113
37,104,4,480,0.5,-0.5,-0.5,1,1,0.8,1,314,1,1,314,1,0,1.4,NaN,-1.72461050532464,-1.72461050532464,750,1,0,congruent,1,1155.46309963146,2049.13485738191
37,104,4,481,0.5,-0.5,0,2,NaN,0.8,2,473,1,1,473,0,0,1.6,NaN,-0.468074112878872,-0.468074112878872,750,0,0,neutral,0,3009.8166904962,1326.85860174321
37,104,4,482,0.5,0.5,-0.5,1,1,0.8,1,346,1,1,346,1,0,1.2,NaN,-1.47172267791417,-1.47172267791417,750,1,0,congruent,1,2970.52228104179,1162.43878969445
37,104,4,483,-0.5,-0.5,0,2,NaN,0.8,3,587,0,1,NaN,0,0,1.4,1,0.432838772270926,NaN,750,0,1,neutral,0,2534.96481939908,1089.12012806715
37,104,4,484,-0.5,0.5,0.5,4,1,0.8,4,523,1,1,523,1,0,1.2,0.8,-0.0729368825500131,-0.0729368825500131,750,0,0,incongruent,0.1,1376.73782531351,383.23023396179
37,104,4,485,-0.5,0.5,0.5,2,3,0.8,2,677,1,1,677,1,0,1,0.8,1.14408578686287,1.14408578686287,750,0,0,incongruent,0.1,1200.01494312589,4789.72917122992
37,104,4,487,0.5,0.5,0,2,NaN,0.8,2,846,1,0,846,0,0,0.8,NaN,2.47964962537441,2.47964962537441,750,0,0,neutral,0,1017.64415367882,1272.66388999835
37,104,4,488,-0.5,-0.5,-0.5,4,4,0.6,4,450,1,1,450,0,0,0.4,0.8,-0.649837238830147,-0.649837238830147,750,1,0,congruent,0,2953.4779241175,1865.23936206156
37,104,4,489,-0.5,0.5,0,1,NaN,0.6,1,336,1,1,336,1,0,0.4,0.6,-1.55075012397995,-1.55075012397995,750,0,0,neutral,0.1,1259.47204709368,1249.66053589369
37,104,4,490,0.5,-0.5,-0.5,3,3,0.6,3,468,1,1,468,1,0,0.4,NaN,-0.507587835911758,-0.507587835911758,750,1,0,congruent,1,938.336092068817,1544.71632751309
37,104,4,491,0.5,-0.5,-0.5,1,1,0.6,1,446,1,1,446,0,0,0.6,NaN,-0.681448217256456,-0.681448217256456,750,1,0,congruent,0,1975.73709098593,784.613902101294
37,104,4,492,-0.5,-0.5,0.5,4,2,0.6,1,451,0,1,NaN,1,0,0.6,0.6,-0.64193449422357,NaN,750,0,1,incongruent,0.1,5349.12154578808,1414.31557589208
37,104,4,493,0.5,0.5,0.5,3,1,0.6,3,515,1,1,515,1,0,0.8,NaN,-0.136158839402631,-0.136158839402631,750,0,0,incongruent,1,2383.87038540739,455.895811668734
37,104,4,494,-0.5,0.5,0,1,NaN,0.6,1,453,1,1,453,1,0,1.2,0.8,-0.626129005010415,-0.626129005010415,750,0,0,neutral,0.1,2025.78491587843,1837.07355501774
37,104,4,495,0.5,0.5,-0.5,3,3,0.6,3,492,1,1,492,1,0,1.2,NaN,-0.317921965353906,-0.317921965353906,750,1,0,congruent,1,1654.6560142086,1344.61888494948
37,104,4,496,0.5,-0.5,-0.5,2,2,0.8,1,455,0,1,NaN,1,0,1.2,NaN,-0.610323515797261,NaN,750,0,1,congruent,1,1689.57992790828,3011.55941603244
37,104,4,497,0.5,-0.5,0.5,4,3,0.8,4,521,1,1,521,1,0,1.6,NaN,-0.0887423717631675,-0.0887423717631675,750,0,0,incongruent,1,3428.85552270758,869.693887827227
37,104,4,498,-0.5,0.5,0.5,1,2,0.8,1,522,1,1,522,1,0,1.8,0.8,-0.0808396271565903,-0.0808396271565903,750,0,0,incongruent,0.1,1108.96409068156,1382.2734586043
37,104,4,499,-0.5,-0.5,-0.5,3,3,1,3,326,1,1,326,1,0,1.6,0.6,-1.62977757004572,-1.62977757004572,750,1,0,congruent,0.1,1787.90136869679,1113.01002215637
37,104,4,500,-0.5,-0.5,0,1,NaN,1,1,531,1,1,531,1,0,1.6,0.6,-0.0097149256973957,-0.0097149256973957,750,0,0,neutral,0.1,855.262664797572,302.057879832689
37,104,4,501,0.5,-0.5,-0.5,2,2,1,2,376,1,1,376,1,0,1.4,NaN,-1.23464033971686,-1.23464033971686,750,1,0,congruent,1,227.511827388763,1199.20075191948
37,104,4,502,-0.5,-0.5,-0.5,3,3,1,3,356,1,1,356,1,0,1.4,0.6,-1.3926952318484,-1.3926952318484,750,1,0,congruent,0.1,3231.6805048725,2541.0911435307
37,104,4,503,0.5,-0.5,0.5,1,2,1,1,458,1,1,458,1,0,1.2,NaN,-0.58661528197753,-0.58661528197753,750,0,0,incongruent,1,2381.71717844656,2970.50870697852
37,104,4,504,0.5,-0.5,-0.5,3,3,1,3,520,1,1,520,1,0,1.4,NaN,-0.0966451163697446,-0.0966451163697446,750,1,0,congruent,1,2948.85621058675,1688.74756842374
37,104,4,505,0.5,-0.5,0.5,2,1,1,2,640,1,1,640,1,0,1.6,NaN,0.851684236419517,0.851684236419517,750,0,0,incongruent,1,1072.07590854781,1483.98666498589
37,104,4,506,-0.5,0.5,0,3,NaN,1,3,638,1,1,638,1,0,1.8,0.8,0.835878747206362,0.835878747206362,750,0,0,neutral,0.1,337.673166442806,847.335661414362
37,104,4,507,0.5,-0.5,-0.5,4,4,1,4,435,1,1,435,1,0,1.6,NaN,-0.768378407928805,-0.768378407928805,750,1,0,congruent,1,1105.87152231162,1260.61592756999
37,104,4,508,0.5,-0.5,0,2,NaN,1,2,484,1,1,484,1,0,1.8,NaN,-0.381143922206523,-0.381143922206523,750,0,0,neutral,1,3410.50981806305,1048.20758572661
37,104,4,509,0.5,-0.5,-0.5,4,4,1,4,446,1,1,446,1,0,1.8,NaN,-0.681448217256456,-0.681448217256456,750,1,0,congruent,1,2123.81957115276,516.511029433194
37,104,4,510,-0.5,-0.5,-0.5,1,1,1,1,437,1,1,437,1,0,1.8,0.8,-0.75257291871565,-0.75257291871565,750,1,0,congruent,0.1,1899.81616739917,514.524128401565
37,104,4,511,0.5,-0.5,0,4,NaN,1,4,947,1,0,947,1,0,1.6,NaN,3.27782683063871,3.27782683063871,750,0,0,neutral,1,2322.14065174462,680.316341556933
37,104,4,512,-0.5,-0.5,-0.5,1,1,1,1,320,1,1,320,1,0,1.8,1,-1.67719403768518,-1.67719403768518,750,1,0,congruent,0.1,1213.48054029002,1638.12691298893
37,104,4,513,0.5,0.5,0.5,4,3,1,4,415,1,1,415,1,0,1.6,NaN,-0.926433300060348,-0.926433300060348,750,0,0,incongruent,1,2699.01857981914,838.986643600741
37,104,4,514,-0.5,-0.5,0.5,3,4,1,3,455,1,1,455,1,0,1.6,1,-0.610323515797261,-0.610323515797261,750,0,0,incongruent,0.1,840.49794871226,759.771817624466
37,104,4,515,-0.5,-0.5,-0.5,1,1,1,1,337,1,1,337,1,0,1.4,1,-1.54284737937337,-1.54284737937337,750,1,0,congruent,0.1,1796.7013658362,1110.04159411177
37,104,4,516,0.5,0.5,0,3,NaN,1,3,429,1,1,429,1,0,1.4,NaN,-0.815794875568268,-0.815794875568268,750,0,0,neutral,1,2007.32333024816,1262.19020202551
37,104,4,517,-0.5,-0.5,0.5,2,3,1,2,303,1,1,303,1,0,1.4,1,-1.81154069599699,-1.81154069599699,750,0,0,incongruent,0.1,2261.30439398937,1024.05975101139
37,104,4,518,-0.5,0.5,0,3,NaN,1,3,515,1,1,515,1,0,1.4,0.8,-0.136158839402631,-0.136158839402631,750,0,0,neutral,0.1,2034.59017253263,423.404847284405
37,104,4,519,0.5,-0.5,-0.5,2,2,1,2,571,1,1,571,1,0,1.2,NaN,0.306394858565691,0.306394858565691,750,1,0,congruent,1,3447.41576596507,1849.29475637838
37,104,4,520,0.5,0.5,0,1,NaN,1,1,342,1,1,342,1,0,1.4,NaN,-1.50333365634048,-1.50333365634048,750,0,0,neutral,1,1301.40140349422,2429.40668782842
37,104,4,521,-0.5,-0.5,-0.5,3,3,1,3,418,1,1,418,1,0,1.6,1,-0.902725066240617,-0.902725066240617,750,1,0,congruent,0.1,847.216931990111,563.374923575059
37,104,4,522,-0.5,0.5,0,1,NaN,1,1,456,1,1,456,1,0,1.4,1,-0.602420771190684,-0.602420771190684,750,0,0,neutral,0.1,1985.27053452582,1239.62292698967
37,104,4,523,-0.5,0.5,-0.5,3,3,1,3,409,1,1,409,1,0,1.4,1,-0.973849767699811,-0.973849767699811,750,1,0,congruent,0.1,2112.36871176449,3864.29143833884
37,104,4,524,0.5,0.5,0,2,NaN,1,2,308,1,1,308,1,0,1.4,NaN,-1.77202697296411,-1.77202697296411,750,0,0,neutral,1,2153.66388326201,748.428156618855
37,104,4,525,-0.5,-0.5,0.5,3,2,1,3,522,1,1,522,1,0,1.4,1,-0.0808396271565903,-0.0808396271565903,750,0,0,incongruent,0.1,2453.52995727332,982.048286638632
37,104,4,527,-0.5,-0.5,0.5,3,2,1,2,453,0,1,NaN,1,0,1.4,1,-0.626129005010415,NaN,750,1,0,incongruent,0.1,2273.99226237439,1282.23864935259
37,104,4,528,0.5,0.5,0,4,NaN,1,4,643,1,1,643,1,0,1.4,NaN,0.875392470239248,0.875392470239248,750,0,0,neutral,1,1734.60649802751,3295.62340848042
37,104,4,529,-0.5,-0.5,-0.5,3,3,1,3,468,1,1,468,1,0,1.6,1,-0.507587835911758,-0.507587835911758,750,1,0,congruent,0.1,1608.61901537729,1477.90193687828
37,104,4,530,-0.5,-0.5,0.5,1,2,1,1,471,1,1,471,1,0,1.4,1,-0.483879602092026,-0.483879602092026,750,0,0,incongruent,0.1,359.287647953498,919.427473532005
37,104,4,531,0.5,-0.5,0,2,NaN,1,2,597,1,1,597,1,0,1.4,NaN,0.511866218336698,0.511866218336698,750,0,0,neutral,1,1412.67771648392,1917.32094737505
37,104,4,532,0.5,0.5,0.5,3,1,1,1,616,0,1,NaN,0,0,1.4,NaN,0.662018365861664,NaN,750,1,0,incongruent,0,1945.39414097354,2426.77121844055
37,104,4,533,-0.5,-0.5,-0.5,4,4,0.8,4,474,1,1,474,1,0,1.2,1,-0.460171368272295,-0.460171368272295,750,1,0,congruent,0.1,2570.41332822017,1921.48650102663
37,104,4,534,-0.5,0.5,0,3,NaN,0.8,3,580,1,1,580,1,0,1,1,0.377519560024886,0.377519560024886,750,0,0,neutral,0.1,3315.31516474017,634.481610434624
37,104,4,535,-0.5,0.5,-0.5,1,1,0.8,1,838,1,0,838,0,0,1,1,2.4164276685218,2.4164276685218,750,1,0,congruent,0,1374.76280457095,1718.08526931739
37,104,4,536,0.5,-0.5,0,2,NaN,0.6,2,537,1,1,537,0,0,0.8,NaN,0.0377015419420674,0.0377015419420674,750,0,0,neutral,0,1966.99371096111,558.409836924289
37,104,4,537,-0.5,0.5,-0.5,1,1,0.6,1,398,1,1,398,1,0,0.4,0.8,-1.06077995837216,-1.06077995837216,750,1,0,congruent,0.1,1254.59890538523,1975.6308407607
37,104,4,538,-0.5,0.5,0,3,NaN,0.6,2,483,0,1,NaN,0,0,0.6,0.8,-0.3890466668131,NaN,750,0,1,neutral,0,761.095353428767,1743.42553780997
37,104,4,539,-0.5,0.5,-0.5,4,4,0.4,4,768,1,0,768,0,0,0.4,0.6,1.86323554606139,1.86323554606139,750,1,0,congruent,0,2048.58465162299,1515.03622653478
37,104,4,540,0.5,0.5,0,2,NaN,0.4,2,450,1,1,450,1,0,0.2,NaN,-0.649837238830147,-0.649837238830147,750,0,0,neutral,1,1785.65223344715,1926.02008282823
37,104,4,541,0.5,0.5,0.5,3,1,0.4,3,437,1,1,437,1,0,0.6,NaN,-0.75257291871565,-0.75257291871565,750,0,0,incongruent,1,1117.08762310644,1805.03282846089
37,104,4,542,0.5,0.5,0.5,1,2,0.6,1,577,1,1,577,1,0,1,NaN,0.353811326205154,0.353811326205154,750,0,0,incongruent,1,1079.26277200977,1764.19447644726
37,104,4,543,-0.5,0.5,0,4,NaN,0.6,4,409,1,1,409,1,0,1.2,0.4,-0.973849767699811,-0.973849767699811,750,0,0,neutral,0.1,2884.93508121801,677.620603150777
37,104,4,544,0.5,-0.5,-0.5,3,3,0.8,3,484,1,1,484,1,0,1.4,NaN,-0.381143922206523,-0.381143922206523,750,1,0,congruent,1,1503.58976808528,1162.37793753651
37,104,4,545,0.5,-0.5,-0.5,4,4,0.8,4,527,1,1,527,1,0,1.8,NaN,-0.0413259041237044,-0.0413259041237044,750,1,0,congruent,1,1416.23384708557,957.575100409439
37,104,4,546,0.5,0.5,-0.5,2,2,0.8,2,369,1,1,369,1,0,1.8,NaN,-1.2899595519629,-1.2899595519629,750,1,0,congruent,1,4494.24170085322,849.090084774428
37,104,4,547,-0.5,0.5,0,4,NaN,1,4,466,1,1,466,1,0,1.8,0.4,-0.523393325124912,-0.523393325124912,750,0,0,neutral,0.1,710.696244904157,3003.76575378415
37,104,4,548,-0.5,-0.5,0.5,2,1,1,2,628,1,1,628,1,0,1.6,1,0.75685130114059,0.75685130114059,750,0,0,incongruent,0.1,1286.78296821425,1286.32239763608
37,104,4,549,0.5,0.5,0.5,3,4,1,3,771,1,0,771,0,0,1.6,NaN,1.88694377988113,1.88694377988113,750,0,0,incongruent,0,1477.68418817334,1508.99963625959
37,104,4,550,0.5,-0.5,-0.5,1,1,0.8,1,618,1,1,618,0,0,1.2,NaN,0.677823855074819,0.677823855074819,750,1,0,congruent,0,986.792480982171,884.313450009333
37,104,4,551,0.5,0.5,-0.5,2,2,0.8,2,298,1,1,298,1,0,0.8,NaN,-1.85105441902988,-1.85105441902988,750,1,0,congruent,1,3794.76348537866,1852.13433953107
37,104,4,553,-0.5,-0.5,0,2,NaN,0.8,1,570,0,1,NaN,1,0,0.6,0.8,0.298492113959114,NaN,750,0,1,neutral,0.1,723.879639700462,1721.56674789142
37,104,4,554,0.5,0.5,0.5,3,4,0.8,3,640,1,1,640,1,0,0.6,NaN,0.851684236419517,0.851684236419517,750,0,0,incongruent,1,837.38680693923,693.617090554833
37,104,4,555,-0.5,-0.5,-0.5,1,1,0.8,1,431,1,1,431,1,0,1,0.8,-0.799989386355113,-0.799989386355113,750,1,0,congruent,0.1,1103.72195797981,1789.77465458553
37,104,4,556,0.5,-0.5,0.5,3,2,0.8,3,561,1,1,561,1,0,1.2,NaN,0.22736741249992,0.22736741249992,750,0,0,incongruent,1,2056.55324365951,637.851675498398
37,104,4,557,0.5,0.5,-0.5,1,1,0.8,1,534,1,1,534,1,0,1.2,NaN,0.0139933081223358,0.0139933081223358,750,1,0,congruent,1,494.310916591751,703.933169861186
37,104,4,558,0.5,0.5,-0.5,3,3,0.8,3,445,1,1,445,1,0,1.6,NaN,-0.689350961863033,-0.689350961863033,750,1,0,congruent,1,2165.33127639847,1842.68549957818
37,104,4,559,-0.5,0.5,-0.5,4,4,0.8,4,582,1,1,582,1,0,1.8,0.6,0.39332504923804,0.39332504923804,750,1,0,congruent,0.1,1507.18736663616,558.983541876613
37,104,4,560,0.5,0.5,0.5,3,1,1,3,591,1,1,591,1,0,1.6,NaN,0.464449750697235,0.464449750697235,750,0,0,incongruent,1,2127.14978549063,832.737634775195
37,104,4,561,0.5,0.5,0,1,NaN,1,1,534,1,1,534,1,0,1.8,NaN,0.0139933081223358,0.0139933081223358,750,0,0,neutral,1,1049.67434909813,1295.84500202602
37,104,4,562,0.5,-0.5,0.5,3,1,1,3,551,1,1,551,1,0,1.8,NaN,0.148339966434148,0.148339966434148,750,0,0,incongruent,1,3819.02517033353,562.93898093558
37,104,4,563,0.5,0.5,-0.5,2,2,1,2,560,1,1,560,1,0,1.8,NaN,0.219464667893342,0.219464667893342,750,1,0,congruent,1,1770.61816539813,1376.05661851926
37,104,4,564,-0.5,0.5,0,4,NaN,1,4,646,1,1,646,1,0,1.8,0.6,0.89910070405898,0.89910070405898,750,0,0,neutral,0.1,1107.31948551425,2049.04457135182
37,104,4,565,-0.5,-0.5,-0.5,2,2,1,2,446,1,1,446,1,0,1.8,0.8,-0.681448217256456,-0.681448217256456,750,1,0,congruent,0.1,1715.43716730213,1622.67093727896
37,104,4,566,-0.5,0.5,0.5,3,1,1,3,684,1,1,684,1,0,1.6,0.8,1.19940499910891,1.19940499910891,750,0,0,incongruent,0.1,838.358742674605,1045.95122059548
37,104,4,567,0.5,0.5,0.5,1,3,1,1,518,1,1,518,1,0,1.4,NaN,-0.112450605582899,-0.112450605582899,750,0,0,incongruent,1,433.500422101211,873.280318644803
37,104,4,569,0.5,0.5,-0.5,1,1,1,2,678,0,1,NaN,0,0,1.4,NaN,1.15198853146945,NaN,750,0,1,congruent,0,3350.33572089824,2405.96656524391
37,104,4,570,-0.5,-0.5,-0.5,4,4,0.8,4,484,1,1,484,1,0,1.2,0.8,-0.381143922206523,-0.381143922206523,750,1,0,congruent,0.1,512.232795705424,2594.38963519757
37,104,4,572,0.5,0.5,0.5,3,4,0.6,3,604,1,1,604,1,0,1,NaN,0.567185430582738,0.567185430582738,750,0,0,incongruent,1,2827.99191608668,351.637201875647
37,104,4,573,0.5,0.5,0.5,4,3,0.6,4,667,1,1,667,1,0,1,NaN,1.0650583407971,1.0650583407971,750,0,0,incongruent,1,1508.39709070915,1170.76010010293
37,104,4,574,-0.5,0.5,0.5,3,4,0.6,3,515,1,1,515,1,0,1,1,-0.136158839402631,-0.136158839402631,750,0,0,incongruent,0.1,1635.38033546409,2346.04078790107
37,104,4,575,-0.5,0.5,0.5,1,2,0.6,1,759,1,0,759,0,0,1.2,1,1.7921108446022,1.7921108446022,750,0,0,incongruent,0,1361.71290599022,2945.90040112714
37,104,4,576,0.5,0.5,0.5,3,1,0.6,3,862,1,0,862,0,0,1,NaN,2.60609353907965,2.60609353907965,750,0,0,incongruent,0,1639.8190437666,1522.483232819
37,104,4,577,-0.5,0.5,-0.5,4,4,0.6,4,461,1,1,461,1,0,1,0.8,-0.562907048157798,-0.562907048157798,750,1,0,congruent,0.1,3779.57688459051,988.961635859045
37,104,4,578,0.5,-0.5,-0.5,3,3,0.6,3,452,1,1,452,0,0,0.8,NaN,-0.634031749616993,-0.634031749616993,750,1,0,congruent,0,1194.16979735474,214.958151963234
37,104,4,579,0.5,-0.5,0.5,1,4,0.6,4,597,0,1,NaN,1,0,0.4,NaN,0.511866218336698,NaN,750,1,0,incongruent,1,8627.18334654744,1175.03535935605
37,104,4,580,0.5,0.5,-0.5,2,2,0.6,2,422,1,1,422,1,0,0.6,NaN,-0.871114087814308,-0.871114087814308,750,1,0,congruent,1,2648.50483236529,118.700064592814
37,104,4,581,0.5,-0.5,0,1,NaN,0.6,1,439,1,1,439,1,0,1,NaN,-0.736767429502496,-0.736767429502496,750,0,0,neutral,1,705.779272404495,1325.1281331737
37,104,4,582,0.5,0.5,0.5,3,1,0.6,3,516,1,1,516,1,0,1.4,NaN,-0.128256094796053,-0.128256094796053,750,0,0,incongruent,1,4277.35634111347,2166.01602564677
37,104,4,583,0.5,0.5,-0.5,4,4,0.6,4,316,1,1,316,1,0,1.6,NaN,-1.70880501611149,-1.70880501611149,750,1,0,congruent,1,2804.92225922051,621.092949848308
37,104,4,584,-0.5,0.5,0.5,2,3,0.8,2,536,1,1,536,1,0,2,0.8,0.0297987973354902,0.0297987973354902,750,0,0,incongruent,0.1,1239.59424479577,592.113174689431
37,104,4,586,-0.5,0.5,-0.5,3,3,0.8,3,492,1,1,492,1,0,1.4,0.6,-0.317921965353906,-0.317921965353906,750,1,0,congruent,0.1,616.572772700302,999.62790172459
37,104,4,587,0.5,-0.5,0.5,1,2,0.8,1,311,1,1,311,0,0,1.2,NaN,-1.74831873914437,-1.74831873914437,750,0,0,incongruent,0,517.269830448107,489.057865832257
37,104,4,588,-0.5,0.5,0,4,NaN,0.8,4,627,1,1,627,1,0,0.8,0.6,0.748948556534013,0.748948556534013,750,0,0,neutral,0.1,3158.90565131066,1489.70474179254
37,104,4,589,-0.5,-0.5,-0.5,1,1,0.8,1,438,1,1,438,1,0,0.6,0.8,-0.744670174109073,-0.744670174109073,750,1,0,congruent,0.1,2093.1546709208,1521.22603050499
37,104,4,590,-0.5,-0.5,-0.5,3,3,0.8,3,342,1,1,342,1,0,0.6,1,-1.50333365634048,-1.50333365634048,750,1,0,congruent,0.1,842.560554546665,924.852766544809
37,104,4,591,0.5,-0.5,0,1,NaN,0.8,1,583,1,1,583,0,0,0.8,NaN,0.401227793844617,0.401227793844617,750,0,0,neutral,0,1015.33201738226,370.809938660852
37,104,4,592,0.5,-0.5,0.5,3,2,0.8,3,496,1,1,496,1,0,0.6,NaN,-0.286310986927597,-0.286310986927597,750,0,0,incongruent,1,732.098299354312,1188.61828949153
37,104,4,593,0.5,-0.5,0,2,NaN,0.8,2,432,1,1,432,1,0,1,NaN,-0.792086641748536,-0.792086641748536,750,0,0,neutral,1,2060.06720933379,1610.95980051096
37,104,4,594,0.5,0.5,-0.5,4,4,0.8,4,447,1,1,447,1,0,1.2,NaN,-0.673545472649879,-0.673545472649879,750,1,0,congruent,1,1769.68864742279,282.245960836738
37,104,4,595,-0.5,0.5,0,3,NaN,0.8,4,394,0,1,NaN,0,0,1.4,0.8,-1.09239093679847,NaN,750,0,1,neutral,0,1869.51729019457,777.467004823342
37,104,4,596,-0.5,0.5,-0.5,4,4,0.6,4,642,1,1,642,1,0,1.2,0.6,0.867489725632671,0.867489725632671,750,1,0,congruent,0.1,2619.01141228474,1535.00235433779
37,104,4,597,0.5,-0.5,0,1,NaN,0.8,1,483,1,1,483,1,0,1.4,NaN,-0.3890466668131,-0.3890466668131,750,0,0,neutral,1,3906.50556758751,1131.48041547556
37,104,4,598,0.5,-0.5,-0.5,3,3,0.8,3,583,1,1,583,1,0,1.4,NaN,0.401227793844617,0.401227793844617,750,1,0,congruent,1,852.842150892734,1639.59949231977
37,104,4,599,-0.5,-0.5,0.5,4,1,0.8,4,598,1,1,598,0,0,1.4,1,0.519768962943275,0.519768962943275,750,0,0,incongruent,0,2105.64536798277,619.143957051251
37,104,4,600,0.5,0.5,0.5,1,2,0.8,1,453,1,1,453,1,0,1,NaN,-0.626129005010415,-0.626129005010415,750,0,0,incongruent,1,904.066846207596,1066.48188172421
