subid,vers,block,trial,rewlvl,efflvl,congruency,targetresp,distractorresp,rollingefflvl,resp,rt,acc,fast,accrt,isrewarded,ismiss,runavgrrgen,runavgrrcond,zrt,acczrt,rtthreshold,isdisterror,isranderror,congruence,feedback,fcz_resp_theta,fcz_resp_theta_baseline
39,104,1,1,0.5,-0.5,-0.5,2,2,0,2,767,1,0,767,0,0,0,NaN,0.676067968643326,0.676067968643326,750,1,0,congruent,0,330.404777062373,644.356937296561
39,104,1,2,-0.5,-0.5,0,4,NaN,0,3,919,0,0,NaN,0,0,0,0,1.51113039850586,NaN,750,0,1,neutral,0,1791.87082818904,2146.62316319571
39,104,1,4,0.5,0.5,-0.5,2,2,0,2,995,1,0,995,0,0,0,NaN,1.92866161343712,1.92866161343712,750,1,0,congruent,0,1915.43485708992,429.928609033666
39,104,1,5,-0.5,-0.5,0,1,NaN,0,1,894,1,0,894,0,0,0,0,1.37378460412057,1.37378460412057,750,0,0,neutral,0,2337.41871568863,1904.96765672342
39,104,1,6,-0.5,-0.5,-0.5,4,4,0,3,579,0,1,NaN,0,0,0,0,-0.356772405134012,NaN,750,0,1,congruent,0,597.409051148519,1005.87620789381
39,104,1,7,0.5,0.5,-0.5,1,1,0,1,747,1,1,747,1,0,0,NaN,0.566191333135099,0.566191333135099,750,1,0,congruent,1,1597.91857365676,915.707714304892
39,104,1,8,0.5,0.5,0,3,NaN,0.2,3,700,1,1,700,1,0,0.4,NaN,0.307981239690764,0.307981239690764,750,0,0,neutral,1,170.177786881849,2621.2220167033
39,104,1,10,0.5,0.5,0,3,NaN,0.4,3,654,1,1,654,1,0,0.8,NaN,0.0552649780218411,0.0552649780218411,750,0,0,neutral,1,758.154543613941,1038.28401711042
39,104,1,11,0.5,-0.5,-0.5,2,2,0.6,2,786,1,0,786,1,0,1.2,NaN,0.780450772376142,0.780450772376142,750,1,0,congruent,1,2149.0025563975,1542.9095856843
39,104,1,12,0.5,0.5,0.5,3,4,0.6,4,745,0,1,NaN,0,0,1.6,NaN,0.555203669584276,NaN,750,1,0,incongruent,0,2265.34596080125,4647.86843088969
39,104,1,13,0.5,0.5,0,2,NaN,0.6,2,890,1,0,890,0,0,1.2,NaN,1.35180927701893,1.35180927701893,750,0,0,neutral,0,969.56190935648,476.190107393043
39,104,1,14,0.5,0.5,-0.5,1,1,0.4,1,721,1,1,721,1,0,0.8,NaN,0.423351706974403,0.423351706974403,750,1,0,congruent,1,1570.78601784259,1887.88693657139
39,104,1,15,0.5,0.5,0,3,NaN,0.4,2,715,0,1,NaN,0,0,1.2,NaN,0.390388716321935,NaN,750,0,1,neutral,0,1342.73678317541,1955.88740353235
39,104,1,16,-0.5,-0.5,0.5,4,2,0.4,3,479,0,1,NaN,0,0,0.8,0,-0.906155582675149,NaN,750,0,1,incongruent,0,1594.43913664455,1013.26742974881
39,104,1,17,0.5,0.5,-0.5,1,1,0.4,4,575,0,1,NaN,0,0,0.4,NaN,-0.378747732235657,NaN,750,0,1,congruent,0,1863.68517159398,653.395090138093
39,104,1,18,-0.5,-0.5,-0.5,4,4,0.2,2,996,0,0,NaN,0,0,0.4,0,1.93415544521253,NaN,750,0,1,congruent,0,2920.10498772588,1379.50451605026
39,104,1,20,-0.5,0.5,-0.5,4,4,0.2,4,782,1,0,782,0,0,0,0,0.758475445274497,0.758475445274497,750,1,0,congruent,0,1450.06175494558,1989.47497047364
39,104,1,21,0.5,-0.5,0.5,3,2,0.2,3,639,1,1,639,0,0,0,NaN,-0.0271424986093295,-0.0271424986093295,750,0,0,incongruent,0,3129.52633506117,680.644907078095
39,104,1,22,-0.5,-0.5,-0.5,4,4,0.2,4,686,1,1,686,0,0,0,0,0.231067594835005,0.231067594835005,750,1,0,congruent,0,1345.29842869439,1107.14860775817
39,104,1,24,-0.5,-0.5,-0.5,4,4,0.2,4,801,1,0,801,0,0,0,0,0.862858249007313,0.862858249007313,750,1,0,congruent,0,684.826409971289,844.979427486467
39,104,1,25,0.5,-0.5,0.5,2,1,0.2,1,819,0,0,NaN,1,0,0,NaN,0.961747220964718,NaN,750,1,0,incongruent,1,980.019418477007,983.138643199385
39,104,1,26,0.5,0.5,0,1,NaN,0.2,1,689,1,1,689,1,0,0.4,NaN,0.247549090161239,0.247549090161239,750,0,0,neutral,1,875.809484669699,155.529691425531
39,104,1,27,0.5,-0.5,-0.5,3,3,0.4,2,730,0,1,NaN,0,0,0.8,NaN,0.472796192953106,NaN,750,0,1,congruent,0,1550.96008013855,728.245176676464
39,104,1,28,0.5,0.5,-0.5,1,1,0.4,2,617,0,1,NaN,0,0,0.8,NaN,-0.14800679766838,NaN,750,0,1,congruent,0,2092.33777448074,1223.41529490548
39,104,1,29,-0.5,0.5,-0.5,4,4,0.2,4,922,1,0,922,0,0,0.8,0,1.52761189383209,1.52761189383209,750,1,0,congruent,0,1448.47142395097,929.061809949502
39,104,1,30,-0.5,0.5,0.5,1,3,0.2,2,476,0,1,NaN,0,0,0.8,0,-0.922637078001383,NaN,750,0,1,incongruent,0,3515.00317318909,2785.67362983656
39,104,1,32,0.5,-0.5,0,1,NaN,0.2,1,281,1,1,281,0,0,0,NaN,-1.9939342742066,-1.9939342742066,750,0,0,neutral,0,974.923109945911,614.252387864123
39,104,1,33,0.5,0.5,-0.5,2,2,0.2,4,313,0,1,NaN,0,0,0,NaN,-1.81813165739344,NaN,750,0,1,congruent,0,1752.84560780678,563.543168850049
39,104,1,34,-0.5,0.5,0,1,NaN,0,1,602,1,1,602,1,0,0,0,-0.23041427429955,-0.23041427429955,750,0,0,neutral,0.1,1607.58006311336,1669.80398224001
39,104,1,36,-0.5,0.5,0.5,1,4,0.2,3,895,0,0,NaN,0,0,0.2,0.2,1.37927843589598,NaN,750,0,1,incongruent,0,1112.868499519,586.649583772889
39,104,1,37,0.5,0.5,-0.5,3,3,0.2,2,951,0,0,NaN,0,0,0.2,NaN,1.68693301531902,NaN,750,0,1,congruent,0,709.809560931826,622.988088556529
39,104,1,38,-0.5,0.5,0.5,1,4,0.2,3,532,0,1,NaN,0,0,0.2,0.2,-0.614982498578346,NaN,750,0,1,incongruent,0,1077.48140453323,637.699081143344
39,104,1,39,-0.5,0.5,-0.5,3,3,0.2,1,565,0,1,NaN,0,0,0.2,0.2,-0.433686049989771,NaN,750,0,1,congruent,0,990.388311383414,1715.05412365045
39,104,1,40,0.5,0.5,0.5,2,1,0,2,433,1,1,433,1,0,0,NaN,-1.15887184434407,-1.15887184434407,750,0,0,incongruent,1,8336.38363162906,1559.83806157828
39,104,1,41,0.5,-0.5,-0.5,4,4,0.2,3,546,0,1,NaN,0,0,0.4,NaN,-0.538068853722587,NaN,750,0,1,congruent,0,1139.9503636766,507.148078073642
39,104,1,42,0.5,0.5,0,1,NaN,0.2,4,339,0,1,NaN,0,0,0.4,NaN,-1.67529203123274,NaN,750,0,1,neutral,0,3589.7058561696,736.897730995943
39,104,1,45,-0.5,0.5,-0.5,4,4,0.2,1,704,0,1,NaN,0,0,0.8,0.2,0.32995656679241,NaN,750,0,1,congruent,0,1184.97968628702,1682.41481670328
39,104,1,46,-0.5,-0.5,-0.5,2,2,0.2,2,450,1,1,450,0,0,0.4,0,-1.06547670416208,-1.06547670416208,750,1,0,congruent,0,1130.21901318997,1581.95602029351
39,104,1,48,-0.5,0.5,0,3,NaN,0.2,4,343,0,1,NaN,0,0,0.4,0,-1.6533167041311,NaN,750,0,1,neutral,0,1672.48662601253,269.408457070865
39,104,1,49,0.5,-0.5,0.5,1,2,0.2,3,474,0,1,NaN,1,0,0.4,NaN,-0.933624741552206,NaN,750,0,1,incongruent,1,526.845141030073,772.562716556377
39,104,1,50,-0.5,-0.5,0,2,NaN,0.2,3,767,0,0,NaN,0,0,0.4,0,0.676067968643326,NaN,750,0,1,neutral,0,974.259248306345,3150.4968523939
39,104,1,51,-0.5,0.5,-0.5,1,1,0.2,3,263,0,1,NaN,0,0,0.4,0,-2.09282324616401,NaN,750,0,1,congruent,0,679.928979024865,392.434632323136
39,104,1,52,0.5,0.5,-0.5,2,2,0,3,484,0,1,NaN,0,0,0.4,NaN,-0.878686423798092,NaN,750,0,1,congruent,0,1694.05082414688,796.261731921182
39,104,1,53,0.5,0.5,-0.5,1,1,0,1,516,1,1,516,1,0,0.4,NaN,-0.702883806984928,-0.702883806984928,750,1,0,congruent,1,772.74057679303,1590.45434572391
39,104,1,54,0.5,-0.5,0.5,3,4,0.2,4,446,0,1,NaN,0,0,0.8,NaN,-1.08745203126372,NaN,750,1,0,incongruent,0,4167.55325451989,1759.40278568751
39,104,1,55,0.5,0.5,-0.5,2,2,0.2,2,490,1,1,490,1,0,0.4,NaN,-0.845723433145624,-0.845723433145624,750,1,0,congruent,1,1059.02244137776,569.411473519202
39,104,1,57,-0.5,-0.5,-0.5,2,2,0.4,2,738,1,1,738,1,0,0.8,0,0.516746847156397,0.516746847156397,750,1,0,congruent,0.1,2156.9504057072,1836.92475774658
39,104,1,58,0.5,0.5,0.5,4,1,0.4,1,791,0,0,NaN,0,0,1,NaN,0.807919931253199,NaN,750,1,0,incongruent,0,214.231395844353,1264.21831560566
39,104,1,59,0.5,0.5,-0.5,2,2,0.4,3,414,0,1,NaN,0,0,0.6,NaN,-1.26325464807689,NaN,750,0,1,congruent,0,2774.84088004272,601.079619700749
39,104,1,60,-0.5,-0.5,0,1,NaN,0.4,1,624,1,1,624,1,0,0.6,0.2,-0.1095499752405,-0.1095499752405,750,0,0,neutral,0.1,1140.97813378456,1070.53545106881
39,104,1,61,-0.5,0.5,-0.5,2,2,0.4,2,292,1,1,292,1,0,0.4,0,-1.93350212467708,-1.93350212467708,750,1,0,congruent,0.1,961.095282309794,1347.9619906258
39,104,1,62,0.5,0.5,0.5,4,3,0.6,3,330,0,1,NaN,0,0,0.6,NaN,-1.72473651721144,NaN,750,1,0,incongruent,0,3422.63526781804,1416.61762824516
39,104,1,64,0.5,0.5,0,4,NaN,0.2,1,316,0,1,NaN,0,0,0.4,NaN,-1.8016501620672,NaN,750,0,1,neutral,0,321.715611176248,540.393185861494
39,104,1,65,-0.5,-0.5,-0.5,3,3,0.2,3,695,1,1,695,0,0,0.4,0.4,0.280512080813707,0.280512080813707,750,1,0,congruent,0,1667.97453972151,1307.37671113375
39,104,1,66,-0.5,-0.5,0.5,4,1,0.2,2,909,0,0,NaN,0,0,0.2,0.4,1.45619208075174,NaN,750,0,1,incongruent,0,1384.14419365647,422.471004953689
39,104,1,67,-0.5,0.5,0.5,1,2,0.2,3,808,0,0,NaN,0,0,0,0.2,0.901315071435193,NaN,750,0,1,incongruent,0,1051.60433636343,2709.73385054885
39,104,1,68,-0.5,0.5,0,2,NaN,0.2,2,828,1,0,828,0,0,0,0.2,1.01119170694342,1.01119170694342,750,0,0,neutral,0,1793.28510674992,952.275105253808
39,104,1,70,-0.5,0.5,0,4,NaN,0,3,964,0,0,NaN,0,0,0,0.2,1.75835282839937,NaN,750,0,1,neutral,0,2540.17672406932,1072.709843456
39,104,1,71,0.5,0.5,-0.5,2,2,0,4,261,0,1,NaN,0,0,0,NaN,-2.10381090971483,NaN,750,0,1,congruent,0,1244.61864165512,663.810129952673
39,104,1,72,0.5,0.5,0,4,NaN,0,2,588,0,1,NaN,0,0,0,NaN,-0.307327919155309,NaN,750,0,1,neutral,0,2082.31737015227,2287.33067477102
39,104,1,73,0.5,-0.5,0.5,3,4,0,2,794,0,0,NaN,0,0,0,NaN,0.824401426579433,NaN,750,0,1,incongruent,0,1558.2519917274,3689.86153800202
39,104,1,74,0.5,0.5,0,1,NaN,0,1,735,1,1,735,1,0,0,NaN,0.500265351830162,0.500265351830162,750,0,0,neutral,1,1118.68922296543,687.446576761791
39,104,1,76,0.5,0.5,0.5,1,2,0.2,2,828,0,0,NaN,0,0,0.4,NaN,1.01119170694342,NaN,750,1,0,incongruent,0,535.975071211735,3098.08365408671
39,104,1,77,0.5,-0.5,-0.5,3,3,0.2,3,704,1,1,704,1,0,0.4,NaN,0.32995656679241,0.32995656679241,750,1,0,congruent,1,1153.92466612926,408.649324066342
39,104,1,78,-0.5,0.5,-0.5,1,1,0.2,2,666,0,1,NaN,0,0,0.8,0.2,0.121190959326778,NaN,750,0,1,congruent,0,2324.60711222331,2096.63159086964
39,104,1,79,-0.5,-0.5,0.5,3,4,0.2,4,527,0,1,NaN,0,0,0.8,0.4,-0.642451657455403,NaN,750,1,0,incongruent,0,2400.84744239233,1176.78818719886
39,104,1,80,-0.5,-0.5,0,1,NaN,0.2,1,640,1,1,640,1,0,0.4,0.4,-0.0216486668339181,-0.0216486668339181,750,0,0,neutral,0.1,1525.54905035918,474.050042544767
39,104,1,81,0.5,-0.5,-0.5,3,3,0.2,4,541,0,1,NaN,1,0,0.6,NaN,-0.565538012599644,NaN,750,0,1,congruent,1,1017.86462636256,682.138905226411
39,104,1,82,0.5,-0.5,0.5,1,4,0.2,4,747,0,1,NaN,0,0,1,NaN,0.566191333135099,NaN,750,1,0,incongruent,0,5271.8119911098,1700.16729791868
39,104,1,83,-0.5,0.5,-0.5,3,3,0.2,4,821,0,0,NaN,0,0,0.6,0.2,0.972734884515541,NaN,750,0,1,congruent,0,2755.42739817776,1637.48674506134
39,104,1,84,0.5,0.5,0,4,NaN,0.2,3,773,0,0,NaN,0,0,0.6,NaN,0.709030959295795,NaN,750,0,1,neutral,0,767.866375825516,1437.25399163732
39,104,1,85,-0.5,-0.5,0.5,2,4,0,2,570,1,1,570,0,0,0.6,0.4,-0.406216891112714,-0.406216891112714,750,0,0,incongruent,0,344.70599263086,1569.59110066886
39,104,1,86,-0.5,0.5,-0.5,3,3,0,3,339,1,1,339,1,0,0.4,0,-1.67529203123274,-1.67529203123274,750,1,0,congruent,0.1,1721.44581038443,3389.10907736827
39,104,1,87,-0.5,-0.5,0,2,NaN,0.2,2,863,1,0,863,0,0,0.2,0.2,1.20347581908282,1.20347581908282,750,0,0,neutral,0,1515.40181957535,3174.15542051405
39,104,1,88,-0.5,-0.5,0.5,3,4,0.2,4,315,0,1,NaN,1,0,0.2,0.2,-1.80714399384261,NaN,750,1,0,incongruent,0.1,2471.40830213214,2049.48792875134
39,104,1,90,-0.5,0.5,0,4,NaN,0.2,3,633,0,1,NaN,0,0,0.4,0.2,-0.0601054892617977,NaN,750,0,1,neutral,0,1575.59849387012,1283.21518620448
39,104,1,91,0.5,-0.5,0.5,2,1,0.2,1,627,0,1,NaN,0,0,0.4,NaN,-0.093068479914266,NaN,750,1,0,incongruent,0,674.27972070013,249.67422683206
39,104,1,92,0.5,-0.5,-0.5,3,3,0.2,2,612,0,1,NaN,0,0,0.2,NaN,-0.175475956545437,NaN,750,0,1,congruent,0,389.779986786479,4105.55138140572
39,104,1,93,-0.5,-0.5,0.5,4,2,0.2,2,877,0,0,NaN,1,0,0.2,0.4,1.28038946393858,NaN,750,1,0,incongruent,0.1,555.445196397847,1174.07944072995
39,104,1,94,0.5,0.5,0.5,3,4,0.2,4,646,0,1,NaN,0,0,0.2,NaN,0.0113143238185502,NaN,750,1,0,incongruent,0,1336.56238971482,810.612767204216
39,104,1,95,-0.5,0.5,0.5,2,3,0.2,3,503,0,1,NaN,0,0,0.2,0.2,-0.774303620065276,NaN,750,1,0,incongruent,0,1144.51447233057,661.829694630782
39,104,1,96,0.5,0.5,0.5,4,2,0.2,2,371,0,1,NaN,0,0,0.2,NaN,-1.49948941441958,NaN,750,1,0,incongruent,0,1789.42457444896,1805.51476928375
39,104,1,97,0.5,0.5,-0.5,1,1,0.2,3,238,0,1,NaN,0,0,0.2,NaN,-2.23016904054929,NaN,750,0,1,congruent,0,4754.2872167829,2118.81289622357
39,104,1,98,0.5,0.5,0.5,4,3,0,4,782,1,0,782,0,0,0.2,NaN,0.758475445274497,0.758475445274497,750,0,0,incongruent,0,2280.0997180374,664.805560461547
39,104,1,99,-0.5,-0.5,-0.5,1,1,0,1,713,1,1,713,0,0,0,0.6,0.379401052771112,0.379401052771112,750,1,0,congruent,0,891.352085766878,928.318017871339
39,104,1,100,0.5,-0.5,0,4,NaN,0,2,718,0,1,NaN,0,0,0,NaN,0.406870211648169,NaN,750,0,1,neutral,0,1884.27695021244,1577.09014989722
39,104,1,101,-0.5,-0.5,-0.5,3,3,0,4,475,0,1,NaN,0,0,0,0.4,-0.928130909776795,NaN,750,0,1,congruent,0,846.168999660369,235.976614299464
39,104,1,102,-0.5,-0.5,0.5,2,4,0,3,410,0,1,NaN,0,0,0,0.4,-1.28522997517853,NaN,750,0,1,incongruent,0,692.580262672181,584.260308999969
39,104,1,103,-0.5,-0.5,0.5,3,1,0,1,596,0,1,NaN,0,0,0,0.4,-0.263377264952019,NaN,750,1,0,incongruent,0,1777.21489825881,832.301097296425
39,104,1,104,-0.5,-0.5,-0.5,2,2,0,2,695,1,1,695,0,0,0,0.2,0.280512080813707,0.280512080813707,750,1,0,congruent,0,1553.05822546487,2019.76268320101
39,104,1,105,0.5,0.5,0,4,NaN,0,1,609,0,1,NaN,0,0,0,NaN,-0.191957451871671,NaN,750,0,1,neutral,0,3404.93524726699,1474.98718116729
39,104,1,106,-0.5,0.5,-0.5,2,2,0,3,513,0,1,NaN,0,0,0,0.2,-0.719365302311163,NaN,750,0,1,congruent,0,501.810365468001,496.898746142002
39,104,1,107,0.5,-0.5,-0.5,4,4,0,2,617,0,1,NaN,0,0,0,NaN,-0.14800679766838,NaN,750,0,1,congruent,0,246.44891808963,1262.11754430111
39,104,1,108,-0.5,-0.5,0,3,NaN,0,1,253,0,1,NaN,0,0,0,0,-2.14776156391812,NaN,750,0,1,neutral,0,2304.90294872751,510.704801230705
39,104,1,109,-0.5,0.5,-0.5,1,1,0,1,766,1,0,766,0,0,0,0.2,0.670574136867915,0.670574136867915,750,1,0,congruent,0,549.311979148996,869.562577519381
39,104,1,111,-0.5,-0.5,-0.5,2,2,0,2,968,1,0,968,0,0,0,0,1.78032815550101,1.78032815550101,750,1,0,congruent,0,2449.58816053451,1013.35135629632
39,104,1,112,-0.5,-0.5,0,3,NaN,0,4,720,0,1,NaN,0,0,0,0,0.417857875198992,NaN,750,0,1,neutral,0,886.622846153443,130.549926234497
39,104,1,113,-0.5,0.5,0.5,1,4,0,2,556,0,1,NaN,0,0,0,0,-0.483130535968473,NaN,750,0,1,incongruent,0,825.613252949691,1023.0870147487
39,104,1,114,-0.5,-0.5,0.5,2,1,0,1,736,0,1,NaN,0,0,0,0,0.505759183605574,NaN,750,1,0,incongruent,0,876.163829736094,377.607469085748
39,104,1,115,0.5,-0.5,0.5,1,2,0,3,254,0,1,NaN,0,0,0,NaN,-2.14226773214271,NaN,750,0,1,incongruent,0,627.807813081292,1314.06903411281
39,104,1,117,0.5,0.5,0.5,1,4,0,1,885,1,0,885,0,0,0,NaN,1.32434011814187,1.32434011814187,750,0,0,incongruent,0,2081.97655246042,1788.10282596955
39,104,1,118,-0.5,0.5,0,3,NaN,0,4,534,0,1,NaN,0,0,0,0,-0.603994835027524,NaN,750,0,1,neutral,0,4458.30069749813,1531.92600946603
39,104,1,120,0.5,0.5,-0.5,2,2,0,4,950,0,0,NaN,0,0,0,NaN,1.68143918354361,NaN,750,0,1,congruent,0,1880.00439795416,1064.05581670266
39,104,1,121,0.5,-0.5,0.5,4,3,0,4,864,1,0,864,0,0,0,NaN,1.20896965085823,1.20896965085823,750,0,0,incongruent,0,1371.17496360261,969.474009138446
39,104,1,122,-0.5,-0.5,0.5,2,1,0,2,680,1,1,680,0,0,0,0,0.198104604182537,0.198104604182537,750,0,0,incongruent,0,3130.23421192579,1681.47608460647
39,104,1,123,-0.5,-0.5,-0.5,3,3,0,3,631,1,1,631,0,0,0,0,-0.0710931528126204,-0.0710931528126204,750,1,0,congruent,0,236.823535423533,894.78199712502
39,104,1,124,0.5,-0.5,0.5,2,1,0,1,887,0,0,NaN,0,0,0,NaN,1.33532778169269,NaN,750,1,0,incongruent,0,1363.44287846296,3467.76394659697
39,104,1,125,-0.5,0.5,0.5,3,4,0,3,862,1,0,862,0,0,0,0,1.19798198730741,1.19798198730741,750,0,0,incongruent,0,1298.62204612492,859.80019145168
39,104,1,126,-0.5,-0.5,0,4,NaN,0,2,856,0,0,NaN,0,0,0,0,1.16501899665494,NaN,750,0,1,neutral,0,1078.05891245438,1219.11024339085
39,104,1,127,-0.5,0.5,-0.5,2,2,0,3,543,0,1,NaN,0,0,0,0,-0.554550349048821,NaN,750,0,1,congruent,0,1674.51096111433,641.722831743639
39,104,1,130,0.5,-0.5,0,1,NaN,0,1,544,1,1,544,0,0,0,NaN,-0.54905651727341,-0.54905651727341,750,0,0,neutral,0,843.860553946578,1182.03746677119
39,104,1,131,-0.5,0.5,-0.5,2,2,0,2,522,1,1,522,1,0,0,0,-0.66992081633246,-0.66992081633246,750,1,0,congruent,0.1,979.386765327775,762.506696087798
39,104,1,132,-0.5,0.5,0,4,NaN,0.2,3,291,0,1,NaN,0,0,0.2,0.2,-1.93899595645249,NaN,750,0,1,neutral,0,1101.2384877668,1523.11800224154
39,104,1,133,-0.5,-0.5,-0.5,2,2,0.2,2,296,1,1,296,0,0,0.2,0,-1.91152679757543,-1.91152679757543,750,1,0,congruent,0,1268.23606530563,629.428580953808
39,104,1,134,0.5,0.5,-0.5,1,1,0.2,1,551,1,1,551,1,0,0.2,NaN,-0.51059969484553,-0.51059969484553,750,1,0,congruent,1,650.269231485306,1358.38280052987
39,104,1,135,0.5,-0.5,-0.5,3,3,0.4,4,667,0,1,NaN,1,0,0.6,NaN,0.126684791102189,NaN,750,0,1,congruent,1,598.663408718267,1648.09236334512
39,104,1,136,-0.5,-0.5,0.5,4,1,0.4,1,797,0,0,NaN,0,0,1,0,0.840882921905668,NaN,750,1,0,incongruent,0,1092.24268422114,1273.33994255587
39,104,1,137,0.5,0.5,0.5,1,2,0.4,3,844,0,0,NaN,0,0,0.8,NaN,1.09909301535,NaN,750,0,1,incongruent,0,201.481650060572,136.402736365402
39,104,1,138,-0.5,0.5,0,4,NaN,0.4,2,891,0,0,NaN,0,0,0.8,0.2,1.35730310879434,NaN,750,0,1,neutral,0,2436.1638946154,2599.91263325898
39,104,1,139,0.5,0.5,-0.5,3,3,0.4,4,741,0,1,NaN,0,0,0.8,NaN,0.533228342482631,NaN,750,0,1,congruent,0,386.589937948346,1602.13057928453
39,104,1,141,0.5,-0.5,-0.5,1,1,0.2,2,677,0,1,NaN,0,0,0,NaN,0.181623108856303,NaN,750,0,1,congruent,0,882.071536560431,1883.55788637496
39,104,1,142,0.5,-0.5,0.5,4,3,0.2,4,201,1,1,201,1,0,0,NaN,-2.43344081623951,-2.43344081623951,750,0,0,incongruent,1,1213.10141464939,908.562150662929
39,104,1,143,0.5,-0.5,0,2,NaN,0.2,3,899,0,0,NaN,0,0,0.4,NaN,1.40125376299763,NaN,750,0,1,neutral,0,2742.43258268917,714.474011250387
39,104,1,144,-0.5,0.5,-0.5,4,4,0.2,2,682,0,1,NaN,0,0,0.4,0.2,0.20909226773336,NaN,750,0,1,congruent,0,694.827687351476,1516.69919335427
39,104,1,145,-0.5,-0.5,0,1,NaN,0.2,1,628,1,1,628,0,0,0.4,0,-0.0875746481388546,-0.0875746481388546,750,0,0,neutral,0,714.060459827441,1001.43536163807
39,104,1,146,-0.5,0.5,0.5,3,4,0.2,2,567,0,1,NaN,0,0,0.4,0.2,-0.422698386438948,NaN,750,0,1,incongruent,0,1007.57294573127,2692.07281790433
39,104,1,147,-0.5,0.5,0,2,NaN,0,3,971,0,0,NaN,0,0,0.4,0.2,1.79680965082725,NaN,750,0,1,neutral,0,828.724402857335,3914.26412487821
39,104,1,148,0.5,-0.5,0.5,4,1,0,1,921,0,0,NaN,0,0,0,NaN,1.52211806205668,NaN,750,1,0,incongruent,0,1998.96086006214,1102.38555320262
39,104,1,149,0.5,0.5,0.5,2,4,0,2,568,1,1,568,1,0,0,NaN,-0.417204554663537,-0.417204554663537,750,0,0,incongruent,1,886.508425225556,3885.18572290933
39,104,1,150,-0.5,0.5,0.5,4,1,0.2,1,653,0,1,NaN,0,0,0.4,0,0.0497711462464298,NaN,750,1,0,incongruent,0,1095.8108554225,1589.34605072868
39,104,2,151,0.5,0.5,0.5,1,3,0.2,2,848,0,0,NaN,0,0,0.4,NaN,1.12106834245165,NaN,750,0,1,incongruent,0,1712.40061347924,1100.82595943613
39,104,2,153,-0.5,0.5,0.5,1,3,0.2,2,986,0,0,NaN,0,0,0.4,0,1.87921712745842,NaN,750,0,1,incongruent,0,2587.69795713005,2743.194440642
39,104,2,155,-0.5,-0.5,0,2,NaN,0.2,3,767,0,0,NaN,0,0,0.2,0.2,0.676067968643326,NaN,750,0,1,neutral,0,961.514582013917,541.347507265359
39,104,2,156,0.5,0.5,-0.5,3,3,0.2,4,596,0,1,NaN,0,0,0.2,NaN,-0.263377264952019,NaN,750,0,1,congruent,0,6673.46694822383,1923.59336259872
39,104,2,157,-0.5,0.5,-0.5,1,1,0,1,719,1,1,719,1,0,0.2,0,0.41236404342358,0.41236404342358,750,1,0,congruent,0.1,1225.16790040143,2254.30281900141
39,104,2,158,0.5,0.5,0,2,NaN,0.2,2,526,1,1,526,1,0,0.4,NaN,-0.647945489230815,-0.647945489230815,750,0,0,neutral,1,1241.98589402928,3242.48353418063
39,104,2,159,-0.5,-0.5,0.5,3,2,0.4,3,627,1,1,627,0,0,0.8,0.2,-0.093068479914266,-0.093068479914266,750,0,0,incongruent,0,682.476158286602,2649.21262916327
39,104,2,160,-0.5,0.5,0,2,NaN,0.4,2,642,1,1,642,1,0,0.6,0.2,-0.0106610032830953,-0.0106610032830953,750,0,0,neutral,0.1,1305.07509277602,647.855768676589
39,104,2,161,0.5,0.5,-0.5,1,1,0.6,1,672,1,1,672,1,0,0.8,NaN,0.154153949979246,0.154153949979246,750,1,0,congruent,1,1325.7725912954,2019.49919883711
39,104,2,162,0.5,-0.5,0,2,NaN,0.8,2,723,1,1,723,1,0,1.2,NaN,0.434339370525226,0.434339370525226,750,0,0,neutral,1,819.000205935224,2519.70349387707
39,104,2,163,-0.5,0.5,-0.5,1,1,0.8,1,457,1,1,457,1,0,1.4,0.4,-1.0270198817342,-1.0270198817342,750,1,0,congruent,0.1,2306.29888244543,1202.66595660068
39,104,2,164,-0.5,0.5,-0.5,4,4,1,3,525,0,1,NaN,0,0,1.2,0.6,-0.653439321006226,NaN,750,0,1,congruent,0,509.548555308251,1300.37834845826
39,104,2,165,0.5,-0.5,0.5,1,3,0.8,4,383,0,1,NaN,0,0,1.2,NaN,-1.43356343311464,NaN,750,0,1,incongruent,0,2158.81449491495,2045.42650704455
39,104,2,166,-0.5,-0.5,-0.5,4,4,0.8,3,905,0,0,NaN,1,0,1,0.2,1.4342167536501,NaN,750,0,1,congruent,0.1,1884.31833405932,189.087051121679
39,104,2,167,0.5,-0.5,0.5,2,3,0.8,2,531,1,1,531,1,0,0.8,NaN,-0.620476330353758,-0.620476330353758,750,0,0,incongruent,1,2058.39479602909,1058.05840711575
39,104,2,168,0.5,0.5,0,3,NaN,0.8,4,763,0,0,NaN,0,0,0.8,NaN,0.654092641541681,NaN,750,0,1,neutral,0,795.62253512177,1105.13158288741
39,104,2,169,0.5,0.5,-0.5,2,2,0.6,2,545,1,1,545,1,0,0.6,NaN,-0.543562685497999,-0.543562685497999,750,1,0,congruent,1,3440.56004178102,353.272616334646
39,104,2,170,0.5,0.5,0,1,NaN,0.6,1,685,1,1,685,1,0,1,NaN,0.225573763059594,0.225573763059594,750,0,0,neutral,1,1761.92628069933,862.256166202665
39,104,2,172,-0.5,-0.5,-0.5,2,2,0.6,2,909,1,0,909,1,0,1.4,0.6,1.45619208075174,1.45619208075174,750,1,0,congruent,0.1,3024.18379814355,1039.6324473988
39,104,2,173,-0.5,-0.5,-0.5,4,4,0.6,3,768,0,0,NaN,0,0,1.2,0.6,0.681561800418738,NaN,750,0,1,congruent,0,997.275457709199,2304.8496744686
39,104,2,175,-0.5,-0.5,0,3,NaN,0.4,3,978,1,0,978,0,0,0.8,0.6,1.83526647325513,1.83526647325513,750,0,0,neutral,0,1307.1914781504,618.229450933437
39,104,2,176,0.5,0.5,-0.5,2,2,0.4,4,894,0,0,NaN,0,0,0.4,NaN,1.37378460412057,NaN,750,0,1,congruent,0,2845.5266303896,464.841728193311
39,104,2,177,0.5,-0.5,0,3,NaN,0.4,3,651,1,1,651,0,0,0.2,NaN,0.038783482695607,0.038783482695607,750,0,0,neutral,0,884.364083724618,1488.11678970989
39,104,2,178,-0.5,-0.5,-0.5,1,1,0.4,1,395,1,1,395,0,0,0,0.6,-1.3676374518097,-1.3676374518097,750,1,0,congruent,0,856.279680045644,1314.865644786
39,104,2,179,-0.5,0.5,0,4,NaN,0.4,2,751,0,0,NaN,0,0,0,0.6,0.588166660236744,NaN,750,0,1,neutral,0,4100.89333239142,241.583236320384
39,104,2,180,-0.5,-0.5,-0.5,1,1,0.4,1,654,1,1,654,0,0,0,0.4,0.0552649780218411,0.0552649780218411,750,1,0,congruent,0,374.211175423405,2192.8199036681
39,104,2,181,0.5,0.5,0.5,2,3,0.4,3,823,0,0,NaN,0,0,0,NaN,0.983722548066363,NaN,750,1,0,incongruent,0,1182.03202988272,1489.00275289857
39,104,2,182,-0.5,-0.5,0,3,NaN,0.2,4,734,0,1,NaN,1,0,0,0.2,0.494771520054751,NaN,750,0,1,neutral,0.1,3946.36294619696,1035.11414526012
39,104,2,183,0.5,-0.5,-0.5,1,1,0.2,1,830,1,0,830,0,0,0.2,NaN,1.02217937049424,1.02217937049424,750,1,0,congruent,0,1446.03220299509,1587.0136344531
39,104,2,184,-0.5,0.5,0,3,NaN,0.2,4,834,0,0,NaN,0,0,0.2,0.4,1.04415469759589,NaN,750,0,1,neutral,0,3056.44699090093,4620.77107976578
39,104,2,185,0.5,0.5,-0.5,1,1,0,1,580,1,1,580,1,0,0.2,NaN,-0.351278573358601,-0.351278573358601,750,1,0,congruent,1,1958.6858892074,1712.74864366305
39,104,2,186,-0.5,-0.5,0.5,3,4,0.2,3,783,1,0,783,0,0,0.6,0.2,0.763969277049908,0.763969277049908,750,0,0,incongruent,0,461.508523426363,389.020498215594
39,104,2,187,0.5,-0.5,0,1,NaN,0.2,1,550,1,1,550,0,0,0.6,NaN,-0.516093526620942,-0.516093526620942,750,0,0,neutral,0,1693.97430503569,1598.49085828319
39,104,2,188,0.5,-0.5,-0.5,3,3,0.2,4,847,0,0,NaN,0,0,0.4,NaN,1.11557451067624,NaN,750,0,1,congruent,0,433.022709170555,471.522885177182
39,104,2,190,-0.5,-0.5,0,2,NaN,0.2,3,908,0,0,NaN,1,0,0.4,0.2,1.45069824897633,NaN,750,0,1,neutral,0.1,1519.24050777951,1829.91202025731
39,104,2,191,-0.5,-0.5,0.5,3,4,0.2,2,880,0,0,NaN,1,0,0.2,0.4,1.29687095926481,NaN,750,0,1,incongruent,0.1,1319.55262884099,2895.96947369656
39,104,2,192,0.5,0.5,0,2,NaN,0.2,3,764,0,0,NaN,0,0,0.4,NaN,0.659586473317092,NaN,750,0,1,neutral,0,1449.31537698853,2372.45676525914
39,104,2,193,-0.5,-0.5,-0.5,1,1,0.2,1,462,1,1,462,0,0,0.4,0.6,-0.999550722857143,-0.999550722857143,750,1,0,congruent,0,602.943529689849,1314.02351948709
39,104,2,194,0.5,-0.5,0.5,4,2,0.2,2,637,0,1,NaN,0,0,0.4,NaN,-0.0381301621601522,NaN,750,1,0,incongruent,0,1541.88436527758,969.89628624225
39,104,2,196,0.5,-0.5,0,1,NaN,0.2,1,610,1,1,610,0,0,0.2,NaN,-0.186463620096259,-0.186463620096259,750,0,0,neutral,0,493.594916293402,824.094527129938
39,104,2,197,0.5,-0.5,-0.5,3,3,0.2,3,468,1,1,468,0,0,0,NaN,-0.966587732204674,-0.966587732204674,750,1,0,congruent,0,1780.37321837957,884.294296315842
39,104,2,198,-0.5,0.5,0.5,1,2,0.2,4,487,0,1,NaN,0,0,0,0.2,-0.862204928471858,NaN,750,0,1,incongruent,0,1456.95838015831,596.477496235537
39,104,2,199,0.5,-0.5,-0.5,3,3,0.2,4,890,0,0,NaN,1,0,0,NaN,1.35180927701893,NaN,750,0,1,congruent,1,1537.92368840583,2088.43877366718
39,104,2,200,-0.5,0.5,-0.5,1,1,0.2,1,451,1,1,451,1,0,0.4,0,-1.05998287238667,-1.05998287238667,750,1,0,congruent,0.1,814.507724628275,727.841872982536
39,104,2,201,-0.5,-0.5,0.5,2,3,0.4,4,632,0,1,NaN,0,0,0.6,0.6,-0.0655993210372091,NaN,750,0,1,incongruent,0,2147.76339795448,1031.02890562719
39,104,2,202,-0.5,-0.5,0.5,3,1,0.4,1,567,0,1,NaN,0,0,0.6,0.4,-0.422698386438948,NaN,750,1,0,incongruent,0,703.756305763138,2004.79363172653
39,104,2,203,-0.5,-0.5,0,1,NaN,0.4,1,594,1,1,594,1,0,0.6,0.4,-0.274364928502841,-0.274364928502841,750,0,0,neutral,0.1,495.480326751499,1785.64759262974
39,104,2,204,-0.5,0.5,0.5,4,2,0.4,3,772,0,0,NaN,0,0,0.8,0.2,0.703537127520383,NaN,750,0,1,incongruent,0,4027.62972231704,1136.76566454844
39,104,2,205,-0.5,-0.5,-0.5,1,1,0.2,1,575,1,1,575,0,0,0.4,0.4,-0.378747732235657,-0.378747732235657,750,1,0,congruent,0,1117.1043801354,1332.54827054313
39,104,2,206,-0.5,-0.5,0.5,3,4,0.2,2,519,0,1,NaN,0,0,0.2,0.2,-0.686402311658694,NaN,750,0,1,incongruent,0,752.704264775138,3482.79543889264
39,104,2,207,-0.5,0.5,0,2,NaN,0.2,3,785,0,0,NaN,0,0,0.2,0.2,0.774956940600731,NaN,750,0,1,neutral,0,1542.14011311824,2074.4110249603
39,104,2,209,-0.5,0.5,-0.5,3,3,0.2,3,800,1,0,800,0,0,0,0.2,0.857364417231902,0.857364417231902,750,1,0,congruent,0,1041.86225638314,1820.76385879463
39,104,2,210,0.5,0.5,0,2,NaN,0.2,3,625,0,1,NaN,0,0,0,NaN,-0.104056143465089,NaN,750,0,1,neutral,0,1542.57492778117,639.806684338275
39,104,2,211,-0.5,-0.5,-0.5,4,4,0.2,2,663,0,1,NaN,1,0,0,0.2,0.104709464000543,NaN,750,0,1,congruent,0.1,2908.90667677685,481.360474241953
39,104,2,212,-0.5,0.5,0,3,NaN,0.2,3,596,1,1,596,1,0,0.2,0.2,-0.263377264952019,-0.263377264952019,750,0,0,neutral,0.1,2212.07094263609,390.85386587764
39,104,2,213,0.5,0.5,0.5,4,2,0.2,3,949,0,0,NaN,0,0,0.4,NaN,1.6759453517682,NaN,750,0,1,incongruent,0,2788.87704643966,3710.94799622242
39,104,2,215,-0.5,-0.5,-0.5,4,4,0.2,2,849,0,0,NaN,0,0,0.4,0.4,1.12656217422706,NaN,750,0,1,congruent,0,2283.21565730569,3278.40517577016
39,104,2,216,0.5,-0.5,0.5,3,1,0.2,1,664,0,1,NaN,1,0,0.4,NaN,0.110203295775955,NaN,750,1,0,incongruent,1,662.122100549209,700.245410791122
39,104,2,217,-0.5,-0.5,0,1,NaN,0.2,1,717,1,1,717,0,0,0.6,0.2,0.401376379872758,0.401376379872758,750,0,0,neutral,0,1199.36248979202,1288.08491227467
39,104,2,218,0.5,0.5,-0.5,4,4,0.2,2,564,0,1,NaN,0,0,0.4,NaN,-0.439179881765182,NaN,750,0,1,congruent,0,3805.80660041873,1676.59121469829
39,104,2,219,0.5,0.5,-0.5,1,1,0.2,1,582,1,1,582,1,0,0.4,NaN,-0.340290909807778,-0.340290909807778,750,1,0,congruent,1,1456.2486407683,1448.00539104895
39,104,2,220,0.5,0.5,0.5,2,3,0.4,3,619,0,1,NaN,0,0,0.8,NaN,-0.137019134117557,NaN,750,1,0,incongruent,0,1920.31301501454,1830.50395634285
39,104,2,221,-0.5,0.5,-0.5,1,1,0.4,1,514,1,1,514,1,0,0.8,0.4,-0.713871470535751,-0.713871470535751,750,1,0,congruent,0.1,1601.80479963283,1280.89257073408
39,104,2,223,-0.5,0.5,0,4,NaN,0.6,3,718,0,1,NaN,0,0,1,0.4,0.406870211648169,NaN,750,0,1,neutral,0,1660.53571814397,927.617438515837
39,104,2,225,-0.5,-0.5,0,1,NaN,0.4,1,438,1,1,438,0,0,0.6,0.2,-1.13140268546702,-1.13140268546702,750,0,0,neutral,0,1986.93518463739,1328.8360426207
39,104,2,227,-0.5,-0.5,0.5,2,4,0.4,2,357,1,1,357,1,0,0.8,0.2,-1.57640305927534,-1.57640305927534,750,0,0,incongruent,0.1,545.235184866875,1305.27508483663
39,104,2,228,-0.5,0.5,0.5,3,2,0.4,2,782,0,0,NaN,0,0,0.6,0.4,0.758475445274497,NaN,750,1,0,incongruent,0,980.152529463324,623.837622992258
39,104,2,229,0.5,0.5,0.5,2,3,0.4,3,588,0,1,NaN,0,0,0.6,NaN,-0.307327919155309,NaN,750,1,0,incongruent,0,1498.91574739103,957.685387805025
39,104,2,230,-0.5,0.5,0,1,NaN,0.2,1,575,1,1,575,1,0,0.6,0.4,-0.378747732235657,-0.378747732235657,750,0,0,neutral,0.1,353.238419130121,2813.92503930863
39,104,2,231,-0.5,0.5,-0.5,2,2,0.2,2,710,1,1,710,1,0,0.8,0.6,0.362919557444878,0.362919557444878,750,1,0,congruent,0.1,1121.26319510314,1901.87510748935
39,104,2,232,0.5,-0.5,0.5,4,1,0.4,1,644,0,1,NaN,0,0,0.6,NaN,0.000326660267727406,NaN,750,1,0,incongruent,0,2403.25488567252,2249.03852981048
39,104,2,233,-0.5,0.5,0,3,NaN,0.4,3,805,1,0,805,0,0,0.4,0.6,0.884833576108959,0.884833576108959,750,0,0,neutral,0,1969.48468382496,632.752295541491
39,104,2,234,-0.5,0.5,-0.5,2,2,0.4,2,601,1,1,601,1,0,0.4,0.4,-0.235908106074962,-0.235908106074962,750,1,0,congruent,0.1,783.978128931808,505.324926436795
39,104,2,236,0.5,0.5,0.5,3,4,0.6,2,606,0,1,NaN,0,0,0.6,NaN,-0.208438947197905,NaN,750,0,1,incongruent,0,575.635061689408,690.652646800232
39,104,2,237,-0.5,0.5,0,2,NaN,0.6,3,831,0,0,NaN,0,0,0.4,0.6,1.02767320226965,NaN,750,0,1,neutral,0,2692.719528837,370.581813109856
39,104,2,238,0.5,-0.5,-0.5,3,3,0.4,3,928,1,0,928,0,0,0.4,NaN,1.56057488448456,1.56057488448456,750,1,0,congruent,0,1470.3506931046,1672.4647208998
39,104,2,239,-0.5,0.5,0,4,NaN,0.4,4,357,1,1,357,1,0,0.4,0.6,-1.57640305927534,-1.57640305927534,750,0,0,neutral,0.1,4612.19909422305,548.722706665945
39,104,2,240,0.5,-0.5,-0.5,3,3,0.4,2,628,0,1,NaN,1,0,0.4,NaN,-0.0875746481388546,NaN,750,0,1,congruent,1,526.965701411257,511.402142599044
39,104,2,241,-0.5,-0.5,0.5,4,1,0.4,3,534,0,1,NaN,0,0,0.6,0.4,-0.603994835027524,NaN,750,0,1,incongruent,0,950.423499478125,1241.00683331678
39,104,2,242,-0.5,-0.5,-0.5,3,3,0.4,2,573,0,1,NaN,0,0,0.6,0.4,-0.38973539578648,NaN,750,0,1,congruent,0,3106.71165603033,1023.80835206644
39,104,2,243,-0.5,-0.5,-0.5,4,4,0.4,3,377,0,1,NaN,0,0,0.6,0.4,-1.46652642376711,NaN,750,0,1,congruent,0,385.503549716937,1011.7398165149
39,104,2,244,0.5,-0.5,0.5,3,2,0.4,2,769,0,0,NaN,0,0,0.6,NaN,0.687055632194149,NaN,750,1,0,incongruent,0,2157.83626684856,784.843398443012
39,104,2,245,0.5,0.5,0,4,NaN,0.4,3,837,0,0,NaN,0,0,0.4,NaN,1.06063619292212,NaN,750,0,1,neutral,0,2565.48892539624,626.230511783348
39,104,2,246,-0.5,-0.5,0.5,1,4,0.4,4,772,0,0,NaN,0,0,0,0.4,0.703537127520383,NaN,750,1,0,incongruent,0,4009.41853596044,1249.56855456956
39,104,2,247,-0.5,-0.5,0.5,3,2,0.4,2,646,0,1,NaN,1,0,0,0.2,0.0113143238185502,NaN,750,1,0,incongruent,0.1,2733.18799173049,579.570001512743
39,104,2,248,-0.5,-0.5,-0.5,1,1,0.4,1,638,1,1,638,1,0,0.2,0.2,-0.0326363303847408,-0.0326363303847408,750,1,0,congruent,0.1,444.364664690359,620.537893030875
39,104,2,249,0.5,-0.5,0.5,3,2,0.4,2,875,0,0,NaN,0,0,0.4,NaN,1.26940180038775,NaN,750,1,0,incongruent,0,2660.52957614418,1692.77468083607
39,104,2,250,0.5,-0.5,0,2,NaN,0.4,3,682,0,1,NaN,0,0,0.4,NaN,0.20909226773336,NaN,750,0,1,neutral,0,2643.07744159617,1235.97873172567
39,104,2,251,0.5,-0.5,0.5,1,4,0.4,1,949,1,0,949,0,0,0.4,NaN,1.6759453517682,1.6759453517682,750,0,0,incongruent,0,1271.57111363934,3004.9656769086
39,104,2,252,0.5,0.5,0,3,NaN,0.4,3,645,1,1,645,1,0,0.4,NaN,0.00582049204313878,0.00582049204313878,750,0,0,neutral,1,1078.29117134859,2358.64361119587
39,104,2,253,0.5,-0.5,0.5,4,1,0.4,1,801,0,0,NaN,0,0,0.6,NaN,0.862858249007313,NaN,750,1,0,incongruent,0,2523.97955669321,1734.66122616244
39,104,2,254,0.5,0.5,0,3,NaN,0.4,3,585,1,1,585,1,0,0.4,NaN,-0.323809414481544,-0.323809414481544,750,0,0,neutral,1,1169.06837391533,2278.1692104464
39,104,2,255,0.5,-0.5,-0.5,2,2,0.6,4,857,0,0,NaN,0,0,0.8,NaN,1.17051282843035,NaN,750,0,1,congruent,0,578.522003712878,1293.00431050122
39,104,2,257,0.5,-0.5,0.5,2,4,0.6,2,269,1,1,269,1,0,0.8,NaN,-2.05986025551154,-2.05986025551154,750,0,0,incongruent,1,3009.57482870416,1799.46128103294
39,104,2,258,0.5,0.5,0.5,4,1,0.6,2,324,0,1,NaN,0,0,0.8,NaN,-1.75769950786391,NaN,750,0,1,incongruent,0,1056.32701557214,1207.65254420676
39,104,2,259,0.5,0.5,0,3,NaN,0.4,4,828,0,0,NaN,0,0,0.8,NaN,1.01119170694342,NaN,750,0,1,neutral,0,1468.53256301038,971.225384658038
39,104,2,260,0.5,-0.5,-0.5,4,4,0.4,2,682,0,1,NaN,0,0,0.4,NaN,0.20909226773336,NaN,750,0,1,congruent,0,1041.17483931237,1896.44094218085
39,104,2,261,0.5,-0.5,0.5,3,1,0.4,1,607,0,1,NaN,0,0,0.4,NaN,-0.202945115422493,NaN,750,1,0,incongruent,0,3683.72846851461,1898.233247253
39,104,2,262,-0.5,0.5,-0.5,4,4,0.4,2,660,0,1,NaN,0,0,0.4,0.6,0.0882279686743094,NaN,750,0,1,congruent,0,4863.88162046846,4328.8987966996
39,104,2,263,-0.5,-0.5,0.5,2,1,0.2,1,816,0,0,NaN,0,0,0,0.4,0.945265725638484,NaN,750,1,0,incongruent,0,898.000418229114,2538.72077187558
39,104,2,264,-0.5,0.5,0.5,1,2,0.2,3,940,0,0,NaN,0,0,0,0.4,1.62650086578949,NaN,750,0,1,incongruent,0,1393.53127541136,2546.76564270907
39,104,2,265,0.5,0.5,0.5,3,1,0,3,837,1,0,837,0,0,0,NaN,1.06063619292212,1.06063619292212,750,0,0,incongruent,0,122.368013072465,422.205681354278
39,104,2,266,-0.5,-0.5,0.5,1,2,0,3,671,0,1,NaN,0,0,0,0.4,0.148660118203834,NaN,750,0,1,incongruent,0,559.356734221213,3714.99974716511
39,104,2,267,0.5,-0.5,0.5,2,3,0,3,714,0,1,NaN,0,0,0,NaN,0.384894884546524,NaN,750,1,0,incongruent,0,1173.53714632809,1102.19979053222
39,104,2,268,0.5,-0.5,-0.5,4,4,0,4,438,1,1,438,0,0,0,NaN,-1.13140268546702,-1.13140268546702,750,1,0,congruent,0,2828.06929438369,2411.32677455352
39,104,2,269,-0.5,-0.5,0,3,NaN,0,2,283,0,1,NaN,0,0,0,0.4,-1.98294661065578,NaN,750,0,1,neutral,0,1147.04037331521,598.808594022608
39,104,2,270,0.5,-0.5,0.5,2,4,0,3,617,0,1,NaN,0,0,0,NaN,-0.14800679766838,NaN,750,0,1,incongruent,0,1263.05964770899,1231.29650030436
39,104,2,271,-0.5,-0.5,0.5,3,2,0,4,917,0,0,NaN,0,0,0,0.4,1.50014273495503,NaN,750,0,1,incongruent,0,241.772997241522,584.945072032617
39,104,2,272,0.5,0.5,0.5,2,3,0,2,592,1,1,592,1,0,0,NaN,-0.285352592053664,-0.285352592053664,750,0,0,incongruent,1,3949.5486629841,2833.23919478427
39,104,2,273,-0.5,-0.5,-0.5,1,1,0.2,1,717,1,1,717,0,0,0.4,0.2,0.401376379872758,0.401376379872758,750,1,0,congruent,0,1241.63642870639,1139.87903578504
39,104,2,274,-0.5,-0.5,-0.5,2,2,0.2,2,601,1,1,601,0,0,0.4,0,-0.235908106074962,-0.235908106074962,750,1,0,congruent,0,763.766132409774,637.683015662975
39,104,2,275,0.5,-0.5,0,4,NaN,0.2,3,851,0,0,NaN,0,0,0.4,NaN,1.13754983777788,NaN,750,0,1,neutral,0,1763.51446055836,1905.20692445034
39,104,2,276,-0.5,0.5,0.5,2,4,0.2,4,810,0,0,NaN,0,0,0.4,0.4,0.912302734986015,NaN,750,1,0,incongruent,0,1998.34670102155,938.155483167942
39,104,2,277,0.5,0.5,0,1,NaN,0.2,1,398,1,1,398,1,0,0.4,NaN,-1.35115595648347,-1.35115595648347,750,0,0,neutral,1,1841.19518489526,1107.10249462415
39,104,2,278,0.5,0.5,-0.5,3,3,0.4,2,415,0,1,NaN,0,0,0.4,NaN,-1.25776081630148,NaN,750,0,1,congruent,0,638.876975495638,692.763160712467
39,104,2,279,0.5,0.5,-0.5,2,2,0.4,3,309,0,1,NaN,0,0,0.4,NaN,-1.84010698449508,NaN,750,0,1,congruent,0,2441.04438786357,2104.5119041218
39,104,2,280,0.5,0.5,0,3,NaN,0.4,4,922,0,0,NaN,0,0,0.4,NaN,1.52761189383209,NaN,750,0,1,neutral,0,1054.84974567797,780.97785179858
39,104,2,281,0.5,-0.5,-0.5,2,2,0.2,2,565,1,1,565,0,0,0.4,NaN,-0.433686049989771,-0.433686049989771,750,1,0,congruent,0,1301.1394569946,1843.24782516636
39,104,2,282,-0.5,0.5,-0.5,4,4,0.2,2,647,0,1,NaN,0,0,0.4,0.2,0.0168081555939615,NaN,750,0,1,congruent,0,1423.74745950125,731.872525005362
39,104,2,283,0.5,0.5,0,2,NaN,0.2,3,367,0,1,NaN,0,0,0,NaN,-1.52146474152122,NaN,750,0,1,neutral,0,3994.85599230908,4115.94572279631
39,104,2,284,-0.5,-0.5,0.5,1,2,0,4,252,0,1,NaN,0,0,0,0,-2.15325539569353,NaN,750,0,1,incongruent,0,1087.30684167969,1304.1747601112
39,104,2,285,-0.5,0.5,0,3,NaN,0,2,821,0,0,NaN,0,0,0,0.2,0.972734884515541,NaN,750,0,1,neutral,0,3703.29485332671,656.443181594274
39,104,2,286,-0.5,0.5,0.5,1,2,0,3,640,0,1,NaN,0,0,0,0,-0.0216486668339181,NaN,750,0,1,incongruent,0,2307.65773115939,2126.03660357655
39,104,2,289,-0.5,-0.5,-0.5,1,1,0,1,327,1,1,327,0,0,0,0,-1.74121801253768,-1.74121801253768,750,1,0,congruent,0,2741.06354784602,1701.84765904429
39,104,2,290,0.5,0.5,0.5,2,3,0,3,936,0,0,NaN,0,0,0,NaN,1.60452553868785,NaN,750,1,0,incongruent,0,1902.21139685008,739.05190219429
39,104,2,291,-0.5,-0.5,0,1,NaN,0,1,590,1,1,590,0,0,0,0,-0.296340255604487,-0.296340255604487,750,0,0,neutral,0,1548.72324182173,989.840416121652
39,104,2,292,0.5,-0.5,0.5,3,1,0,1,921,0,0,NaN,0,0,0,NaN,1.52211806205668,NaN,750,1,0,incongruent,0,606.119606867906,816.690756057528
39,104,2,293,-0.5,0.5,0,4,NaN,0,2,676,0,1,NaN,0,0,0,0,0.176129277080891,NaN,750,0,1,neutral,0,792.062617014139,2403.07729064027
39,104,2,294,-0.5,0.5,0.5,2,3,0,4,985,0,0,NaN,0,0,0,0,1.87372329568301,NaN,750,0,1,incongruent,0,2223.07929880068,469.6143134088
39,104,2,295,-0.5,0.5,0.5,3,2,0,3,918,1,0,918,0,0,0,0,1.50563656673044,1.50563656673044,750,0,0,incongruent,0,1195.75791699133,4353.77249140718
39,104,2,296,0.5,0.5,-0.5,4,4,0,2,637,0,1,NaN,0,0,0,NaN,-0.0381301621601522,NaN,750,0,1,congruent,0,1981.07106970615,581.580497350869
39,104,2,297,-0.5,0.5,0.5,1,2,0,3,910,0,0,NaN,0,0,0,0,1.46168591252715,NaN,750,0,1,incongruent,0,3086.22351130274,1584.33513758994
39,104,2,298,-0.5,-0.5,0.5,4,3,0,2,898,0,0,NaN,0,0,0,0,1.39575993122222,NaN,750,0,1,incongruent,0,1116.77264198262,1006.06170705521
39,104,2,299,0.5,-0.5,-0.5,2,2,0,4,741,0,1,NaN,0,0,0,NaN,0.533228342482631,NaN,750,0,1,congruent,0,2935.60870893382,2683.44922879328
39,104,2,300,0.5,-0.5,0,3,NaN,0,4,865,0,0,NaN,0,0,0,NaN,1.21446348263364,NaN,750,0,1,neutral,0,3459.8403741304,1456.21207971799
39,104,3,301,0.5,0.5,0.5,1,2,0,3,915,0,0,NaN,0,0,0,NaN,1.48915507140421,NaN,750,0,1,incongruent,0,1635.97522686307,1193.20996515408
39,104,3,302,0.5,-0.5,-0.5,4,4,0,2,690,0,1,NaN,0,0,0,NaN,0.253042921936651,NaN,750,0,1,congruent,0,1574.00244195539,2071.57458688738
39,104,3,303,0.5,0.5,0,2,NaN,0,3,580,0,1,NaN,0,0,0,NaN,-0.351278573358601,NaN,750,0,1,neutral,0,2231.96184322537,802.011387997065
39,104,3,304,-0.5,-0.5,-0.5,4,4,0,2,632,0,1,NaN,0,0,0,0,-0.0655993210372091,NaN,750,0,1,congruent,0,767.304227342929,1192.06849395442
39,104,3,305,0.5,-0.5,0,2,NaN,0,4,709,0,1,NaN,0,0,0,NaN,0.357425725669467,NaN,750,0,1,neutral,0,1514.76634782009,1162.1848088166
39,104,3,306,-0.5,0.5,0.5,1,2,0,2,743,0,1,NaN,0,0,0,0,0.544216006033453,NaN,750,1,0,incongruent,0,1522.37397045789,1888.22024655273
39,104,3,307,0.5,0.5,0.5,2,1,0,1,243,0,1,NaN,0,0,0,NaN,-2.20269988167223,NaN,750,1,0,incongruent,0,2688.10573931584,901.783719590166
39,104,3,308,-0.5,0.5,-0.5,4,4,0,2,598,0,1,NaN,0,0,0,0,-0.252389601401196,NaN,750,0,1,congruent,0,894.610361321186,2682.1790424345
39,104,3,309,-0.5,0.5,0.5,3,2,0,3,654,1,1,654,1,0,0,0,0.0552649780218411,0.0552649780218411,750,0,0,incongruent,0.1,863.465185105819,2018.49358635582
39,104,3,310,0.5,0.5,0,2,NaN,0.2,3,440,0,1,NaN,0,0,0.2,NaN,-1.12041502191619,NaN,750,0,1,neutral,0,1244.89107375352,858.386182379306
39,104,3,311,0.5,0.5,-0.5,1,1,0.2,1,881,1,0,881,0,0,0.2,NaN,1.30236479104022,1.30236479104022,750,1,0,congruent,0,1935.38224236275,5308.34365076733
39,104,3,312,-0.5,0.5,-0.5,2,2,0.2,1,479,0,1,NaN,0,0,0.2,0.2,-0.906155582675149,NaN,750,0,1,congruent,0,737.845724325518,1146.54419742435
39,104,3,313,-0.5,0.5,-0.5,1,1,0.2,1,782,1,0,782,0,0,0.2,0.2,0.758475445274497,0.758475445274497,750,1,0,congruent,0,871.555127614365,1111.30993933699
39,104,3,314,0.5,-0.5,0.5,4,3,0.2,2,894,0,0,NaN,0,0,0.2,NaN,1.37378460412057,NaN,750,0,1,incongruent,0,310.500687979533,2389.16280534152
39,104,3,315,-0.5,-0.5,0.5,3,1,0.2,4,872,0,0,NaN,1,0,0,0,1.25292030506152,NaN,750,0,1,incongruent,0.1,1672.0656337257,621.824274900973
39,104,3,316,-0.5,0.5,0,1,NaN,0.2,1,546,1,1,546,1,0,0.2,0.2,-0.538068853722587,-0.538068853722587,750,0,0,neutral,0.1,828.602107368802,3246.30115988501
39,104,3,317,0.5,0.5,0.5,4,3,0.2,2,374,0,1,NaN,0,0,0.4,NaN,-1.48300791909334,NaN,750,0,1,incongruent,0,1475.41326238669,1614.63306015402
39,104,3,318,0.5,0.5,0.5,1,2,0.2,1,518,1,1,518,1,0,0.4,NaN,-0.691896143434106,-0.691896143434106,750,0,0,incongruent,1,3218.44937648042,1433.62452805342
39,104,3,319,0.5,-0.5,-0.5,3,3,0.4,2,582,0,1,NaN,0,0,0.8,NaN,-0.340290909807778,NaN,750,0,1,congruent,0,562.464547023669,1144.13302366341
39,104,3,321,-0.5,-0.5,0,3,NaN,0.4,2,791,0,0,NaN,1,0,0.6,0.2,0.807919931253199,NaN,750,0,1,neutral,0.1,1979.03984747028,588.682057932511
39,104,3,322,0.5,-0.5,-0.5,1,1,0.4,1,675,1,1,675,1,0,0.6,NaN,0.17063544530548,0.17063544530548,750,1,0,congruent,1,856.117728076044,1991.9917147961
39,104,3,323,-0.5,0.5,-0.5,2,2,0.4,3,536,0,1,NaN,0,0,1,0.4,-0.593007171476701,NaN,750,0,1,congruent,0,1670.63383488605,2590.21799815687
39,104,3,324,-0.5,0.5,0.5,1,4,0.4,2,640,0,1,NaN,0,0,0.6,0.2,-0.0216486668339181,NaN,750,0,1,incongruent,0,1042.71404640848,2314.86433946315
39,104,3,325,-0.5,-0.5,0.5,2,1,0.2,3,779,0,0,NaN,1,0,0.6,0.4,0.741993949948263,NaN,750,0,1,incongruent,0.1,2274.30977584819,992.023199063965
39,104,3,326,0.5,-0.5,0.5,4,3,0.2,2,608,0,1,NaN,0,0,0.8,NaN,-0.197451283647082,NaN,750,0,1,incongruent,0,1639.69887760884,979.456278088688
39,104,3,327,-0.5,0.5,0.5,3,1,0.2,3,992,1,0,992,0,0,0.6,0.2,1.91218011811089,1.91218011811089,750,0,0,incongruent,0,985.879792456297,678.233997972168
39,104,3,328,-0.5,0.5,0,2,NaN,0.2,3,648,0,1,NaN,0,0,0.2,0.2,0.0223019873693729,NaN,750,0,1,neutral,0,435.69296745045,1635.55401393144
39,104,3,329,-0.5,0.5,-0.5,3,3,0,2,192,0,1,NaN,0,0,0.2,0,-2.48288530221821,NaN,750,0,1,congruent,0,1152.70909251436,601.094440964486
39,104,3,331,0.5,0.5,0.5,3,2,0,3,449,1,1,449,1,0,0,NaN,-1.07097053593749,-1.07097053593749,750,0,0,incongruent,1,565.484463045408,1348.62012079773
39,104,3,332,-0.5,-0.5,0.5,1,4,0.2,2,576,0,1,NaN,0,0,0.4,0.6,-0.373253900460246,NaN,750,0,1,incongruent,0,1687.58429866484,2708.17667868425
39,104,3,333,-0.5,-0.5,0,2,NaN,0.2,3,664,0,1,NaN,0,0,0.4,0.6,0.110203295775955,NaN,750,0,1,neutral,0,567.836648424327,2664.92730064486
39,104,3,335,0.5,-0.5,0.5,4,2,0.2,2,570,0,1,NaN,0,0,0.4,NaN,-0.406216891112714,NaN,750,1,0,incongruent,0,2929.11841708898,1237.8587249625
39,104,3,336,-0.5,-0.5,0,1,NaN,0.2,4,243,0,1,NaN,1,0,0.4,0.4,-2.20269988167223,NaN,750,0,1,neutral,0.1,1239.51522998281,691.810727169436
39,104,3,338,0.5,0.5,0,3,NaN,0.2,3,240,1,1,240,1,0,0.2,NaN,-2.21918137699847,-2.21918137699847,750,0,0,neutral,1,1409.88937251521,364.046379478733
39,104,3,339,0.5,0.5,0.5,1,2,0.4,4,575,0,1,NaN,0,0,0.6,NaN,-0.378747732235657,NaN,750,0,1,incongruent,0,1368.62119985096,1962.0458265589
39,104,3,340,0.5,-0.5,-0.5,4,4,0.4,1,609,0,1,NaN,1,0,0.6,NaN,-0.191957451871671,NaN,750,0,1,congruent,1,6457.7303208836,2393.75180733898
39,104,3,342,0.5,-0.5,-0.5,3,3,0.4,2,227,0,1,NaN,0,0,1.2,NaN,-2.29060119007882,NaN,750,0,1,congruent,0,548.756964215397,2516.51340121982
39,104,3,343,-0.5,-0.5,0,2,NaN,0.4,3,676,0,1,NaN,1,0,1.2,0.4,0.176129277080891,NaN,750,0,1,neutral,0.1,1340.44328655536,1158.40790488652
39,104,3,344,0.5,0.5,0.5,1,2,0.4,4,548,0,1,NaN,0,0,1,NaN,-0.527081190171764,NaN,750,0,1,incongruent,0,1724.39258832622,1013.34884531554
39,104,3,345,-0.5,-0.5,-0.5,4,4,0.4,2,578,0,1,NaN,1,0,1,0.4,-0.362266236909423,NaN,750,0,1,congruent,0.1,2068.64229313169,2251.37616934142
39,104,3,346,0.5,0.5,-0.5,2,2,0.4,1,288,0,1,NaN,0,0,0.8,NaN,-1.95547745177872,NaN,750,0,1,congruent,0,743.175510596091,1594.37527620542
39,104,3,347,-0.5,0.5,0,4,NaN,0.4,1,796,0,0,NaN,0,0,0.4,0,0.835389090130256,NaN,750,0,1,neutral,0,1451.69795780274,962.289343010423
39,104,3,349,0.5,0.5,0.5,1,3,0.2,1,719,1,1,719,1,0,0.4,NaN,0.41236404342358,0.41236404342358,750,0,0,incongruent,1,879.837582038097,3883.86420667042
39,104,3,350,-0.5,-0.5,-0.5,2,2,0.2,3,543,0,1,NaN,1,0,0.8,0.8,-0.554550349048821,NaN,750,0,1,congruent,0.1,1741.79450055496,521.862017209381
39,104,3,351,-0.5,0.5,-0.5,4,4,0.2,2,539,0,1,NaN,0,0,0.8,0,-0.576525676150467,NaN,750,0,1,congruent,0,680.552819768029,1367.00981124175
39,104,3,352,0.5,-0.5,0,2,NaN,0.2,4,300,0,1,NaN,0,0,0.8,NaN,-1.88955147047379,NaN,750,0,1,neutral,0,685.052267066285,620.185245471299
39,104,3,353,0.5,-0.5,-0.5,4,4,0.2,1,416,0,1,NaN,1,0,0.8,NaN,-1.25226698452607,NaN,750,0,1,congruent,1,1246.12644007891,814.496080189544
39,104,3,354,0.5,-0.5,0,3,NaN,0.2,4,679,0,1,NaN,0,0,1,NaN,0.192610772407125,NaN,750,0,1,neutral,0,1334.52262111381,3150.952320037
39,104,3,355,-0.5,-0.5,-0.5,1,1,0.2,2,840,0,0,NaN,0,0,0.6,1,1.07711768824836,NaN,750,0,1,congruent,0,1014.67668317134,1979.74166587403
39,104,3,356,0.5,-0.5,0.5,2,4,0.2,2,599,1,1,599,0,0,0.4,NaN,-0.246895769625784,-0.246895769625784,750,0,0,incongruent,0,2219.1637475638,506.051888856664
39,104,3,357,-0.5,-0.5,0,3,NaN,0.2,3,631,1,1,631,0,0,0.4,0.8,-0.0710931528126204,-0.0710931528126204,750,0,0,neutral,0,3465.1464412081,569.123215432734
39,104,3,358,-0.5,-0.5,-0.5,4,4,0.2,3,553,0,1,NaN,0,0,0.4,0.6,-0.499612031294708,NaN,750,0,1,congruent,0,5763.51636147765,928.417723888984
39,104,3,359,0.5,-0.5,-0.5,2,2,0.2,3,641,0,1,NaN,0,0,0,NaN,-0.0161548350585067,NaN,750,0,1,congruent,0,1389.4943018719,1317.23726500814
39,104,3,360,0.5,0.5,0,1,NaN,0.2,1,703,1,1,703,1,0,0,NaN,0.324462735016998,0.324462735016998,750,0,0,neutral,1,3106.52951224147,665.958410610732
39,104,3,361,0.5,-0.5,0.5,2,1,0.4,2,795,1,0,795,0,0,0.4,NaN,0.829895258354845,0.829895258354845,750,0,0,incongruent,0,2016.26989739254,764.959467204515
39,104,3,362,0.5,-0.5,-0.5,3,3,0.4,4,853,0,0,NaN,0,0,0.4,NaN,1.1485375013287,NaN,750,0,1,congruent,0,1670.30350869489,974.211455910017
39,104,3,363,-0.5,-0.5,-0.5,1,1,0.4,1,667,1,1,667,0,0,0.4,0.4,0.126684791102189,0.126684791102189,750,1,0,congruent,0,853.039085313303,1219.78929774615
39,104,3,364,-0.5,0.5,-0.5,4,4,0.4,2,670,0,1,NaN,0,0,0.4,0,0.143166286428423,NaN,750,0,1,congruent,0,2359.28316829726,1712.23487069585
39,104,3,365,0.5,0.5,0,1,NaN,0.4,1,634,1,1,634,1,0,0.4,NaN,-0.0546116574863863,-0.0546116574863863,750,0,0,neutral,1,1061.02903082862,627.68053853694
39,104,3,366,-0.5,-0.5,-0.5,4,4,0.6,2,623,0,1,NaN,1,0,0.4,0.2,-0.115043807015911,NaN,750,0,1,congruent,0.1,304.599599007618,2532.94647731296
39,104,3,367,0.5,0.5,-0.5,1,1,0.6,1,885,1,0,885,0,0,0.6,NaN,1.32434011814187,1.32434011814187,750,1,0,congruent,0,3689.0448315663,2750.06144450117
39,104,3,368,-0.5,0.5,0,3,NaN,0.4,3,789,1,0,789,0,0,0.6,0,0.796932267702377,0.796932267702377,750,0,0,neutral,0,844.293517640979,637.732922913902
39,104,3,369,-0.5,-0.5,-0.5,1,1,0.4,1,601,1,1,601,0,0,0.6,0.2,-0.235908106074962,-0.235908106074962,750,1,0,congruent,0,2490.02634197836,764.959399437468
39,104,3,370,-0.5,-0.5,0.5,4,3,0.4,2,744,0,1,NaN,0,0,0.6,0.2,0.549709837808865,NaN,750,0,1,incongruent,0,979.94342604854,1362.23877053653
39,104,3,371,0.5,-0.5,0,1,NaN,0.4,1,583,1,1,583,0,0,0.2,NaN,-0.334797078032366,-0.334797078032366,750,0,0,neutral,0,725.016875988621,2631.80044760134
39,104,3,372,-0.5,0.5,-0.5,2,2,0.4,3,554,0,1,NaN,0,0,0,0,-0.494118199519296,NaN,750,0,1,congruent,0,941.945586746388,1858.70712450629
39,104,3,373,0.5,0.5,0,1,NaN,0.2,1,577,1,1,577,1,0,0,NaN,-0.367760068684835,-0.367760068684835,750,0,0,neutral,1,248.81834421461,1474.85179527771
39,104,3,375,0.5,0.5,-0.5,4,4,0.2,2,637,0,1,NaN,0,0,0.4,NaN,-0.0381301621601522,NaN,750,0,1,congruent,0,533.580913916822,1116.59168537844
39,104,3,376,0.5,-0.5,0,1,NaN,0.2,1,633,1,1,633,0,0,0.4,NaN,-0.0601054892617977,-0.0601054892617977,750,0,0,neutral,0,1192.96225666461,3405.21631346302
39,104,3,377,-0.5,0.5,0.5,4,2,0.2,3,720,0,1,NaN,0,0,0.4,0,0.417857875198992,NaN,750,0,1,incongruent,0,238.088844839975,2090.34391258711
39,104,3,378,-0.5,0.5,0.5,2,3,0.2,4,596,0,1,NaN,0,0,0.4,0,-0.263377264952019,NaN,750,0,1,incongruent,0,2059.90977945722,2774.73894944298
39,104,3,379,-0.5,0.5,-0.5,1,1,0.2,2,268,0,1,NaN,0,0,0,0,-2.06535408728695,NaN,750,0,1,congruent,0,779.451626437403,370.92765637564
39,104,3,380,-0.5,-0.5,0,3,NaN,0,3,789,1,0,789,0,0,0,0.2,0.796932267702377,0.796932267702377,750,0,0,neutral,0,700.960152462858,3814.20458453565
39,104,3,381,-0.5,0.5,-0.5,4,4,0,2,771,0,0,NaN,0,0,0,0,0.698043295744972,NaN,750,0,1,congruent,0,657.636265236652,661.394243169832
39,104,3,383,0.5,0.5,0.5,2,1,0,2,630,1,1,630,1,0,0,NaN,-0.0765869845880318,-0.0765869845880318,750,0,0,incongruent,1,6616.32893048601,3142.04214069349
39,104,3,384,-0.5,0.5,0,4,NaN,0.2,1,987,0,0,NaN,0,0,0.4,0,1.88471095923383,NaN,750,0,1,neutral,0,1549.7060823922,3538.69235492877
39,104,3,385,-0.5,-0.5,-0.5,3,3,0.2,3,488,1,1,488,0,0,0.4,0.2,-0.856711096696447,-0.856711096696447,750,1,0,congruent,0,1456.5679039197,3656.49721197135
39,104,3,386,0.5,0.5,0,4,NaN,0.2,4,241,1,1,241,1,0,0.4,NaN,-2.21368754522306,-2.21368754522306,750,0,0,neutral,1,2562.2239428457,750.801638687448
39,104,3,387,-0.5,-0.5,-0.5,2,2,0.4,3,999,0,0,NaN,0,0,0.8,0.2,1.95063694053876,NaN,750,0,1,congruent,0,1615.52767297756,514.84442688927
39,104,3,388,-0.5,0.5,-0.5,4,4,0.4,2,686,0,1,NaN,0,0,0.8,0,0.231067594835005,NaN,750,0,1,congruent,0,1315.65220983126,1229.85837980054
39,104,3,389,0.5,-0.5,0.5,1,2,0.4,3,638,0,1,NaN,0,0,0.4,NaN,-0.0326363303847408,NaN,750,0,1,incongruent,0,2293.59732828541,858.438357840817
39,104,3,390,0.5,-0.5,0,2,NaN,0.4,3,682,0,1,NaN,0,0,0.4,NaN,0.20909226773336,NaN,750,0,1,neutral,0,1134.64329655939,2394.06667632005
39,104,3,391,0.5,0.5,-0.5,4,4,0.4,4,833,1,0,833,0,0,0.4,NaN,1.03866086582048,1.03866086582048,750,1,0,congruent,0,1783.73249974512,472.348600147733
39,104,3,392,-0.5,-0.5,-0.5,3,3,0.4,3,646,1,1,646,1,0,0,0,0.0113143238185502,0.0113143238185502,750,1,0,congruent,0.1,1491.9808609855,2138.65494125731
39,104,3,393,0.5,-0.5,0,1,NaN,0.4,1,610,1,1,610,1,0,0.2,NaN,-0.186463620096259,-0.186463620096259,750,0,0,neutral,1,1882.01657655902,756.079684478903
39,104,3,394,-0.5,-0.5,-0.5,2,2,0.4,2,656,1,1,656,0,0,0.6,0.2,0.0662526415726639,0.0662526415726639,750,1,0,congruent,0,2942.6155322739,1590.84532781722
39,104,3,395,-0.5,0.5,0.5,3,4,0.4,3,685,1,1,685,1,0,0.6,0,0.225573763059594,0.225573763059594,750,0,0,incongruent,0.1,346.386450132303,3860.96047751112
39,104,3,396,0.5,-0.5,-0.5,1,1,0.4,1,412,1,1,412,0,0,0.8,NaN,-1.27424231162771,-1.27424231162771,750,1,0,congruent,0,1292.09452031643,1512.98430233408
39,104,3,397,-0.5,-0.5,-0.5,2,2,0.4,2,339,1,1,339,0,0,0.8,0.2,-1.67529203123274,-1.67529203123274,750,1,0,congruent,0,1275.52298078033,1791.59825864668
39,104,3,398,-0.5,-0.5,-0.5,4,4,0.4,3,425,0,1,NaN,0,0,0.6,0.2,-1.20282249854736,NaN,750,0,1,congruent,0,7511.75339220621,971.396031726088
39,104,3,399,0.5,-0.5,0.5,2,1,0.4,2,673,1,1,673,1,0,0.2,NaN,0.159647781754657,0.159647781754657,750,0,0,incongruent,1,676.710430678888,1184.67784921481
39,104,3,400,-0.5,0.5,-0.5,3,3,0.4,3,453,1,1,453,1,0,0.6,0.2,-1.04899520883584,-1.04899520883584,750,1,0,congruent,0.1,1067.17406120617,664.132955798273
39,104,3,401,0.5,0.5,0.5,4,2,0.6,4,767,1,0,767,0,0,0.6,NaN,0.676067968643326,0.676067968643326,750,0,0,incongruent,0,831.681691046613,361.213631710776
39,104,3,402,0.5,0.5,-0.5,1,1,0.4,1,267,1,1,267,1,0,0.6,NaN,-2.07084791906236,-2.07084791906236,750,1,0,congruent,1,1996.80269590978,1367.83392204138
39,104,3,403,-0.5,0.5,0.5,3,4,0.6,3,471,1,1,471,1,0,1,0.4,-0.95010623687844,-0.95010623687844,750,0,0,incongruent,0.1,1594.61973462392,4564.29063813497
39,104,3,404,0.5,-0.5,-0.5,2,2,0.8,4,419,0,1,NaN,1,0,1.2,NaN,-1.23578548919983,NaN,750,0,1,congruent,1,464.5637877224,255.121338857527
39,104,3,405,-0.5,0.5,-0.5,1,1,0.8,2,552,0,1,NaN,0,0,1.2,0.6,-0.505105863070119,NaN,750,0,1,congruent,0,2045.85016167796,2468.72094068441
39,104,3,406,0.5,-0.5,0,2,NaN,0.6,2,641,1,1,641,1,0,1,NaN,-0.0161548350585067,-0.0161548350585067,750,0,0,neutral,1,1091.52452202255,1809.98991616367
39,104,3,407,-0.5,0.5,0.5,4,3,0.6,2,698,0,1,NaN,0,0,1.4,0.6,0.296993576139942,NaN,750,0,1,incongruent,0,981.298963323804,909.578285183874
39,104,3,408,0.5,-0.5,0,2,NaN,0.4,2,896,1,0,896,0,0,1,NaN,1.38477226767139,1.38477226767139,750,0,0,neutral,0,646.957604754118,3431.94836116111
39,104,3,409,0.5,-0.5,-0.5,1,1,0.4,1,608,1,1,608,1,0,0.8,NaN,-0.197451283647082,-0.197451283647082,750,1,0,congruent,1,1550.71560093792,3667.81409678345
39,104,3,410,0.5,-0.5,0.5,4,2,0.4,3,876,0,0,NaN,0,0,0.8,NaN,1.27489563216317,NaN,750,0,1,incongruent,0,490.043103683283,334.750631937078
39,104,3,411,-0.5,0.5,-0.5,3,3,0.4,3,993,1,0,993,0,0,0.8,0.6,1.9176739498863,1.9176739498863,750,1,0,congruent,0,461.636714777034,811.285803673833
39,104,3,412,-0.5,-0.5,-0.5,2,2,0.4,3,639,0,1,NaN,1,0,0.4,0.2,-0.0271424986093295,NaN,750,0,1,congruent,0.1,1789.47984818016,599.191203319328
39,104,3,413,-0.5,-0.5,0.5,4,3,0.4,3,648,0,1,NaN,0,0,0.6,0.4,0.0223019873693729,NaN,750,1,0,incongruent,0,764.600751061027,1646.59236431121
39,104,3,414,0.5,-0.5,0,1,NaN,0.4,2,246,0,1,NaN,0,0,0.6,NaN,-2.186218386346,NaN,750,0,1,neutral,0,1335.89145822688,1056.17791539862
39,104,3,415,0.5,-0.5,0.5,3,4,0.4,3,600,1,1,600,0,0,0.2,NaN,-0.241401937850373,-0.241401937850373,750,0,0,incongruent,0,162.714580631391,3241.20349435103
39,104,3,416,-0.5,0.5,-0.5,2,2,0.4,2,841,1,0,841,0,0,0.2,0.4,1.08261152002377,1.08261152002377,750,1,0,congruent,0,1956.71348178327,1180.59005327598
39,104,3,417,-0.5,-0.5,0,3,NaN,0.2,4,822,0,0,NaN,0,0,0.2,0.2,0.978228716290952,NaN,750,0,1,neutral,0,767.392461570939,2283.96918324343
39,104,3,418,0.5,0.5,-0.5,1,1,0.2,1,816,1,0,816,0,0,0,NaN,0.945265725638484,0.945265725638484,750,1,0,congruent,0,1607.37471067015,1352.59719140942
39,104,3,419,0.5,0.5,-0.5,4,4,0,2,642,0,1,NaN,0,0,0,NaN,-0.0106610032830953,NaN,750,0,1,congruent,0,1104.52291189525,4332.34837739489
39,104,3,420,0.5,-0.5,0,1,NaN,0,1,530,1,1,530,0,0,0,NaN,-0.625970162129169,-0.625970162129169,750,0,0,neutral,0,684.952398639791,323.221766562655
39,104,3,421,-0.5,0.5,-0.5,2,2,0,3,326,0,1,NaN,0,0,0,0.2,-1.74671184431309,NaN,750,0,1,congruent,0,1136.41400393979,730.413037526662
39,104,3,422,0.5,0.5,0.5,3,1,0,1,657,0,1,NaN,0,0,0,NaN,0.0717464733480753,NaN,750,1,0,incongruent,0,968.040693022609,520.766846120108
39,104,3,423,0.5,-0.5,-0.5,2,2,0,2,447,1,1,447,0,0,0,NaN,-1.08195819948831,-1.08195819948831,750,1,0,congruent,0,3132.56649287434,787.475876150819
39,104,3,424,-0.5,-0.5,0.5,1,4,0,2,711,0,1,NaN,0,0,0,0.2,0.368413389220289,NaN,750,0,1,incongruent,0,2414.64120067751,1762.50926126222
39,104,3,425,0.5,-0.5,0.5,2,1,0,1,712,0,1,NaN,0,0,0,NaN,0.373907220995701,NaN,750,1,0,incongruent,0,2312.83205927339,497.185637996689
39,104,3,426,-0.5,0.5,-0.5,4,4,0,2,681,0,1,NaN,0,0,0,0,0.203598435957948,NaN,750,0,1,congruent,0,1573.49776849528,879.853263996447
39,104,3,427,0.5,-0.5,0,3,NaN,0,2,699,0,1,NaN,0,0,0,NaN,0.302487407915353,NaN,750,0,1,neutral,0,1467.22721543486,1746.77212499697
39,104,3,428,0.5,-0.5,-0.5,2,2,0,3,755,0,0,NaN,0,0,0,NaN,0.61014198733839,NaN,750,0,1,congruent,0,1093.44279192338,1324.52085094576
39,104,3,429,-0.5,-0.5,0.5,3,4,0,2,748,0,1,NaN,0,0,0,0.2,0.57168516491051,NaN,750,0,1,incongruent,0,854.237987012512,572.203829300897
39,104,3,430,-0.5,-0.5,0.5,2,1,0,4,400,0,1,NaN,0,0,0,0.2,-1.34016829293265,NaN,750,0,1,incongruent,0,2400.33530424329,831.69495706373
39,104,3,431,-0.5,-0.5,-0.5,4,4,0,2,553,0,1,NaN,0,0,0,0,-0.499612031294708,NaN,750,0,1,congruent,0,1222.19042264503,788.194271899084
39,104,3,432,0.5,-0.5,-0.5,3,3,0,3,750,1,1,750,0,0,0,NaN,0.582672828461333,0.582672828461333,750,1,0,congruent,0,915.735063778039,880.165958290497
39,104,3,433,0.5,-0.5,0.5,1,2,0,2,858,0,0,NaN,0,0,0,NaN,1.17600666020576,NaN,750,1,0,incongruent,0,2473.44405267222,3518.64651703266
39,104,3,435,0.5,0.5,0,1,NaN,0,1,577,1,1,577,1,0,0,NaN,-0.367760068684835,-0.367760068684835,750,0,0,neutral,1,2601.34894844359,897.428004089797
39,104,3,436,-0.5,0.5,-0.5,4,4,0.2,2,487,0,1,NaN,0,0,0.4,0,-0.862204928471858,NaN,750,0,1,congruent,0,2340.75780560903,2167.08123297165
39,104,3,437,0.5,-0.5,0,1,NaN,0.2,1,660,1,1,660,0,0,0.4,NaN,0.0882279686743094,0.0882279686743094,750,0,0,neutral,0,3210.58195878213,3036.69597566982
39,104,3,438,-0.5,-0.5,-0.5,2,2,0.2,3,281,0,1,NaN,1,0,0.4,0,-1.9939342742066,NaN,750,0,1,congruent,0.1,3605.85405797904,842.959153503155
39,104,3,439,-0.5,-0.5,0,3,NaN,0.2,4,269,0,1,NaN,0,0,0.6,0.2,-2.05986025551154,NaN,750,0,1,neutral,0,1249.77747631964,1371.23092216648
39,104,3,440,0.5,-0.5,0.5,2,1,0.2,2,355,1,1,355,1,0,0.6,NaN,-1.58739072282616,-1.58739072282616,750,0,0,incongruent,1,634.154237359296,2233.86139795953
39,104,3,441,-0.5,-0.5,-0.5,4,4,0.2,3,355,0,1,NaN,1,0,0.6,0.2,-1.58739072282616,NaN,750,0,1,congruent,0.1,1366.94566772882,777.371791076028
39,104,3,442,-0.5,0.5,0,1,NaN,0.2,1,361,1,1,361,1,0,0.8,0,-1.55442773217369,-1.55442773217369,750,0,0,neutral,0.1,3766.98103706206,1517.27779333086
39,104,3,443,-0.5,0.5,-0.5,3,3,0.4,4,715,0,1,NaN,0,0,1,0.2,0.390388716321935,NaN,750,0,1,congruent,0,952.980941502711,656.526692926489
39,104,3,444,0.5,-0.5,0,2,NaN,0.4,3,878,0,0,NaN,0,0,0.8,NaN,1.28588329571399,NaN,750,0,1,neutral,0,3229.87500728738,475.850040957232
39,104,3,445,0.5,0.5,-0.5,4,4,0.4,3,850,0,0,NaN,0,0,0.8,NaN,1.13205600600247,NaN,750,0,1,congruent,0,657.926408715745,1396.75568921741
39,104,3,446,0.5,0.5,0,2,NaN,0.4,2,329,1,1,329,1,0,0.4,NaN,-1.73023034898686,-1.73023034898686,750,0,0,neutral,1,2530.00174961098,1044.74664574797
39,104,3,447,0.5,-0.5,-0.5,3,3,0.4,4,356,0,1,NaN,0,0,0.6,NaN,-1.58189689105075,NaN,750,0,1,congruent,0,1605.95466167585,1251.09894138256
39,104,3,448,-0.5,0.5,0.5,2,1,0.4,2,778,1,0,778,0,0,0.4,0.2,0.736500118172851,0.736500118172851,750,0,0,incongruent,0,1681.20190889502,1561.6959589209
39,104,3,449,-0.5,0.5,0,3,NaN,0.4,3,542,1,1,542,1,0,0.4,0.2,-0.560044180824233,-0.560044180824233,750,0,0,neutral,0.1,1690.1135232335,2400.93768952582
39,104,3,450,-0.5,-0.5,-0.5,2,2,0.4,2,267,1,1,267,0,0,0.6,0.4,-2.07084791906236,-2.07084791906236,750,1,0,congruent,0,3055.5338852433,1578.97510118417
39,104,4,451,-0.5,-0.5,0,4,NaN,0.4,2,862,0,0,NaN,1,0,0.6,0.4,1.19798198730741,NaN,750,0,1,neutral,0.1,1444.81026601469,2757.66260051783
39,104,4,452,-0.5,-0.5,0.5,1,3,0.4,3,723,0,1,NaN,0,0,0.4,0.6,0.434339370525226,NaN,750,1,0,incongruent,0,1041.759381174,1294.98023856057
39,104,4,453,-0.5,-0.5,0,2,NaN,0.4,3,828,0,0,NaN,0,0,0.4,0.4,1.01119170694342,NaN,750,0,1,neutral,0,1438.15257309694,1574.15008648799
39,104,4,454,-0.5,-0.5,-0.5,1,1,0.4,1,806,1,0,806,1,0,0.4,0.4,0.89032740788437,0.89032740788437,750,1,0,congruent,0.1,708.083633608458,1156.77858059072
39,104,4,455,-0.5,-0.5,0.5,4,3,0.4,2,596,0,1,NaN,1,0,0.4,0.4,-0.263377264952019,NaN,750,0,1,incongruent,0.1,1511.12220858953,849.287102106126
39,104,4,456,0.5,0.5,0,1,NaN,0.4,1,655,1,1,655,1,0,0.6,NaN,0.0607588097972525,0.0607588097972525,750,0,0,neutral,1,2760.98846051941,2106.94184827632
39,104,4,457,-0.5,0.5,-0.5,4,4,0.6,2,669,0,1,NaN,0,0,0.8,0.4,0.137672454653012,NaN,750,0,1,congruent,0,1425.90843448145,568.894190826664
39,104,4,458,0.5,-0.5,0.5,1,3,0.6,4,982,0,0,NaN,0,0,0.8,NaN,1.85724180035677,NaN,750,0,1,incongruent,0,753.101193948641,905.937617763509
39,104,4,459,0.5,-0.5,0,2,NaN,0.6,2,555,1,1,555,0,0,0.8,NaN,-0.488624367743885,-0.488624367743885,750,0,0,neutral,0,2103.08908403996,2231.11579238085
39,104,4,461,-0.5,0.5,0,2,NaN,0.4,3,697,0,1,NaN,0,0,0.4,0.2,0.29149974436453,NaN,750,0,1,neutral,0,1334.34376421452,542.800238544559
39,104,4,462,0.5,-0.5,-0.5,3,3,0.4,4,605,0,1,NaN,0,0,0,NaN,-0.213932778973316,NaN,750,0,1,congruent,0,1711.92060485998,1680.22489110719
39,104,4,463,-0.5,0.5,0,4,NaN,0.4,2,581,0,1,NaN,0,0,0,0.2,-0.345784741583189,NaN,750,0,1,neutral,0,1859.35403315129,1134.40236200666
39,104,4,464,-0.5,-0.5,-0.5,1,1,0.2,1,350,1,1,350,1,0,0,0.6,-1.61485988170322,-1.61485988170322,750,1,0,congruent,0.1,2067.2765449539,1334.36456251657
39,104,4,465,0.5,0.5,-0.5,2,2,0.2,3,787,0,0,NaN,0,0,0.2,NaN,0.785944604151554,NaN,750,0,1,congruent,0,1060.958391252,4424.67166328675
39,104,4,466,0.5,-0.5,-0.5,3,3,0,4,367,0,1,NaN,0,0,0.2,NaN,-1.52146474152122,NaN,750,0,1,congruent,0,2135.29957058406,1416.89036386659
39,104,4,467,0.5,0.5,0,4,NaN,0,2,841,0,0,NaN,0,0,0.2,NaN,1.08261152002377,NaN,750,0,1,neutral,0,2230.79300526554,915.007579709884
39,104,4,468,0.5,0.5,-0.5,3,3,0,3,806,1,0,806,0,0,0.2,NaN,0.89032740788437,0.89032740788437,750,1,0,congruent,0,2380.08262924521,2233.66204914498
39,104,4,469,-0.5,0.5,0,1,NaN,0,1,626,1,1,626,1,0,0.2,0.2,-0.0985623116896773,-0.0985623116896773,750,0,0,neutral,0.1,2744.87493013366,1749.28047733453
39,104,4,470,0.5,-0.5,-0.5,2,2,0.2,4,736,0,1,NaN,0,0,0.2,NaN,0.505759183605574,NaN,750,0,1,congruent,0,426.985156154814,1947.05288333151
39,104,4,471,-0.5,-0.5,-0.5,1,1,0.2,1,572,1,1,572,0,0,0.2,0.6,-0.395229227561891,-0.395229227561891,750,1,0,congruent,0,1584.18335138219,1706.55728106614
39,104,4,472,-0.5,0.5,0,4,NaN,0.2,2,610,0,1,NaN,0,0,0.2,0.2,-0.186463620096259,NaN,750,0,1,neutral,0,3153.12722598206,2055.6072053163
39,104,4,473,0.5,0.5,-0.5,2,2,0.2,3,371,0,1,NaN,0,0,0.2,NaN,-1.49948941441958,NaN,750,0,1,congruent,0,1757.58631391207,238.989621700465
39,104,4,474,-0.5,-0.5,-0.5,1,1,0.2,1,616,1,1,616,1,0,0.2,0.6,-0.153500629443791,-0.153500629443791,750,1,0,congruent,0.1,3034.85547471902,1071.73416229318
39,104,4,475,-0.5,0.5,-0.5,3,3,0.2,3,640,1,1,640,1,0,0.2,0.2,-0.0216486668339181,-0.0216486668339181,750,1,0,congruent,0.1,2042.38524899964,1886.54518812672
39,104,4,476,0.5,-0.5,0.5,4,2,0.4,4,774,1,0,774,1,0,0.4,NaN,0.714524791071206,0.714524791071206,750,0,0,incongruent,1,1729.32095169838,948.284759707849
39,104,4,477,-0.5,0.5,0,2,NaN,0.4,2,609,1,1,609,1,0,0.8,0.4,-0.191957451871671,-0.191957451871671,750,0,0,neutral,0.1,810.748732892919,1567.40308964542
39,104,4,478,0.5,0.5,-0.5,3,3,0.6,3,919,1,0,919,0,0,1,NaN,1.51113039850586,1.51113039850586,750,1,0,congruent,0,2061.50638253163,1740.29556164001
39,104,4,479,-0.5,-0.5,-0.5,1,1,0.4,1,299,1,1,299,0,0,1,0.8,-1.8950453022492,-1.8950453022492,750,1,0,congruent,0,1333.51751315322,340.513617019736
39,104,4,480,0.5,-0.5,0.5,2,3,0.4,3,525,0,1,NaN,1,0,0.8,NaN,-0.653439321006226,NaN,750,1,0,incongruent,1,831.49675406099,1978.21623739111
39,104,4,481,0.5,0.5,0.5,3,2,0.4,2,665,0,1,NaN,0,0,1,NaN,0.115697127551366,NaN,750,1,0,incongruent,0,765.315020892672,802.128034563487
39,104,4,482,-0.5,0.5,-0.5,1,1,0.4,1,566,1,1,566,1,0,0.6,0.6,-0.42819221821436,-0.42819221821436,750,1,0,congruent,0.1,847.364823982055,2141.73004276797
39,104,4,483,-0.5,0.5,-0.5,2,2,0.6,3,558,0,1,NaN,0,0,0.6,0.8,-0.472142872417651,NaN,750,0,1,congruent,0,434.3374051311,1980.86009578172
39,104,4,484,-0.5,0.5,0,4,NaN,0.4,2,422,0,1,NaN,0,0,0.6,0.6,-1.2193039938736,NaN,750,0,1,neutral,0,737.29664295693,314.776097102141
39,104,4,485,0.5,0.5,-0.5,2,2,0.2,3,736,0,1,NaN,0,0,0.6,NaN,0.505759183605574,NaN,750,0,1,congruent,0,1413.92767042999,1459.53135491076
39,104,4,486,-0.5,0.5,-0.5,1,1,0.2,1,652,1,1,652,1,0,0.2,0.6,0.0442773144710184,0.0442773144710184,750,1,0,congruent,0.1,791.174953439886,2032.06156607213
39,104,4,487,0.5,-0.5,0,4,NaN,0.4,2,660,0,1,NaN,1,0,0.4,NaN,0.0882279686743094,NaN,750,0,1,neutral,1,812.387392297903,459.638221237721
39,104,4,488,-0.5,-0.5,0.5,2,4,0.4,3,937,0,0,NaN,0,0,0.6,0.6,1.61001937046326,NaN,750,0,1,incongruent,0,2247.12252903186,2194.22866058584
39,104,4,490,-0.5,-0.5,-0.5,4,4,0.4,2,554,0,1,NaN,1,0,1,0.4,-0.494118199519296,NaN,750,0,1,congruent,0.1,1819.75444521857,567.330122486771
39,104,4,491,-0.5,-0.5,0,1,NaN,0.4,1,563,1,1,563,0,0,1.2,0.4,-0.444673713540594,-0.444673713540594,750,0,0,neutral,0,2933.32848704267,1342.04282216782
39,104,4,492,-0.5,0.5,0.5,2,1,0.4,2,609,1,1,609,1,0,1,0.6,-0.191957451871671,-0.191957451871671,750,0,0,incongruent,0.1,875.410992308387,484.485049154977
39,104,4,493,-0.5,0.5,0.5,4,2,0.6,3,322,0,1,NaN,0,0,0.8,0.6,-1.76868717141473,NaN,750,0,1,incongruent,0,7160.02001982974,1258.51845817958
39,104,4,494,0.5,0.5,0,3,NaN,0.6,4,382,0,1,NaN,0,0,0.8,NaN,-1.43905726489005,NaN,750,0,1,neutral,0,2290.09088173168,1452.41277341416
39,104,4,495,-0.5,-0.5,-0.5,1,1,0.6,1,513,1,1,513,1,0,0.4,0.4,-0.719365302311163,-0.719365302311163,750,1,0,congruent,0.1,1933.97105813115,2784.95588772119
39,104,4,496,-0.5,-0.5,0.5,2,3,0.6,2,591,1,1,591,0,0,0.4,0.4,-0.290846423829075,-0.290846423829075,750,0,0,incongruent,0,1574.52029645889,1404.95881632942
39,104,4,497,-0.5,-0.5,-0.5,1,1,0.6,1,655,1,1,655,0,0,0.4,0.4,0.0607588097972525,0.0607588097972525,750,1,0,congruent,0,1103.21697177581,1490.55219455485
39,104,4,498,-0.5,-0.5,-0.5,2,2,0.6,3,700,0,1,NaN,0,0,0.2,0.4,0.307981239690764,NaN,750,0,1,congruent,0,607.987417422971,527.025004698271
39,104,4,499,0.5,0.5,0.5,3,1,0.6,2,320,0,1,NaN,0,0,0.2,NaN,-1.77967483496556,NaN,750,0,1,incongruent,0,946.096477548687,811.845122546942
39,104,4,500,-0.5,0.5,0.5,4,3,0.4,4,574,1,1,574,1,0,0.2,0.4,-0.384241564011069,-0.384241564011069,750,0,0,incongruent,0.1,591.738603485549,921.789642530701
39,104,4,501,-0.5,0.5,0.5,2,4,0.4,3,547,0,1,NaN,0,0,0.2,0.6,-0.532575021947176,NaN,750,0,1,incongruent,0,1143.33247174488,1787.23349788592
39,104,4,502,-0.5,0.5,-0.5,1,1,0.2,2,246,0,1,NaN,0,0,0.2,0.6,-2.186218386346,NaN,750,0,1,congruent,0,777.88058868816,683.888064352792
39,104,4,503,0.5,0.5,-0.5,2,2,0.2,2,567,1,1,567,1,0,0.2,NaN,-0.422698386438948,-0.422698386438948,750,1,0,congruent,1,1742.93620178967,850.683195760321
39,104,4,504,0.5,-0.5,0.5,1,3,0.4,4,611,0,1,NaN,1,0,0.6,NaN,-0.180969788320848,NaN,750,0,1,incongruent,1,1239.30477973817,2998.47501261679
39,104,4,505,-0.5,0.5,0.5,3,2,0.4,2,931,0,0,NaN,0,0,1,0.4,1.57705637981079,NaN,750,1,0,incongruent,0,3910.03812633205,1160.00625259053
39,104,4,506,0.5,-0.5,0,2,NaN,0.4,3,585,0,1,NaN,0,0,0.8,NaN,-0.323809414481544,NaN,750,0,1,neutral,0,4890.14574147961,2480.8406796443
39,104,4,507,-0.5,-0.5,0.5,4,1,0.4,1,697,0,1,NaN,1,0,0.8,0.2,0.29149974436453,NaN,750,1,0,incongruent,0.1,3901.03730223082,2151.64074641148
39,104,4,508,-0.5,-0.5,-0.5,3,3,0.4,3,887,1,0,887,1,0,1,0.4,1.33532778169269,1.33532778169269,750,1,0,congruent,0.1,2850.27314900888,1208.38811361581
39,104,4,509,0.5,-0.5,-0.5,2,2,0.4,2,696,1,1,696,1,0,0.8,NaN,0.286005912589119,0.286005912589119,750,1,0,congruent,1,2199.99165531805,1180.09767891881
39,104,4,510,-0.5,0.5,0,4,NaN,0.4,3,871,0,0,NaN,0,0,0.8,0.2,1.24742647328611,NaN,750,0,1,neutral,0,2121.6458651308,4103.66345054476
39,104,4,511,-0.5,-0.5,0.5,1,3,0.2,3,698,0,1,NaN,0,0,0.8,0.4,0.296993576139942,NaN,750,1,0,incongruent,0,1239.31250122515,1277.38955016629
39,104,4,512,-0.5,-0.5,0.5,3,1,0.2,1,562,0,1,NaN,0,0,0.8,0.4,-0.450167545316005,NaN,750,1,0,incongruent,0,1380.71435545754,1773.74684593253
39,104,4,513,-0.5,-0.5,0,4,NaN,0.2,2,570,0,1,NaN,0,0,0.6,0.4,-0.406216891112714,NaN,750,0,1,neutral,0,4372.22383358936,1298.54105576562
39,104,4,514,0.5,0.5,0.5,1,3,0.2,3,734,0,1,NaN,0,0,0.4,NaN,0.494771520054751,NaN,750,1,0,incongruent,0,788.529996388125,2674.81914111807
39,104,4,515,0.5,-0.5,0,3,NaN,0.2,3,599,1,1,599,1,0,0,NaN,-0.246895769625784,-0.246895769625784,750,0,0,neutral,1,1709.05901597554,5157.75217111101
39,104,4,517,0.5,0.5,0,2,NaN,0.2,2,661,1,1,661,1,0,0.4,NaN,0.0937218004497208,0.0937218004497208,750,0,0,neutral,1,1002.0509397043,998.7930406262
39,104,4,518,-0.5,0.5,-0.5,1,1,0.4,1,588,1,1,588,1,0,0.8,0.2,-0.307327919155309,-0.307327919155309,750,1,0,congruent,0.1,1031.3425089228,4168.35948289103
39,104,4,519,-0.5,0.5,0.5,3,4,0.4,2,670,0,1,NaN,0,0,1,0.2,0.143166286428423,NaN,750,0,1,incongruent,0,2794.16305704433,756.531141135149
39,104,4,520,-0.5,0.5,0,1,NaN,0.4,1,717,1,1,717,1,0,1,0.2,0.401376379872758,0.401376379872758,750,0,0,neutral,0.1,912.126115284979,888.919249563893
39,104,4,521,-0.5,0.5,0.5,2,3,0.6,2,807,1,0,807,0,0,0.8,0.4,0.895821239659781,0.895821239659781,750,0,0,incongruent,0,2531.0618283191,1020.64744324561
39,104,4,523,0.5,-0.5,-0.5,4,4,0.6,3,562,0,1,NaN,1,0,0.8,NaN,-0.450167545316005,NaN,750,0,1,congruent,1,1848.84519989446,647.874335937279
39,104,4,524,0.5,0.5,0.5,3,2,0.6,2,587,0,1,NaN,0,0,1,NaN,-0.312821750930721,NaN,750,1,0,incongruent,0,628.953782581679,1991.09716307307
39,104,4,525,-0.5,-0.5,0.5,4,3,0.4,4,568,1,1,568,0,0,1,0.2,-0.417204554663537,-0.417204554663537,750,0,0,incongruent,0,834.986047465326,1226.82136065351
39,104,4,526,0.5,0.5,-0.5,2,2,0.4,2,862,1,0,862,0,0,0.8,NaN,1.19798198730741,1.19798198730741,750,1,0,congruent,0,521.604149382379,5355.06168649998
39,104,4,527,0.5,0.5,-0.5,4,4,0.2,3,787,0,0,NaN,0,0,0.8,NaN,0.785944604151554,NaN,750,0,1,congruent,0,468.553758120417,1534.7986966362
39,104,4,528,-0.5,-0.5,0,1,NaN,0.2,1,944,1,0,944,0,0,0.4,0,1.64847619289114,1.64847619289114,750,0,0,neutral,0,1733.04658727559,1857.474041009
39,104,4,529,0.5,-0.5,0.5,2,3,0.2,3,589,0,1,NaN,0,0,0,NaN,-0.301834087379898,NaN,750,1,0,incongruent,0,411.99045373949,1523.09961326757
39,104,4,530,0.5,0.5,-0.5,4,4,0.2,2,595,0,1,NaN,0,0,0,NaN,-0.26887109672743,NaN,750,0,1,congruent,0,999.515144137501,3222.67093441464
39,104,4,531,-0.5,0.5,0,2,NaN,0,4,523,0,1,NaN,0,0,0,0.4,-0.664426984557049,NaN,750,0,1,neutral,0,670.097716288514,1703.33224149425
39,104,4,532,0.5,-0.5,-0.5,3,3,0,2,537,0,1,NaN,0,0,0,NaN,-0.58751333970129,NaN,750,0,1,congruent,0,3262.78095346557,1404.25929153203
39,104,4,533,-0.5,0.5,0.5,1,4,0,2,770,0,0,NaN,0,0,0,0.4,0.692549463969561,NaN,750,0,1,incongruent,0,2636.85839853709,566.972452076666
39,104,4,534,-0.5,0.5,-0.5,3,3,0,3,630,1,1,630,1,0,0,0.2,-0.0765869845880318,-0.0765869845880318,750,1,0,congruent,0.1,1014.08462973791,3138.14202377499
39,104,4,535,0.5,0.5,0.5,4,2,0.2,2,381,0,1,NaN,0,0,0.2,NaN,-1.44455109666546,NaN,750,1,0,incongruent,0,2542.54905570861,747.48057686741
39,104,4,536,0.5,-0.5,-0.5,1,1,0.2,2,649,0,1,NaN,1,0,0.2,NaN,0.0277958191447843,NaN,750,0,1,congruent,1,3580.03685897826,1684.96877688394
39,104,4,537,0.5,-0.5,0,2,NaN,0.2,3,914,0,0,NaN,0,0,0.6,NaN,1.4836612396288,NaN,750,0,1,neutral,0,1327.9850400393,981.703825323085
39,104,4,538,0.5,-0.5,0.5,1,2,0.2,1,352,1,1,352,0,0,0.6,NaN,-1.60387221815239,-1.60387221815239,750,0,0,incongruent,0,1160.99694071933,1521.84677886211
39,104,4,539,-0.5,-0.5,0.5,2,4,0.2,2,806,1,0,806,0,0,0.6,0,0.89032740788437,0.89032740788437,750,0,0,incongruent,0,1956.41494520757,1049.51395759576
39,104,4,540,-0.5,0.5,-0.5,3,3,0.2,4,613,0,1,NaN,0,0,0.4,0.4,-0.169982124770025,NaN,750,0,1,congruent,0,1458.87194496174,2196.6621680123
39,104,4,543,-0.5,0.5,0.5,2,1,0.2,2,843,1,0,843,0,0,0,0.2,1.09359918357459,1.09359918357459,750,0,0,incongruent,0,1729.3960096173,2664.19100788618
39,104,4,544,-0.5,-0.5,0,3,NaN,0.2,3,518,1,1,518,0,0,0,0,-0.691896143434106,-0.691896143434106,750,0,0,neutral,0,906.7330807624,518.260864791861
39,104,4,545,-0.5,0.5,-0.5,2,2,0.2,2,892,1,0,892,0,0,0,0.2,1.36279694056975,1.36279694056975,750,1,0,congruent,0,1582.88479931476,1603.79894677559
39,104,4,546,-0.5,0.5,-0.5,1,1,0,1,495,1,1,495,1,0,0,0.2,-0.818254274268567,-0.818254274268567,750,1,0,congruent,0.1,1339.11879694149,1287.82496093538
39,104,4,547,0.5,0.5,-0.5,4,4,0.2,2,350,0,1,NaN,0,0,0.2,NaN,-1.61485988170322,NaN,750,0,1,congruent,0,1777.71582931383,1311.95848307891
39,104,4,548,0.5,-0.5,0.5,3,1,0.2,1,673,0,1,NaN,0,0,0.2,NaN,0.159647781754657,NaN,750,1,0,incongruent,0,1457.17327044892,1686.50439315885
39,104,4,549,-0.5,0.5,0,1,NaN,0.2,1,567,1,1,567,1,0,0.2,0.4,-0.422698386438948,-0.422698386438948,750,0,0,neutral,0.1,1636.28830799258,1317.68969181547
39,104,4,550,-0.5,-0.5,0.5,2,4,0.4,2,781,1,0,781,0,0,0.4,0,0.752981613499086,0.752981613499086,750,0,0,incongruent,0,678.531064070215,1211.9625936009
39,104,4,551,0.5,-0.5,-0.5,1,1,0.4,1,571,1,1,571,1,0,0.4,NaN,-0.400723059337303,-0.400723059337303,750,1,0,congruent,1,2029.36193471278,574.56155340823
39,104,4,552,0.5,-0.5,-0.5,3,3,0.4,4,656,0,1,NaN,0,0,0.6,NaN,0.0662526415726639,NaN,750,0,1,congruent,0,1914.29165655924,2916.4351569015
39,104,4,553,0.5,-0.5,0.5,2,4,0.4,3,766,0,0,NaN,0,0,0.6,NaN,0.670574136867915,NaN,750,0,1,incongruent,0,1688.54847888413,1445.66352139626
39,104,4,554,-0.5,0.5,-0.5,1,1,0.4,1,535,1,1,535,1,0,0.6,0.4,-0.598501003252112,-0.598501003252112,750,1,0,congruent,0.1,1289.21109689097,561.487795142836
39,104,4,555,-0.5,-0.5,0,3,NaN,0.6,4,798,0,0,NaN,0,0,0.6,0,0.846376753681079,NaN,750,0,1,neutral,0,1693.2876932533,1132.21925749607
39,104,4,556,0.5,-0.5,0.5,1,4,0.6,2,639,0,1,NaN,0,0,0.6,NaN,-0.0271424986093295,NaN,750,0,1,incongruent,0,1543.31975036271,657.333890255724
39,104,4,557,0.5,0.5,0.5,2,3,0.6,1,684,0,1,NaN,0,0,0.2,NaN,0.220079931284182,NaN,750,0,1,incongruent,0,1831.7507064728,1374.15839068465
39,104,4,558,0.5,0.5,0,1,NaN,0.6,1,571,1,1,571,1,0,0.2,NaN,-0.400723059337303,-0.400723059337303,750,0,0,neutral,1,1839.58404030196,654.596643629815
39,104,4,559,-0.5,0.5,-0.5,2,2,0.6,3,572,0,1,NaN,0,0,0.6,0.6,-0.395229227561891,NaN,750,0,1,congruent,0,1269.294238823,1079.01373135878
39,104,4,560,-0.5,0.5,0.5,3,1,0.6,1,665,0,1,NaN,0,0,0.4,0.6,0.115697127551366,NaN,750,1,0,incongruent,0,1283.13083038371,906.03943701596
39,104,4,561,-0.5,0.5,0.5,4,3,0.4,1,0,0,1,NaN,0,0,0.4,0.6,-3.5377010030972,NaN,750,0,1,incongruent,0,5881.46855748972,1469.4098428823
39,104,4,562,0.5,0.5,0,2,NaN,0.2,3,810,0,0,NaN,0,0,0.4,NaN,0.912302734986015,NaN,750,0,1,neutral,0,847.923874455059,876.678833084768
39,104,4,563,-0.5,-0.5,-0.5,1,1,0.2,1,588,1,1,588,0,0,0.4,0,-0.307327919155309,-0.307327919155309,750,1,0,congruent,0,1329.60930771131,949.868834532208
39,104,4,564,-0.5,-0.5,0,3,NaN,0.2,3,810,1,0,810,1,0,0,0,0.912302734986015,0.912302734986015,750,0,0,neutral,0.1,1274.60376839459,807.608910871183
39,104,4,565,-0.5,0.5,0.5,4,2,0.2,4,607,1,1,607,1,0,0.2,0.4,-0.202945115422493,-0.202945115422493,750,0,0,incongruent,0.1,1155.4376796653,1345.52427404655
39,104,4,566,-0.5,0.5,0,3,NaN,0.2,3,841,1,0,841,0,0,0.4,0.4,1.08261152002377,1.08261152002377,750,0,0,neutral,0,1646.88079338561,1877.83905694746
39,104,4,567,-0.5,0.5,-0.5,1,1,0.2,1,513,1,1,513,1,0,0.4,0.2,-0.719365302311163,-0.719365302311163,750,1,0,congruent,0.1,618.463635718988,1231.12639661262
39,104,4,568,-0.5,-0.5,-0.5,3,3,0.4,3,498,1,1,498,0,0,0.6,0.2,-0.801772778942333,-0.801772778942333,750,1,0,congruent,0,1735.73739411135,1362.06573564083
39,104,4,569,-0.5,0.5,-0.5,4,4,0.4,4,330,1,1,330,1,0,0.6,0.4,-1.72473651721144,-1.72473651721144,750,1,0,congruent,0.1,3230.68196988815,595.040714622831
39,104,4,570,-0.5,0.5,0,3,NaN,0.6,3,600,1,1,600,1,0,0.6,0.6,-0.241401937850373,-0.241401937850373,750,0,0,neutral,0.1,634.532725512974,1482.55728923545
39,104,4,571,0.5,-0.5,-0.5,2,2,0.8,2,389,1,1,389,1,0,0.6,NaN,-1.40060044246217,-1.40060044246217,750,1,0,congruent,1,2337.79588626258,1069.38245441607
39,104,4,572,0.5,-0.5,0,3,NaN,0.8,3,739,1,1,739,1,0,1,NaN,0.522240678931808,0.522240678931808,750,0,0,neutral,1,1186.48166380365,2865.67342985392
39,104,4,573,-0.5,0.5,0.5,4,2,0.8,3,771,0,0,NaN,0,0,1.2,0.8,0.698043295744972,NaN,750,0,1,incongruent,0,1987.22557883652,2587.64062541113
39,104,4,574,-0.5,-0.5,-0.5,3,3,0.6,3,815,1,0,815,1,0,1.2,0.2,0.939771893863072,0.939771893863072,750,1,0,congruent,0.1,746.873471299952,2254.89938091802
39,104,4,575,0.5,-0.5,0.5,1,2,0.6,2,715,0,1,NaN,0,0,1.2,NaN,0.390388716321935,NaN,750,1,0,incongruent,0,2574.34827147408,2973.16517897518
39,104,4,576,-0.5,0.5,-0.5,4,4,0.6,1,701,0,1,NaN,0,0,1,0.6,0.313475071466176,NaN,750,0,1,congruent,0,9255.89497916868,323.635779986844
39,104,4,577,0.5,0.5,-0.5,1,1,0.6,1,675,1,1,675,1,0,0.6,NaN,0.17063544530548,0.17063544530548,750,1,0,congruent,1,1562.36128723847,3338.87699866573
39,104,4,578,-0.5,-0.5,0.5,4,2,0.6,2,903,0,0,NaN,1,0,0.6,0.4,1.42322909009927,NaN,750,1,0,incongruent,0.1,1914.92992409071,1873.35712769018
39,104,4,579,-0.5,-0.5,-0.5,1,1,0.6,1,524,1,1,524,1,0,0.8,0.6,-0.658933152781637,-0.658933152781637,750,1,0,congruent,0.1,758.365261311031,1895.76531501661
39,104,4,580,-0.5,-0.5,-0.5,3,3,0.6,3,980,1,0,980,1,0,0.8,0.8,1.84625413680595,1.84625413680595,750,1,0,congruent,0.1,2311.3935249152,1585.32649049443
39,104,4,581,-0.5,-0.5,0.5,4,1,0.6,1,719,0,1,NaN,0,0,1,0.8,0.41236404342358,NaN,750,1,0,incongruent,0,1794.88745979914,2243.56908656764
39,104,4,582,0.5,0.5,-0.5,3,3,0.6,3,697,1,1,697,1,0,1,NaN,0.29149974436453,0.29149974436453,750,1,0,congruent,1,3529.50127269281,592.968891407281
39,104,4,583,-0.5,-0.5,0.5,4,2,0.6,2,694,0,1,NaN,1,0,1,0.8,0.275018249038296,NaN,750,1,0,incongruent,0.1,1496.40162523331,806.708745333204
39,104,4,584,0.5,-0.5,-0.5,1,1,0.6,1,704,1,1,704,1,0,1,NaN,0.32995656679241,0.32995656679241,750,1,0,congruent,1,1363.63665357797,4606.28904788732
39,104,4,586,-0.5,0.5,0,3,NaN,0.4,4,593,0,1,NaN,0,0,1,0.4,-0.279858760278253,NaN,750,0,1,neutral,0,1483.53871653838,1609.5836964168
39,104,4,588,-0.5,-0.5,0.5,2,1,0.4,4,794,0,0,NaN,1,0,0.6,0.8,0.824401426579433,NaN,750,0,1,incongruent,0.1,946.349027125271,581.270647059296
39,104,4,589,0.5,0.5,-0.5,4,4,0.4,2,698,0,1,NaN,0,0,0.6,NaN,0.296993576139942,NaN,750,0,1,congruent,0,2684.79465673897,2089.03365352982
39,104,4,590,0.5,0.5,-0.5,3,3,0.2,3,541,1,1,541,1,0,0.2,NaN,-0.565538012599644,-0.565538012599644,750,1,0,congruent,1,907.944776574808,3182.90160065825
39,104,4,591,0.5,-0.5,0.5,2,1,0.2,1,954,0,0,NaN,1,0,0.6,NaN,1.70341451064525,NaN,750,1,0,incongruent,1,750.004270095534,1287.2757603966
39,104,4,592,-0.5,0.5,0.5,4,2,0.2,2,650,0,1,NaN,0,0,1,0,0.0332896509201956,NaN,750,1,0,incongruent,0,1152.17987966035,3531.02914444365
39,104,4,593,0.5,0.5,0,2,NaN,0.2,4,755,0,0,NaN,0,0,1,NaN,0.61014198733839,NaN,750,0,1,neutral,0,1703.61191759149,1361.27882189561
39,104,4,594,0.5,0.5,-0.5,1,1,0.2,1,605,1,1,605,1,0,0.8,NaN,-0.213932778973316,-0.213932778973316,750,1,0,congruent,1,683.902333229786,3259.19633353953
39,104,4,595,-0.5,0.5,0.5,3,2,0.4,3,739,1,1,739,1,0,1.2,0,0.522240678931808,0.522240678931808,750,0,0,incongruent,0.1,2188.69282449252,2233.82756306137
39,104,4,596,-0.5,0.5,-0.5,4,4,0.6,2,693,0,1,NaN,0,0,1,0.2,0.269524417262885,NaN,750,0,1,congruent,0,13089.8933747302,1600.04965793151
39,104,4,597,0.5,0.5,0,2,NaN,0.4,3,888,0,0,NaN,0,0,0.6,NaN,1.3408216134681,NaN,750,0,1,neutral,0,5457.60158164128,1655.24140735097
39,104,4,598,0.5,0.5,-0.5,1,1,0.4,1,600,1,1,600,1,0,0.6,NaN,-0.241401937850373,-0.241401937850373,750,1,0,congruent,1,1677.48801125511,1328.5183207359
39,104,4,599,-0.5,0.5,0,3,NaN,0.6,4,769,0,0,NaN,0,0,1,0.2,0.687055632194149,NaN,750,0,1,neutral,0,1393.34047355168,1238.50587341655
39,104,4,600,0.5,0.5,-0.5,4,4,0.4,4,919,1,0,919,0,0,0.6,NaN,1.51113039850586,1.51113039850586,750,1,0,congruent,0,5380.17022098302,1010.59349047099
