subid,vers,block,trial,rewlvl,efflvl,congruency,targetresp,distractorresp,rollingefflvl,resp,rt,acc,fast,accrt,isrewarded,ismiss,runavgrrgen,runavgrrcond,zrt,acczrt,rtthreshold,isdisterror,isranderror,congruence,feedback,fcz_resp_theta,fcz_resp_theta_baseline
40,104,1,1,0.5,-0.5,-0.5,3,3,0.8,3,964,1,0,964,1,0,0,NaN,3.1113414792938,3.1113414792938,750,1,0,congruent,1,4575.1194713635,2005.7979220415
40,104,1,2,-0.5,-0.5,-0.5,2,2,0.8,2,692,1,1,692,1,0,0.4,0,0.411505715915062,0.411505715915062,750,1,0,congruent,0.1,4649.7740230153,3485.91650213972
40,104,1,3,0.5,0.5,0.5,3,1,0.8,1,714,0,1,NaN,0,0,0.6,NaN,0.629874785011872,NaN,750,1,0,incongruent,0,3350.26228083797,5391.93513937291
40,104,1,4,0.5,0.5,0.5,2,4,0.6,2,832,1,0,832,0,0,0.6,NaN,1.80112706471294,1.80112706471294,750,0,0,incongruent,0,2007.13310049757,2107.03915935669
40,104,1,5,0.5,0.5,0,1,NaN,0.4,1,561,1,1,561,1,0,0.6,NaN,-0.888782831888668,-0.888782831888668,750,0,0,neutral,1,9022.08862590892,4584.78587409022
40,104,1,6,-0.5,-0.5,0.5,3,1,0.5,3,727,1,1,727,1,0,1,0.2,0.758911053114532,0.758911053114532,750,0,0,incongruent,0.1,2786.3439442647,2259.63162348333
40,104,1,7,-0.5,-0.5,0.5,4,2,0.5,4,599,1,1,599,1,0,0.8,0.4,-0.511599894357815,-0.511599894357815,750,0,0,incongruent,0.1,3684.39629989985,597.222352588109
40,104,1,8,0.5,0.5,0.5,2,3,0.5,2,947,1,0,947,0,0,0.8,NaN,2.94260174408263,2.94260174408263,750,0,0,incongruent,0,1169.41795963087,2120.45195093604
40,104,1,9,0.5,-0.5,0,1,NaN,0.3,1,527,1,1,527,1,0,0.8,NaN,-1.22626230231101,-1.22626230231101,750,0,0,neutral,1,5774.61201070886,2222.26987541399
40,104,1,10,-0.5,-0.5,-0.5,2,2,0.3,2,687,1,1,687,0,0,1.2,0.6,0.361876382029424,0.361876382029424,750,1,0,congruent,0,3537.55599289641,2146.64591052127
40,104,1,11,0.5,0.5,-0.5,1,1,0.3,1,571,1,1,571,1,0,0.8,NaN,-0.789524164117391,-0.789524164117391,750,1,0,congruent,1,2408.3450837904,1585.90240940677
40,104,1,12,-0.5,0.5,0,2,NaN,0.4,2,577,1,1,577,1,0,1,0,-0.729968963454624,-0.729968963454624,750,0,0,neutral,0.1,4069.42027351483,2361.00096126668
40,104,1,13,0.5,-0.5,-0.5,1,1,0.6,1,587,1,1,587,1,0,1,NaN,-0.630710295683347,-0.630710295683347,750,1,0,congruent,1,2884.69102734258,926.852373380792
40,104,1,14,0.5,-0.5,0,3,NaN,0.6,3,628,1,1,628,1,0,1.4,NaN,-0.223749757821111,-0.223749757821111,750,0,0,neutral,1,2826.92244479203,7261.92134239743
40,104,1,16,-0.5,0.5,-0.5,2,2,0.8,1,599,0,1,NaN,0,0,1.6,0.4,-0.511599894357815,NaN,750,0,1,congruent,0,967.526062914827,1829.75846311743
40,104,1,17,0.5,0.5,-0.5,4,4,0.6,4,590,1,1,590,1,0,1.2,NaN,-0.600932695351964,-0.600932695351964,750,1,0,congruent,1,7195.75052722308,1802.67801917573
40,104,1,18,-0.5,0.5,0.5,2,3,0.8,2,752,1,0,752,0,0,1.4,0.4,1.00705772254273,1.00705772254273,750,0,0,incongruent,0,677.584255388212,6397.88241437288
40,104,1,19,0.5,0.5,0,3,NaN,0.6,3,477,1,1,477,1,0,1,NaN,-1.7225556411674,-1.7225556411674,750,0,0,neutral,1,3135.55701550931,2717.72737079779
40,104,1,20,-0.5,0.5,0.5,2,1,0.6,2,641,1,1,641,1,0,1,0.4,-0.0947134897184508,-0.0947134897184508,750,0,0,incongruent,0.1,2140.36318529853,3932.29985368498
40,104,1,21,-0.5,-0.5,-0.5,3,3,0.6,3,685,1,1,685,0,0,1,0.6,0.342024648475169,0.342024648475169,750,1,0,congruent,0,2196.29756277911,583.008000176449
40,104,1,22,0.5,-0.5,0,4,NaN,0.6,4,560,1,1,560,1,0,1,NaN,-0.898708698665796,-0.898708698665796,750,0,0,neutral,1,2854.95898701768,3375.84971947816
40,104,1,23,-0.5,0.5,-0.5,1,1,0.6,1,655,1,1,655,1,0,1,0.6,0.0442486451613371,0.0442486451613371,750,1,0,congruent,0.1,3195.93177916531,1079.86399947463
40,104,1,24,0.5,0.5,0,3,NaN,0.8,3,682,1,1,682,1,0,1.2,NaN,0.312247048143785,0.312247048143785,750,0,0,neutral,1,2734.43366659129,2656.87654238259
40,104,1,25,0.5,0.5,0.5,2,4,0.8,2,758,1,0,758,0,0,1.2,NaN,1.06661292320549,1.06661292320549,750,0,0,incongruent,0,4174.36189069635,4275.98087219064
40,104,1,26,-0.5,-0.5,-0.5,1,1,0.8,1,553,1,1,553,1,0,1,0.6,-0.968189766105689,-0.968189766105689,750,1,0,congruent,0.1,3531.84372556086,1616.38118766124
40,104,1,27,0.5,-0.5,0,4,NaN,0.8,4,580,1,1,580,1,0,1.2,NaN,-0.700191363123241,-0.700191363123241,750,0,0,neutral,1,5920.14943876282,1942.18569447586
40,104,1,28,-0.5,0.5,-0.5,2,2,0.8,2,654,1,1,654,1,0,1.2,0.6,0.0343227783842094,0.0343227783842094,750,1,0,congruent,0.1,791.049936217997,2288.84171986547
40,104,1,29,-0.5,-0.5,-0.5,1,1,0.8,1,540,1,1,540,1,0,1.2,0.6,-1.09722603420835,-1.09722603420835,750,1,0,congruent,0.1,2192.93341443991,1192.00562954991
40,104,1,30,0.5,0.5,-0.5,4,4,0.8,4,524,1,1,524,1,0,1,NaN,-1.25603990264239,-1.25603990264239,750,1,0,congruent,1,3105.51780331114,2851.87636591936
40,104,1,31,-0.5,0.5,-0.5,3,3,0.8,3,613,1,1,613,1,0,1.4,0.6,-0.372637759478027,-0.372637759478027,750,1,0,congruent,0.1,3975.04340027803,5719.1508133418
40,104,1,32,-0.5,0.5,-0.5,1,1,0.8,1,566,1,1,566,1,0,1.4,0.8,-0.839153498003029,-0.839153498003029,750,1,0,congruent,0.1,937.920077809109,765.635858786404
40,104,1,33,0.5,0.5,0.5,4,3,0.8,4,745,1,1,745,1,0,1.2,NaN,0.937576655102831,0.937576655102831,750,0,0,incongruent,1,2133.60048533434,2294.50237385657
40,104,1,34,0.5,0.5,0.5,2,1,1,2,705,1,1,705,1,0,1.4,NaN,0.540541984017723,0.540541984017723,750,0,0,incongruent,1,728.331377998677,1948.05275729001
40,104,1,35,0.5,-0.5,0,4,NaN,1,4,531,1,1,531,1,0,1.6,NaN,-1.1865588352025,-1.1865588352025,750,0,0,neutral,1,1032.75511687164,2472.25309632383
40,104,1,36,-0.5,-0.5,0.5,1,3,1,1,866,1,0,866,1,0,1.6,0.6,2.13860653513528,2.13860653513528,750,0,0,incongruent,0.1,2674.22664567062,898.036176477123
40,104,1,37,0.5,-0.5,0.5,3,1,1,3,841,1,0,841,1,0,1.6,NaN,1.89045986570709,1.89045986570709,750,0,0,incongruent,1,6612.37227510993,1868.55622606754
40,104,1,38,0.5,0.5,0,1,NaN,1,1,643,1,1,643,1,0,1.8,NaN,-0.0748617561641954,-0.0748617561641954,750,0,0,neutral,1,1539.13185960314,1123.01546672557
40,104,1,39,-0.5,0.5,0.5,3,4,1,3,908,1,0,908,0,0,1.8,1,2.55549293977465,2.55549293977465,750,0,0,incongruent,0,3278.35350589357,4589.43280320585
40,104,1,40,0.5,-0.5,0.5,4,2,0.8,4,613,1,1,613,1,0,1.4,NaN,-0.372637759478027,-0.372637759478027,750,0,0,incongruent,1,4984.75239538418,2213.531332853
40,104,1,41,0.5,0.5,0,3,NaN,0.8,3,520,1,1,520,1,0,1.4,NaN,-1.2957433697509,-1.2957433697509,750,0,0,neutral,1,2114.35892744084,3108.92576969506
40,104,1,42,0.5,0.5,0.5,1,4,0.8,1,675,1,1,675,1,0,1.6,NaN,0.242765980703891,0.242765980703891,750,0,0,incongruent,1,2178.20235260589,1187.83837754422
40,104,1,43,-0.5,0.5,0,4,NaN,0.8,4,493,1,1,493,1,0,1.6,0.8,-1.56374177273335,-1.56374177273335,750,0,0,neutral,0.1,2463.68361425276,1316.44023940937
40,104,1,44,0.5,0.5,0.5,1,2,0.8,1,665,1,1,665,1,0,1.4,NaN,0.143507312932614,0.143507312932614,750,0,0,incongruent,1,1485.8773805208,1068.31245187079
40,104,1,45,0.5,-0.5,0,2,NaN,0.8,1,844,0,0,NaN,1,0,1.8,NaN,1.92023746603847,NaN,750,0,1,neutral,1,3357.4067424219,3728.68531930179
40,104,1,46,0.5,-0.5,0.5,3,4,0.8,3,758,1,0,758,1,0,1.8,NaN,1.06661292320549,1.06661292320549,750,0,0,incongruent,1,7540.94445778516,1666.63743324418
40,104,1,47,0.5,0.5,0.5,1,3,0.8,1,647,1,1,647,1,0,1.8,NaN,-0.0351582890556846,-0.0351582890556846,750,0,0,incongruent,1,5907.57789907326,1119.18170386287
40,104,1,48,-0.5,-0.5,-0.5,2,2,1,2,675,1,1,675,1,0,1.8,0.6,0.242765980703891,0.242765980703891,750,1,0,congruent,0.1,2769.97079870724,11604.5594311689
40,104,1,49,-0.5,-0.5,0.5,4,3,1,4,659,1,1,659,1,0,1.8,0.8,0.083952112269848,0.083952112269848,750,0,0,incongruent,0.1,1301.98981867129,3390.57883934634
40,104,1,50,-0.5,0.5,0,1,NaN,1,1,569,1,1,569,1,0,1.6,0.8,-0.809375897671646,-0.809375897671646,750,0,0,neutral,0.1,1545.94983864189,1863.3219131104
40,104,1,51,-0.5,-0.5,-0.5,2,2,1,2,700,1,1,700,1,0,1.4,1,0.490912650132084,0.490912650132084,750,1,0,congruent,0.1,2207.31491794624,1841.4930297956
40,104,1,52,-0.5,0.5,-0.5,3,3,1,3,784,1,0,784,0,0,1.2,0.8,1.32468545941081,1.32468545941081,750,1,0,congruent,0,1322.00223624438,2608.39124669983
40,104,1,53,-0.5,0.5,0.5,4,1,0.8,4,996,1,0,996,0,0,0.8,0.6,3.42896921616189,3.42896921616189,750,0,0,incongruent,0,5625.6379649345,2300.59976696331
40,104,1,54,0.5,0.5,0.5,1,3,0.6,1,799,1,0,799,0,0,0.6,NaN,1.47357346106773,1.47357346106773,750,0,0,incongruent,0,3569.94770678731,731.532734502501
40,104,1,55,-0.5,0.5,0,2,NaN,0.4,2,656,1,1,656,1,0,0.4,0.4,0.0541745119384648,0.0541745119384648,750,0,0,neutral,0.1,1834.45246163733,2208.6493176122
40,104,1,56,0.5,-0.5,-0.5,3,3,0.4,3,545,1,1,545,1,0,0.4,NaN,-1.04759670032271,-1.04759670032271,750,1,0,congruent,1,631.35631671556,1605.72939537133
40,104,1,57,-0.5,0.5,0.5,1,2,0.4,1,674,1,1,674,1,0,0.6,0.6,0.232840113926764,0.232840113926764,750,0,0,incongruent,0.1,419.292810069286,4186.0362056223
40,104,1,58,-0.5,-0.5,-0.5,3,3,0.4,3,479,1,1,479,1,0,0.8,1,-1.70270390761314,-1.70270390761314,750,1,0,congruent,0.1,1780.92359846622,1067.27919505589
40,104,1,59,0.5,0.5,0,2,NaN,0.4,1,607,0,1,NaN,0,0,1,NaN,-0.432192960140793,NaN,750,0,1,neutral,0,976.764451140114,1056.84870975769
40,104,1,60,0.5,0.5,0.5,3,4,0.4,3,653,1,1,653,1,0,1,NaN,0.0243969116070817,0.0243969116070817,750,0,0,incongruent,1,1748.89365506376,3476.25843123513
40,104,1,61,0.5,0.5,0,1,NaN,0.6,1,590,1,1,590,1,0,1.2,NaN,-0.600932695351964,-0.600932695351964,750,0,0,neutral,1,2437.95056328655,1113.63944540352
40,104,1,62,-0.5,-0.5,0.5,3,4,0.8,3,620,1,1,620,1,0,1.2,1,-0.303156692038133,-0.303156692038133,750,0,0,incongruent,0.1,1567.36611055114,5696.64314477122
40,104,1,63,0.5,0.5,-0.5,2,2,0.8,2,649,1,1,649,1,0,1.2,NaN,-0.0153065555014291,-0.0153065555014291,750,1,0,congruent,1,1999.51277341521,2975.08349851343
40,104,1,64,-0.5,0.5,0.5,1,4,0.8,1,779,1,0,779,0,0,1.4,0.6,1.27505612552517,1.27505612552517,750,0,0,incongruent,0,1463.67032399062,1166.47543326672
40,104,1,65,0.5,-0.5,-0.5,2,2,0.6,2,544,1,1,544,0,0,1.4,NaN,-1.05752256709984,-1.05752256709984,750,1,0,congruent,0,3203.31209147987,2471.97183539965
40,104,1,66,0.5,0.5,-0.5,4,4,0.6,4,603,1,1,603,1,0,1,NaN,-0.471896427249304,-0.471896427249304,750,1,0,congruent,1,4460.73846660965,1108.7786682436
40,104,1,67,-0.5,0.5,0,3,NaN,0.8,3,646,1,1,646,1,0,1,0.4,-0.0450841558328123,-0.0450841558328123,750,0,0,neutral,0.1,3800.27498357484,2415.44272122058
40,104,1,68,0.5,-0.5,0.5,4,3,0.8,4,655,1,1,655,0,0,1,NaN,0.0442486451613371,0.0442486451613371,750,0,0,incongruent,0,1746.48617936943,1000.87235987832
40,104,1,69,-0.5,0.5,-0.5,1,1,0.8,1,621,1,1,621,1,0,0.6,0.6,-0.293230825261005,-0.293230825261005,750,1,0,congruent,0.1,8175.46813553919,1307.82329587336
40,104,1,70,0.5,0.5,0.5,4,3,0.8,4,766,1,0,766,0,0,0.8,NaN,1.14601985742251,1.14601985742251,750,0,0,incongruent,0,2105.50458980204,889.485942875686
40,104,1,71,0.5,-0.5,-0.5,2,2,0.6,1,591,0,1,NaN,0,0,0.8,NaN,-0.591006828574836,NaN,750,0,1,congruent,0,1843.46241250358,400.173855619587
40,104,1,72,0.5,-0.5,-0.5,1,1,0.6,1,539,1,1,539,0,0,0.4,NaN,-1.10715190098548,-1.10715190098548,750,1,0,congruent,0,2069.82708086356,952.845319949401
40,104,1,73,-0.5,0.5,0,2,NaN,0.6,2,659,1,1,659,1,0,0.2,0.8,0.083952112269848,0.083952112269848,750,0,0,neutral,0.1,982.996355051307,3351.99401964115
40,104,1,74,0.5,-0.5,-0.5,3,3,0.8,3,580,1,1,580,1,0,0.4,NaN,-0.700191363123241,-0.700191363123241,750,1,0,congruent,1,3126.97235098484,2218.86807882583
40,104,1,75,0.5,-0.5,0,4,NaN,0.8,4,534,1,1,534,1,0,0.6,NaN,-1.15678123487112,-1.15678123487112,750,0,0,neutral,1,2840.60191652704,8092.91603336784
40,104,1,76,0.5,0.5,0.5,3,2,0.8,3,779,1,0,779,0,0,1,NaN,1.27505612552517,1.27505612552517,750,0,0,incongruent,0,2101.68051581731,4264.26217906276
40,104,1,77,0.5,-0.5,-0.5,1,1,0.6,1,640,1,1,640,1,0,1,NaN,-0.104639356495579,-0.104639356495579,750,1,0,congruent,1,2244.50693694918,3077.42800305293
40,104,1,78,-0.5,0.5,-0.5,4,4,0.6,4,568,1,1,568,1,0,1.4,0.8,-0.819301764448774,-0.819301764448774,750,1,0,congruent,0.1,1915.51485344624,7840.60970113333
40,104,1,79,0.5,0.5,-0.5,2,2,0.6,2,652,1,1,652,1,0,1.4,NaN,0.014471044829954,0.014471044829954,750,1,0,congruent,1,2309.66179703658,3142.8536378857
40,104,1,80,0.5,0.5,0,1,NaN,0.6,1,586,1,1,586,1,0,1.4,NaN,-0.640636162460475,-0.640636162460475,750,0,0,neutral,1,5008.33734346384,15973.7387553523
40,104,1,81,-0.5,-0.5,-0.5,4,4,0.8,4,507,1,1,507,1,0,1.4,1,-1.42477963785356,-1.42477963785356,750,1,0,congruent,0.1,1127.52268901303,2272.36230897111
40,104,1,82,-0.5,-0.5,-0.5,1,1,0.8,1,551,1,1,551,1,0,1.6,1,-0.988041499659945,-0.988041499659945,750,1,0,congruent,0.1,2273.97432918142,1002.40066741831
40,104,1,85,-0.5,-0.5,0,4,NaN,0.8,4,628,1,1,628,1,0,1,1,-0.223749757821111,-0.223749757821111,750,0,0,neutral,0.1,1872.87338841636,3695.18995779264
40,104,1,86,-0.5,-0.5,-0.5,1,1,0.8,1,657,1,1,657,1,0,0.8,1,0.0641003787155926,0.0641003787155926,750,1,0,congruent,0.1,2927.53108279091,981.203732986041
40,104,1,87,0.5,-0.5,-0.5,2,2,0.8,2,542,1,1,542,0,0,0.8,NaN,-1.07737430065409,-1.07737430065409,750,1,0,congruent,0,3127.71280623113,12135.8827057322
40,104,1,88,0.5,0.5,-0.5,3,3,0.8,3,534,1,1,534,1,0,0.6,NaN,-1.15678123487112,-1.15678123487112,750,1,0,congruent,1,1460.66164610163,1661.5493429922
40,104,1,89,-0.5,-0.5,0,4,NaN,0.8,4,556,1,1,556,0,0,0.8,1,-0.938412165774306,-0.938412165774306,750,0,0,neutral,0,2900.84146060423,2639.17456595042
40,104,1,90,0.5,-0.5,-0.5,2,2,0.8,2,647,1,1,647,0,0,0.8,NaN,-0.0351582890556846,-0.0351582890556846,750,1,0,congruent,0,2582.17363338927,4156.49208307519
40,104,1,91,-0.5,-0.5,-0.5,3,3,0.8,3,864,1,0,864,0,0,0.6,0.8,2.11875480158103,2.11875480158103,750,1,0,congruent,0,571.328144345378,2834.36914655953
40,104,1,92,-0.5,0.5,-0.5,1,1,0.8,1,617,1,1,617,1,0,0.4,1,-0.332934292369516,-0.332934292369516,750,1,0,congruent,0.1,1091.26849082718,1280.24721271166
40,104,1,93,0.5,0.5,0,3,NaN,0.8,3,465,1,1,465,1,0,0.6,NaN,-1.84166604249293,-1.84166604249293,750,0,0,neutral,1,2724.11917862343,1915.97086181718
40,104,1,94,0.5,0.5,0.5,4,2,0.8,4,474,1,1,474,1,0,0.6,NaN,-1.75233324149878,-1.75233324149878,750,0,0,incongruent,1,1804.89605919317,1264.27166757586
40,104,1,95,-0.5,0.5,0,3,NaN,0.8,3,681,1,1,681,1,0,1,1,0.302321181366658,0.302321181366658,750,0,0,neutral,0.1,1911.21663234396,2867.98482067326
40,104,1,96,-0.5,0.5,-0.5,2,2,1,4,672,0,1,NaN,0,0,1.2,1,0.212988380372508,NaN,750,0,1,congruent,0,2120.7950758471,2315.74952858316
40,104,1,97,-0.5,0.5,0.5,3,1,0.8,3,749,1,1,749,1,0,1.2,0.8,0.977280122211342,0.977280122211342,750,0,0,incongruent,0.1,1460.55855954366,1498.76049517072
40,104,1,98,-0.5,-0.5,0,2,NaN,0.8,2,688,1,1,688,1,0,1.2,0.6,0.371802248806552,0.371802248806552,750,0,0,neutral,0.1,3322.35191647716,768.747643983922
40,104,1,99,0.5,-0.5,-0.5,4,4,0.8,4,576,1,1,576,0,0,1,NaN,-0.739894830231752,-0.739894830231752,750,1,0,congruent,0,2023.51782534311,988.901125885263
40,104,1,100,-0.5,0.5,-0.5,3,3,0.8,3,529,1,1,529,1,0,0.6,0.8,-1.20641056875675,-1.20641056875675,750,1,0,congruent,0.1,3236.41552276603,2950.88837270634
40,104,1,101,0.5,0.5,-0.5,4,4,0.8,4,507,1,1,507,1,0,0.6,NaN,-1.42477963785356,-1.42477963785356,750,1,0,congruent,1,2699.77029746493,710.857802323953
40,104,1,102,0.5,0.5,0,1,NaN,0.8,1,591,1,1,591,1,0,1,NaN,-0.591006828574836,-0.591006828574836,750,0,0,neutral,1,2919.62152651586,4400.32810255256
40,104,1,104,-0.5,-0.5,0.5,2,4,1,2,794,1,0,794,1,0,1.4,0.6,1.42394412718209,1.42394412718209,750,0,0,incongruent,0.1,4192.81354013974,4663.98090025894
40,104,1,105,-0.5,-0.5,-0.5,3,3,1,3,637,1,1,637,1,0,1.6,0.6,-0.134416956826962,-0.134416956826962,750,1,0,congruent,0.1,684.623869745601,3717.40991070575
40,104,1,106,-0.5,0.5,0,4,NaN,1,4,660,1,1,660,1,0,1.6,0.8,0.0938779790469757,0.0938779790469757,750,0,0,neutral,0.1,1490.88992893944,1049.51680794792
40,104,1,107,0.5,0.5,0.5,3,4,1,3,707,1,1,707,1,0,1.4,NaN,0.560393717571978,0.560393717571978,750,0,0,incongruent,1,1305.30465926881,563.256780178465
40,104,1,108,-0.5,0.5,0.5,1,2,1,1,635,1,1,635,1,0,1.4,0.8,-0.154268690381217,-0.154268690381217,750,0,0,incongruent,0.1,6140.23668295533,4600.98146364413
40,104,1,109,-0.5,0.5,-0.5,4,4,1,4,509,1,1,509,1,0,1.2,0.8,-1.40492790429931,-1.40492790429931,750,1,0,congruent,0.1,5489.30937016021,1703.52418007357
40,104,1,110,0.5,-0.5,0,2,NaN,1,2,601,1,1,601,1,0,1.2,NaN,-0.491748160803559,-0.491748160803559,750,0,0,neutral,1,3413.05545208654,893.12877565517
40,104,1,111,0.5,0.5,0.5,4,2,1,4,579,1,1,579,1,0,1.4,NaN,-0.710117229900369,-0.710117229900369,750,0,0,incongruent,1,4406.71915637827,3730.1059882457
40,104,1,112,-0.5,-0.5,-0.5,1,1,1,1,655,1,1,655,1,0,1.6,0.6,0.0442486451613371,0.0442486451613371,750,1,0,congruent,0.1,1199.34049757485,1226.29209054511
40,104,1,113,0.5,0.5,-0.5,4,4,1,4,457,1,1,457,1,0,1.4,NaN,-1.92107297670995,-1.92107297670995,750,1,0,congruent,1,4168.03604761183,550.192178684084
40,104,1,114,-0.5,0.5,0,2,NaN,1,2,708,1,1,708,1,0,1.6,1,0.570319584349106,0.570319584349106,750,0,0,neutral,0.1,2243.42763163967,1936.25658271416
40,104,1,115,0.5,0.5,-0.5,1,1,1,1,925,1,0,925,0,0,1.6,NaN,2.72423267498582,2.72423267498582,750,1,0,congruent,0,2002.12059839966,5278.38378832878
40,104,1,116,0.5,0.5,0.5,2,3,0.8,2,765,1,0,765,0,0,1.2,NaN,1.13609399064539,1.13609399064539,750,0,0,incongruent,0,1632.6235462483,4164.76297961825
40,104,1,117,0.5,0.5,0,1,NaN,0.6,1,604,1,1,604,1,0,0.8,NaN,-0.461970560472176,-0.461970560472176,750,0,0,neutral,1,1280.35027430463,404.327668532285
40,104,1,118,0.5,0.5,-0.5,4,4,0.6,4,557,1,1,557,1,0,1,NaN,-0.928486298997179,-0.928486298997179,750,1,0,congruent,1,851.260784541499,3518.14099279644
40,104,1,119,-0.5,-0.5,0,3,NaN,0.6,3,700,1,1,700,0,0,1,0.8,0.490912650132084,0.490912650132084,750,0,0,neutral,0,4631.69488488332,1621.63305333717
40,104,1,120,0.5,-0.5,-0.5,1,1,0.6,1,590,1,1,590,1,0,0.8,NaN,-0.600932695351964,-0.600932695351964,750,1,0,congruent,1,2692.84165779461,4178.0836392326
40,104,1,121,0.5,0.5,0,4,NaN,0.6,4,585,1,1,585,1,0,1.2,NaN,-0.650562029237603,-0.650562029237603,750,0,0,neutral,1,5237.12977951564,2591.92791130455
40,104,1,123,-0.5,-0.5,-0.5,4,4,0.8,3,639,0,1,NaN,1,0,1.4,0.8,-0.114565223272706,NaN,750,0,1,congruent,0.1,2106.91076520447,2951.94309671415
40,104,1,124,-0.5,-0.5,0,1,NaN,0.8,1,547,1,1,547,1,0,1.2,0.8,-1.02774496676846,-1.02774496676846,750,0,0,neutral,0.1,853.283846361872,5340.50890822166
40,104,1,125,-0.5,0.5,-0.5,2,2,0.8,2,654,1,1,654,1,0,1.4,1,0.0343227783842094,0.0343227783842094,750,1,0,congruent,0.1,1351.85754339207,3406.0031304799
40,104,1,126,0.5,0.5,-0.5,4,4,1,4,522,1,1,522,1,0,1.2,NaN,-1.27589163619665,-1.27589163619665,750,1,0,congruent,1,3941.25840369863,2824.65755012273
40,104,1,127,0.5,0.5,-0.5,1,1,1,1,630,1,1,630,1,0,1.2,NaN,-0.203898024266856,-0.203898024266856,750,1,0,congruent,1,1886.33985428598,1017.9056638499
40,104,1,129,-0.5,0.5,0.5,1,4,1,1,651,1,1,651,1,0,1.6,1,0.00454517805282629,0.00454517805282629,750,0,0,incongruent,0.1,5118.153218965,1905.32156450575
40,104,1,131,-0.5,0.5,0,4,NaN,1,4,534,1,1,534,1,0,1.6,1,-1.15678123487112,-1.15678123487112,750,0,0,neutral,0.1,4198.05758664176,1320.76615462358
40,104,1,132,-0.5,0.5,-0.5,3,3,1,3,618,1,1,618,1,0,1.4,1,-0.323008425592388,-0.323008425592388,750,1,0,congruent,0.1,2351.60714722921,902.343585523871
40,104,1,133,-0.5,-0.5,0,2,NaN,1,1,708,0,1,NaN,1,0,1.2,0.8,0.570319584349106,NaN,750,0,1,neutral,0.1,8366.15780497708,4050.61686166682
40,104,1,134,-0.5,-0.5,-0.5,3,3,1,4,530,0,1,NaN,1,0,1,0.8,-1.19648470197963,NaN,750,0,1,congruent,0.1,2605.11909421629,741.635798049935
40,104,1,135,0.5,-0.5,0.5,2,1,1,2,694,1,1,694,1,0,1,NaN,0.431357449469318,0.431357449469318,750,0,0,incongruent,1,1819.29588987529,3037.72483019027
40,104,1,136,-0.5,-0.5,0,1,NaN,1,1,519,1,1,519,1,0,1.2,0.8,-1.30566923652803,-1.30566923652803,750,0,0,neutral,0.1,1419.6968696482,3755.0460415178
40,104,1,139,0.5,-0.5,0,3,NaN,1,3,605,1,1,605,1,0,1.6,NaN,-0.452044693695048,-0.452044693695048,750,0,0,neutral,1,780.808414379711,1256.31213017488
40,104,1,140,-0.5,0.5,-0.5,2,2,1,2,727,1,1,727,1,0,1.8,1,0.758911053114532,0.758911053114532,750,1,0,congruent,0.1,3293.76550220333,11801.3888061771
40,104,1,141,0.5,-0.5,-0.5,4,4,1,4,980,1,0,980,1,0,1.6,NaN,3.27015534772784,3.27015534772784,750,1,0,congruent,1,2784.18503342616,5850.45984835234
40,104,1,142,-0.5,0.5,0,2,NaN,1,2,682,1,1,682,1,0,1.8,1,0.312247048143785,0.312247048143785,750,0,0,neutral,0.1,1580.76057557755,2161.00875736815
40,104,1,144,0.5,0.5,-0.5,2,2,1,2,683,1,1,683,1,0,1.6,NaN,0.322172914920913,0.322172914920913,750,1,0,congruent,1,4992.71885205052,3166.80993005259
40,104,1,146,-0.5,0.5,-0.5,3,3,1,3,597,1,1,597,1,0,1.6,1,-0.53145162791207,-0.53145162791207,750,1,0,congruent,0.1,3709.7664091153,6195.99641245274
40,104,1,147,0.5,-0.5,0,4,NaN,1,4,616,1,1,616,1,0,1.4,NaN,-0.342860159146644,-0.342860159146644,750,0,0,neutral,1,888.934098976705,661.355710790324
40,104,1,148,-0.5,0.5,-0.5,2,2,1,2,658,1,1,658,1,0,1.6,1,0.0740262454927203,0.0740262454927203,750,1,0,congruent,0.1,2077.86766244123,1898.67177019549
40,104,1,149,-0.5,-0.5,0.5,1,3,1,2,721,0,1,NaN,1,0,1.4,1,0.699355852451766,NaN,750,0,1,incongruent,0.1,2810.47630160859,1533.03622025307
40,104,1,150,0.5,-0.5,0.5,3,4,1,3,629,1,1,629,1,0,1.2,NaN,-0.213823891043983,-0.213823891043983,750,0,0,incongruent,1,1989.2433728949,1868.13503697163
40,104,2,151,0.5,0.5,0,1,NaN,1,1,618,1,1,618,1,0,1.4,NaN,-0.323008425592388,-0.323008425592388,750,0,0,neutral,1,1553.50265938885,2755.72567640606
40,104,2,152,-0.5,0.5,-0.5,3,3,1,3,610,1,1,610,1,0,1.6,1,-0.40241535980941,-0.40241535980941,750,1,0,congruent,0.1,1936.38269515725,2353.09848569446
40,104,2,153,0.5,0.5,0,1,NaN,1,1,532,1,1,532,1,0,1.4,NaN,-1.17663296842537,-1.17663296842537,750,0,0,neutral,1,3607.12714197236,2935.6531250678
40,104,2,154,0.5,0.5,-0.5,4,4,1,4,559,1,1,559,1,0,1.6,NaN,-0.908634565442923,-0.908634565442923,750,1,0,congruent,1,3041.03988792837,2857.01913335167
40,104,2,155,-0.5,0.5,0,3,NaN,1,3,576,1,1,576,1,0,1.8,1,-0.739894830231752,-0.739894830231752,750,0,0,neutral,0.1,10301.7531278506,3162.77289474672
40,104,2,156,0.5,-0.5,-0.5,2,2,1,2,721,1,1,721,1,0,1.6,NaN,0.699355852451766,0.699355852451766,750,1,0,congruent,1,2053.27754229327,1927.20598628908
40,104,2,159,0.5,0.5,-0.5,1,1,1,1,618,1,1,618,1,0,1.4,NaN,-0.323008425592388,-0.323008425592388,750,1,0,congruent,1,12937.4812144854,2122.90637191306
40,104,2,160,0.5,-0.5,0.5,3,4,1,3,738,1,1,738,1,0,1.4,NaN,0.868095587662937,0.868095587662937,750,0,0,incongruent,1,3599.74060335065,5074.18918886149
40,104,2,161,0.5,-0.5,0.5,2,3,1,2,985,1,0,985,1,0,1.6,NaN,3.31978468161348,3.31978468161348,750,0,0,incongruent,1,2538.1643351532,2686.77746682222
40,104,2,162,-0.5,0.5,0,3,NaN,1,3,674,1,1,674,1,0,1.6,1,0.232840113926764,0.232840113926764,750,0,0,neutral,0.1,2699.09736393722,2681.76387173923
40,104,2,163,0.5,0.5,0.5,2,1,1,1,666,0,1,NaN,0,0,1.6,NaN,0.153433179709742,NaN,750,1,0,incongruent,0,8732.3920198869,1673.43821919689
40,104,2,164,0.5,0.5,0.5,4,3,0.8,4,686,1,1,686,1,0,1.4,NaN,0.351950515252296,0.351950515252296,750,0,0,incongruent,1,1196.49973500959,1499.81593221568
40,104,2,165,-0.5,-0.5,0,3,NaN,0.8,3,673,1,1,673,1,0,1.4,1,0.222914247149636,0.222914247149636,750,0,0,neutral,0.1,2611.32517302251,2119.6808753245
40,104,2,167,0.5,0.5,0.5,3,2,0.8,3,721,1,1,721,1,0,1,NaN,0.699355852451766,0.699355852451766,750,0,0,incongruent,1,843.902135285864,2269.54047326068
40,104,2,168,-0.5,0.5,0.5,2,1,0.8,2,670,1,1,670,1,0,1.2,1,0.193136646818253,0.193136646818253,750,0,0,incongruent,0.1,2106.76183032145,961.57254663056
40,104,2,169,0.5,0.5,-0.5,4,4,0.8,4,627,1,1,627,1,0,1.4,NaN,-0.233675624598239,-0.233675624598239,750,1,0,congruent,1,4223.78431681418,902.438140991373
40,104,2,170,-0.5,0.5,0,2,NaN,1,2,662,1,1,662,1,0,1.4,1,0.113729712601231,0.113729712601231,750,0,0,neutral,0.1,1765.93892407795,2413.93107732184
40,104,2,171,-0.5,-0.5,-0.5,3,3,1,3,695,1,1,695,1,0,1.4,1,0.441283316246446,0.441283316246446,750,1,0,congruent,0.1,2392.47417465946,2585.46065303638
40,104,2,174,-0.5,0.5,0,2,NaN,0.8,2,653,1,1,653,1,0,1.2,1,0.0243969116070817,0.0243969116070817,750,0,0,neutral,0.1,6387.44402910845,2379.68897196301
40,104,2,175,0.5,0.5,0.5,4,3,0.8,4,587,1,1,587,1,0,1,NaN,-0.630710295683347,-0.630710295683347,750,0,0,incongruent,1,8485.27404851601,1124.87861371914
40,104,2,176,0.5,-0.5,0,3,NaN,0.8,3,633,1,1,633,1,0,1.2,NaN,-0.174120423935473,-0.174120423935473,750,0,0,neutral,1,1524.01186812464,2410.79255839139
40,104,2,177,-0.5,-0.5,-0.5,1,1,0.8,1,692,1,1,692,1,0,1.4,1,0.411505715915062,0.411505715915062,750,1,0,congruent,0.1,4301.53903973025,4181.65684907105
40,104,2,178,0.5,0.5,-0.5,3,3,0.8,3,797,1,0,797,0,0,1.2,NaN,1.45372172751347,1.45372172751347,750,1,0,congruent,0,462.196592746089,2337.9233045229
40,104,2,179,0.5,0.5,-0.5,4,4,0.6,4,613,1,1,613,1,0,1.2,NaN,-0.372637759478027,-0.372637759478027,750,1,0,congruent,1,3075.58151418218,2914.00766615531
40,104,2,180,0.5,-0.5,0,3,NaN,0.6,3,793,1,0,793,0,0,1.4,NaN,1.41401826040496,1.41401826040496,750,0,0,neutral,0,759.178895330394,2925.56300395119
40,104,2,181,0.5,-0.5,0.5,1,2,0.6,1,822,1,0,822,1,0,1,NaN,1.70186839694167,1.70186839694167,750,0,0,incongruent,1,2865.0544895282,1393.0982049482
40,104,2,182,-0.5,-0.5,0,3,NaN,0.6,3,618,1,1,618,1,0,1,1,-0.323008425592388,-0.323008425592388,750,0,0,neutral,0.1,1903.56735453182,1442.73723838218
40,104,2,183,-0.5,-0.5,-0.5,4,4,0.6,4,575,1,1,575,1,0,1,1,-0.74982069700888,-0.74982069700888,750,1,0,congruent,0.1,1181.19613255432,2608.94253666049
40,104,2,184,-0.5,-0.5,0.5,2,3,0.6,2,848,1,0,848,1,0,1.2,1,1.95994093314699,1.95994093314699,750,0,0,incongruent,0.1,379.491146103206,2622.56865741426
40,104,2,185,0.5,-0.5,0,3,NaN,0.6,3,693,1,1,693,1,0,1,NaN,0.42143158269219,0.42143158269219,750,0,0,neutral,1,1888.91333407976,2978.01727989086
40,104,2,186,0.5,0.5,-0.5,4,4,0.6,4,672,1,1,672,1,0,1.4,NaN,0.212988380372508,0.212988380372508,750,1,0,congruent,1,2316.8312431398,3721.41031755289
40,104,2,187,0.5,0.5,-0.5,3,3,0.8,3,626,1,1,626,1,0,1.4,NaN,-0.243601491375366,-0.243601491375366,750,1,0,congruent,1,7172.31095647065,1922.29678807728
40,104,2,188,0.5,-0.5,-0.5,2,2,0.8,1,738,0,1,NaN,1,0,1.6,NaN,0.868095587662937,NaN,750,0,1,congruent,1,2768.10880130891,3400.1556457646
40,104,2,189,-0.5,-0.5,0,1,NaN,0.8,1,662,1,1,662,1,0,1.8,1,0.113729712601231,0.113729712601231,750,0,0,neutral,0.1,3947.6550483821,3805.53790093352
40,104,2,190,0.5,0.5,0.5,3,4,0.8,3,682,1,1,682,1,0,1.8,NaN,0.312247048143785,0.312247048143785,750,0,0,incongruent,1,4105.19715551234,2378.44785457609
40,104,2,192,-0.5,-0.5,-0.5,3,3,0.8,3,713,1,1,713,0,0,1.4,1,0.619948918234744,0.619948918234744,750,1,0,congruent,0,6783.43879206862,6704.45295544921
40,104,2,193,0.5,0.5,0.5,1,4,0.8,1,767,1,0,767,0,0,1,NaN,1.15594572419964,1.15594572419964,750,0,0,incongruent,0,10986.3580733967,7893.28545719991
40,104,2,196,0.5,0.5,-0.5,3,3,0.8,3,653,1,1,653,1,0,0.6,NaN,0.0243969116070817,0.0243969116070817,750,1,0,congruent,1,2044.91186863393,1512.93911144703
40,104,2,197,0.5,0.5,-0.5,4,4,0.8,4,588,1,1,588,1,0,1,NaN,-0.62078442890622,-0.62078442890622,750,1,0,congruent,1,4005.25364061302,10457.2248237532
40,104,2,198,-0.5,-0.5,-0.5,2,2,0.8,1,859,0,0,NaN,1,0,1.4,0.8,2.06912546769539,NaN,750,0,1,congruent,0.1,1125.40341846587,8623.82673066675
40,104,2,199,-0.5,0.5,-0.5,3,3,0.8,3,798,1,0,798,0,0,1.6,1,1.4636475942906,1.4636475942906,750,1,0,congruent,0,2043.22869258886,2437.94310867797
40,104,2,200,0.5,0.5,0,4,NaN,0.8,4,548,1,1,548,1,0,1.2,NaN,-1.01781909999133,-1.01781909999133,750,0,0,neutral,1,2466.11997178892,3707.30770149503
40,104,2,201,0.5,-0.5,-0.5,3,3,0.8,3,790,1,0,790,0,0,1.4,NaN,1.38424066007358,1.38424066007358,750,1,0,congruent,0,3431.93788519812,969.997971114852
40,104,2,203,-0.5,0.5,0,3,NaN,0.6,3,690,1,1,690,1,0,0.6,0.6,0.391653982360807,0.391653982360807,750,0,0,neutral,0.1,2478.46892528685,3106.55914665517
40,104,2,204,0.5,0.5,-0.5,1,1,0.6,1,831,1,0,831,0,0,0.6,NaN,1.79120119793581,1.79120119793581,750,1,0,congruent,0,3745.71812112963,1710.66055836659
40,104,2,205,0.5,-0.5,-0.5,4,4,0.4,4,500,1,1,500,0,0,0.6,NaN,-1.49426070529346,-1.49426070529346,750,1,0,congruent,0,819.326897058412,1722.07009661371
40,104,2,206,0.5,-0.5,0,3,NaN,0.4,3,676,1,1,676,1,0,0.2,NaN,0.252691847481019,0.252691847481019,750,0,0,neutral,1,6416.18414292049,10030.7226725869
40,104,2,207,-0.5,0.5,-0.5,2,2,0.4,2,791,1,0,791,0,0,0.6,0.6,1.39416652685071,1.39416652685071,750,1,0,congruent,0,4254.97520890689,4297.54086423984
40,104,2,208,-0.5,0.5,0,3,NaN,0.4,3,561,1,1,561,1,0,0.6,0.4,-0.888782831888668,-0.888782831888668,750,0,0,neutral,0.1,1393.89966539516,3966.55889384362
40,104,2,209,0.5,-0.5,0.5,4,3,0.4,4,585,1,1,585,0,0,0.6,NaN,-0.650562029237603,-0.650562029237603,750,0,0,incongruent,0,1809.43508733204,6589.24196413421
40,104,2,210,0.5,0.5,-0.5,2,2,0.4,2,688,1,1,688,1,0,0.6,NaN,0.371802248806552,0.371802248806552,750,1,0,congruent,1,4740.20784950097,4267.27498167551
40,104,2,211,-0.5,0.5,0.5,3,1,0.6,3,722,1,1,722,1,0,1,0.4,0.709281719228894,0.709281719228894,750,0,0,incongruent,0.1,4493.63406624764,1613.84504405696
40,104,2,212,0.5,-0.5,-0.5,2,2,0.6,2,760,1,0,760,1,0,0.8,NaN,1.08646465675975,1.08646465675975,750,1,0,congruent,1,4475.67924450935,1002.64473472089
40,104,2,213,-0.5,-0.5,0,1,NaN,0.6,2,804,0,0,NaN,1,0,1.2,0.8,1.52320279495337,NaN,750,0,1,neutral,0.1,3636.26954163273,2515.65970394212
40,104,2,214,-0.5,-0.5,-0.5,4,4,0.6,4,600,1,1,600,0,0,1.2,0.8,-0.501674027580687,-0.501674027580687,750,1,0,congruent,0,2483.62169746245,10515.8645771948
40,104,2,216,-0.5,-0.5,0.5,4,1,0.6,4,594,1,1,594,1,0,0.8,0.6,-0.561229228243453,-0.561229228243453,750,0,0,incongruent,0.1,2315.11330301928,4248.1034331577
40,104,2,217,0.5,0.5,0,3,NaN,0.6,3,751,1,0,751,0,0,0.8,NaN,0.997131855765597,0.997131855765597,750,0,0,neutral,0,2116.55938218032,1883.71670157941
40,104,2,218,0.5,-0.5,0.5,4,3,0.6,4,672,1,1,672,1,0,0.4,NaN,0.212988380372508,0.212988380372508,750,0,0,incongruent,1,6952.52429795102,3398.17887243059
40,104,2,220,0.5,0.5,0.5,2,4,0.6,2,792,1,0,792,0,0,0.6,NaN,1.40409239362783,1.40409239362783,750,0,0,incongruent,0,3649.8143220898,1834.71291830551
40,104,2,221,0.5,0.5,0.5,4,2,0.4,4,528,1,1,528,1,0,0.6,NaN,-1.21633643553388,-1.21633643553388,750,0,0,incongruent,1,1686.05696730967,4655.10019699462
40,104,2,223,0.5,0.5,-0.5,3,3,0.2,3,999,1,0,999,0,0,0.8,NaN,3.45874681649327,3.45874681649327,750,1,0,congruent,0,2441.75205418219,2231.78750688854
40,104,2,224,0.5,-0.5,0.5,2,4,0.2,2,732,1,1,732,0,0,0.4,NaN,0.808540387000171,0.808540387000171,750,0,0,incongruent,0,4374.17166528634,2153.96730913282
40,104,2,225,-0.5,-0.5,-0.5,3,3,0.2,4,812,0,0,NaN,1,0,0.4,0.6,1.60260972917039,NaN,750,0,1,congruent,0.1,2341.20819363652,2470.64072226406
40,104,2,226,0.5,0.5,0.5,2,4,0.2,2,747,1,1,747,1,0,0.6,NaN,0.957428388657087,0.957428388657087,750,0,0,incongruent,1,846.679918453662,3346.05715735812
40,104,2,227,0.5,-0.5,0.5,4,3,0.4,4,566,1,1,566,1,0,0.6,NaN,-0.839153498003029,-0.839153498003029,750,0,0,incongruent,1,1352.09316593212,1440.89386660308
40,104,2,228,-0.5,-0.5,0.5,1,2,0.4,1,725,1,1,725,1,0,1,0.8,0.739059319560277,0.739059319560277,750,0,0,incongruent,0.1,6438.31658472609,1420.63314354166
40,104,2,229,-0.5,0.5,-0.5,4,4,0.4,4,452,1,1,452,1,0,1.2,0.6,-1.97070231059559,-1.97070231059559,750,1,0,congruent,0.1,4545.03979797536,2495.2255957882
40,104,2,230,0.5,-0.5,0.5,3,2,0.6,3,591,1,1,591,0,0,1.4,NaN,-0.591006828574836,-0.591006828574836,750,0,0,incongruent,0,2166.35955817611,4864.86158347859
40,104,2,231,0.5,-0.5,-0.5,1,1,0.6,1,658,1,1,658,1,0,1.2,NaN,0.0740262454927203,0.0740262454927203,750,1,0,congruent,1,6289.58103953581,2325.45124148968
40,104,2,232,-0.5,-0.5,0,3,NaN,0.6,3,555,1,1,555,1,0,1.2,0.8,-0.948338032551434,-0.948338032551434,750,0,0,neutral,0.1,1962.71507082317,2954.91058594129
40,104,2,233,-0.5,-0.5,0.5,1,2,0.6,1,564,1,1,564,1,0,1,0.8,-0.859005231557285,-0.859005231557285,750,0,0,incongruent,0.1,4660.63743271746,2396.41073657285
40,104,2,234,-0.5,0.5,0,2,NaN,0.6,2,764,1,0,764,0,0,1,0.6,1.12616812386826,1.12616812386826,750,0,0,neutral,0,2076.54305718204,4533.3560479937
40,104,2,235,0.5,0.5,0.5,3,2,0.4,3,701,1,1,701,1,0,0.8,NaN,0.500838516909212,0.500838516909212,750,0,0,incongruent,1,6612.82852564722,2504.29238559668
40,104,2,236,-0.5,0.5,0.5,2,4,0.6,2,671,1,1,671,1,0,1.2,0.6,0.203062513595381,0.203062513595381,750,0,0,incongruent,0.1,1893.94700858225,2583.46430520466
40,104,2,237,0.5,-0.5,0.5,3,1,0.8,3,714,1,1,714,1,0,1,NaN,0.629874785011872,0.629874785011872,750,0,0,incongruent,1,1353.76791956116,4492.03371604522
40,104,2,238,-0.5,0.5,0.5,2,4,0.8,1,690,0,1,NaN,0,0,1.2,0.6,0.391653982360807,NaN,750,0,1,incongruent,0,3819.43418709898,1583.85358043362
40,104,2,239,0.5,0.5,-0.5,3,3,0.6,3,614,1,1,614,1,0,1,NaN,-0.362711892700899,-0.362711892700899,750,1,0,congruent,1,1693.40599280069,6350.30620376977
40,104,2,240,0.5,-0.5,-0.5,2,2,0.6,2,875,1,0,875,1,0,1.4,NaN,2.22793933612943,2.22793933612943,750,1,0,congruent,1,8252.77795775602,8055.81373884
40,104,2,241,0.5,0.5,-0.5,3,3,0.6,3,652,1,1,652,1,0,1.4,NaN,0.014471044829954,0.014471044829954,750,1,0,congruent,1,6001.97580060671,6060.56387302311
40,104,2,243,-0.5,0.5,0.5,3,2,0.8,3,731,1,1,731,1,0,1.2,0.4,0.798614520223043,0.798614520223043,750,0,0,incongruent,0.1,3775.58531068605,4833.54457084428
40,104,2,245,-0.5,-0.5,-0.5,3,3,0.8,3,588,1,1,588,1,0,1.4,0.8,-0.62078442890622,-0.62078442890622,750,1,0,congruent,0.1,3745.59824194591,1932.42063046456
40,104,2,247,0.5,0.5,0.5,3,2,0.8,3,579,1,1,579,1,0,1,NaN,-0.710117229900369,-0.710117229900369,750,0,0,incongruent,1,3767.94637517678,1677.81677544597
40,104,2,248,-0.5,-0.5,-0.5,4,4,0.8,4,505,1,1,505,0,0,1.4,0.8,-1.44463137140782,-1.44463137140782,750,1,0,congruent,0,2131.53824879861,1860.73717204738
40,104,2,249,-0.5,-0.5,0.5,1,3,0.8,1,703,1,1,703,1,0,1.2,0.6,0.520690250463467,0.520690250463467,750,0,0,incongruent,0.1,5633.17606040317,4307.75408976601
40,104,2,250,-0.5,0.5,0.5,3,4,0.8,3,732,1,1,732,1,0,1,0.6,0.808540387000171,0.808540387000171,750,0,0,incongruent,0.1,2386.61312450271,1923.00096581826
40,104,2,251,0.5,-0.5,-0.5,2,2,1,2,651,1,1,651,1,0,1,NaN,0.00454517805282629,0.00454517805282629,750,1,0,congruent,1,8302.35787299236,3347.05244494831
40,104,2,252,0.5,-0.5,0.5,3,1,1,3,706,1,1,706,1,0,1.2,NaN,0.55046785079485,0.55046785079485,750,0,0,incongruent,1,3264.29403782431,3106.50721982462
40,104,2,253,0.5,0.5,0.5,4,3,1,4,594,1,1,594,1,0,1.2,NaN,-0.561229228243453,-0.561229228243453,750,0,0,incongruent,1,4020.77520181383,1468.18312253583
40,104,2,254,-0.5,-0.5,0.5,2,4,1,2,629,1,1,629,1,0,1.6,0.6,-0.213823891043983,-0.213823891043983,750,0,0,incongruent,0.1,3323.86021600012,2854.23898648395
40,104,2,255,-0.5,0.5,0.5,3,1,1,3,762,1,0,762,0,0,1.6,0.6,1.106316390314,1.106316390314,750,0,0,incongruent,0,2407.67133790118,4268.89371010723
40,104,2,256,0.5,0.5,0,1,NaN,0.8,2,648,0,1,NaN,0,0,1.4,NaN,-0.0252324222785568,NaN,750,0,1,neutral,0,5196.79776232297,1587.28363001792
40,104,2,258,0.5,0.5,0.5,1,3,0.6,3,750,0,1,NaN,0,0,0.8,NaN,0.98720598898847,NaN,750,1,0,incongruent,0,2883.44425735606,3038.44607305715
40,104,2,259,-0.5,0.5,0,2,NaN,0.4,2,785,1,0,785,0,0,0.4,0.6,1.33461132618794,1.33461132618794,750,0,0,neutral,0,2523.95748226474,2816.2421377786
40,104,2,260,-0.5,-0.5,0.5,1,3,0.2,1,582,1,1,582,0,0,0.2,0.8,-0.680339629568986,-0.680339629568986,750,0,0,incongruent,0,2302.08995031483,2965.06494932193
40,104,2,261,0.5,0.5,0.5,3,1,0.2,3,616,1,1,616,1,0,0.2,NaN,-0.342860159146644,-0.342860159146644,750,0,0,incongruent,1,3027.92005124265,3921.5595215738
40,104,2,262,-0.5,-0.5,-0.5,2,2,0.4,2,646,1,1,646,0,0,0.6,0.6,-0.0450841558328123,-0.0450841558328123,750,1,0,congruent,0,2898.88284588063,4635.47954067854
40,104,2,263,-0.5,-0.5,0.5,4,1,0.4,3,537,0,1,NaN,0,0,0.4,0.4,-1.12700363453973,NaN,750,0,1,incongruent,0,5779.99060654622,1588.10693186719
40,104,2,264,-0.5,0.5,0,2,NaN,0.4,2,677,1,1,677,1,0,0.4,0.6,0.262617714258147,0.262617714258147,750,0,0,neutral,0.1,2555.63666018879,2636.78067339035
40,104,2,265,0.5,0.5,-0.5,3,3,0.6,3,643,1,1,643,1,0,0.6,NaN,-0.0748617561641954,-0.0748617561641954,750,1,0,congruent,1,1832.02753704098,2617.16824205012
40,104,2,266,0.5,0.5,0.5,2,1,0.6,2,631,1,1,631,1,0,1,NaN,-0.193972157489728,-0.193972157489728,750,0,0,incongruent,1,2023.45334583366,4585.78731510242
40,104,2,267,-0.5,0.5,0,3,NaN,0.8,3,661,1,1,661,1,0,1,0.6,0.103803845824103,0.103803845824103,750,0,0,neutral,0.1,2002.36927029731,490.426382607778
40,104,2,269,-0.5,0.5,0,3,NaN,1,3,706,1,1,706,1,0,1.4,0.8,0.55046785079485,0.55046785079485,750,0,0,neutral,0.1,1692.07446074715,3577.42662257725
40,104,2,270,-0.5,0.5,-0.5,4,4,1,4,581,1,1,581,1,0,1.4,0.8,-0.690265496346114,-0.690265496346114,750,1,0,congruent,0.1,1817.01906387005,1146.06319619187
40,104,2,271,0.5,-0.5,0,1,NaN,1,2,550,0,1,NaN,1,0,1.2,NaN,-0.997967366437073,NaN,750,0,1,neutral,1,5145.74790222582,3473.59812286802
40,104,2,272,-0.5,0.5,0.5,3,2,1,4,752,0,0,NaN,0,0,1.2,1,1.00705772254273,NaN,750,0,1,incongruent,0,2797.75466531617,1583.2035034334
40,104,2,273,-0.5,0.5,-0.5,1,1,0.8,1,632,1,1,632,1,0,1,0.8,-0.1840462907126,-0.1840462907126,750,1,0,congruent,0.1,1106.91891578,4644.10536265868
40,104,2,274,-0.5,0.5,0,3,NaN,0.8,3,622,1,1,622,1,0,1,0.8,-0.283304958483877,-0.283304958483877,750,0,0,neutral,0.1,3617.80806331716,3575.41265911706
40,104,2,275,-0.5,0.5,-0.5,4,4,0.8,4,635,1,1,635,1,0,1,0.8,-0.154268690381217,-0.154268690381217,750,1,0,congruent,0.1,3272.38268391625,2315.80074199323
40,104,2,276,0.5,-0.5,-0.5,2,2,0.8,2,635,1,1,635,1,0,1,NaN,-0.154268690381217,-0.154268690381217,750,1,0,congruent,1,3896.69236472599,4701.21013165387
40,104,2,277,-0.5,-0.5,0.5,4,1,0.8,4,710,1,1,710,1,0,1,0.4,0.590171317903361,0.590171317903361,750,0,0,incongruent,0.1,2988.19184226074,5068.58091287751
40,104,2,278,-0.5,0.5,0.5,2,4,0.8,2,809,1,0,809,0,0,1.2,0.8,1.572832128839,1.572832128839,750,0,0,incongruent,0,4165.01319267062,2270.96834303206
40,104,2,279,-0.5,0.5,0.5,4,2,0.6,4,579,1,1,579,1,0,1,0.6,-0.710117229900369,-0.710117229900369,750,0,0,incongruent,0.1,1419.41613378668,2527.86161564515
40,104,2,280,-0.5,-0.5,0,3,NaN,0.8,3,595,1,1,595,0,0,1,0.4,-0.551303361466326,-0.551303361466326,750,0,0,neutral,0,4414.33012208219,2736.29135683658
40,104,2,281,0.5,-0.5,-0.5,2,2,0.8,2,624,1,1,624,0,0,0.8,NaN,-0.263453224929622,-0.263453224929622,750,1,0,congruent,0,3449.94160919188,9656.72245483055
40,104,2,283,-0.5,-0.5,0.5,3,4,0.8,2,671,0,1,NaN,0,0,0.6,0.2,0.203062513595381,NaN,750,0,1,incongruent,0,1778.6563626558,1198.79455687282
40,104,2,284,-0.5,-0.5,0.5,2,1,0.8,2,646,1,1,646,1,0,0.6,0.2,-0.0450841558328123,-0.0450841558328123,750,0,0,incongruent,0.1,1295.48988710338,4370.12820338275
40,104,2,286,0.5,0.5,0.5,2,3,0.8,1,688,0,1,NaN,0,0,1,NaN,0.371802248806552,NaN,750,0,1,incongruent,0,1021.8443719442,4313.90788728274
40,104,2,287,0.5,0.5,-0.5,1,1,0.6,1,685,1,1,685,1,0,1,NaN,0.342024648475169,0.342024648475169,750,1,0,congruent,1,968.307150686136,4066.98628871474
40,104,2,289,-0.5,-0.5,0,2,NaN,0.6,2,623,1,1,623,1,0,1.2,0.6,-0.27337909170675,-0.27337909170675,750,0,0,neutral,0.1,5835.62991010222,8888.51651440624
40,104,2,290,-0.5,0.5,0.5,4,2,0.6,4,606,1,1,606,1,0,1.2,0.8,-0.442118826917921,-0.442118826917921,750,0,0,incongruent,0.1,1228.13580692585,1878.98086993159
40,104,2,291,-0.5,-0.5,0,2,NaN,0.8,2,627,1,1,627,0,0,1,0.6,-0.233675624598239,-0.233675624598239,750,0,0,neutral,0,3114.98653665265,6184.89934825051
40,104,2,294,0.5,0.5,-0.5,2,2,0.8,2,659,1,1,659,1,0,0.8,NaN,0.083952112269848,0.083952112269848,750,1,0,congruent,1,2385.72695764823,2538.98531170113
40,104,2,297,0.5,-0.5,0.5,4,3,0.8,4,595,1,1,595,1,0,1.4,NaN,-0.551303361466326,-0.551303361466326,750,0,0,incongruent,1,3795.08874659591,2640.82766038465
40,104,2,298,0.5,0.5,-0.5,1,1,0.8,1,646,1,1,646,1,0,1.6,NaN,-0.0450841558328123,-0.0450841558328123,750,1,0,congruent,1,6817.15260964842,1123.46567181899
40,104,2,299,-0.5,-0.5,0,4,NaN,1,4,573,1,1,573,1,0,1.8,0.8,-0.769672430563135,-0.769672430563135,750,0,0,neutral,0.1,2547.02020419589,5022.64996444674
40,104,2,300,-0.5,-0.5,-0.5,3,3,1,3,589,1,1,589,1,0,1.6,0.8,-0.610858562129092,-0.610858562129092,750,1,0,congruent,0.1,1851.44149769511,2786.65919082029
40,104,3,301,-0.5,-0.5,0,2,NaN,1,4,667,0,1,NaN,1,0,1.4,1,0.16335904648687,NaN,750,0,1,neutral,0.1,946.586000990522,1055.91354656773
40,104,3,302,0.5,-0.5,-0.5,4,4,1,4,584,1,1,584,1,0,1.4,NaN,-0.66048789601473,-0.66048789601473,750,1,0,congruent,1,915.189173648766,7555.01457910981
40,104,3,303,0.5,0.5,-0.5,3,3,1,3,606,1,1,606,1,0,1.4,NaN,-0.442118826917921,-0.442118826917921,750,1,0,congruent,1,2613.24434377162,2944.55096746018
40,104,3,304,0.5,0.5,0.5,1,4,1,1,711,1,1,711,1,0,1.4,NaN,0.600097184680489,0.600097184680489,750,0,0,incongruent,1,12790.9228759369,2771.52841307127
40,104,3,305,0.5,-0.5,0,2,NaN,1,2,651,1,1,651,1,0,1.6,NaN,0.00454517805282629,0.00454517805282629,750,0,0,neutral,1,15260.2015944085,1037.98135842742
40,104,3,306,0.5,-0.5,-0.5,3,3,1,3,579,1,1,579,1,0,1.8,NaN,-0.710117229900369,-0.710117229900369,750,1,0,congruent,1,7738.34449771925,2761.12543589805
40,104,3,308,0.5,0.5,-0.5,4,4,1,4,553,1,1,553,1,0,2,NaN,-0.968189766105689,-0.968189766105689,750,1,0,congruent,1,894.099005962845,1790.84883109928
40,104,3,309,-0.5,0.5,-0.5,1,1,1,1,628,1,1,628,1,0,2,0.8,-0.223749757821111,-0.223749757821111,750,1,0,congruent,0.1,1040.37125269512,5585.63227009122
40,104,3,310,-0.5,-0.5,0,4,NaN,1,4,560,1,1,560,1,0,1.8,1,-0.898708698665796,-0.898708698665796,750,0,0,neutral,0.1,3112.85883351156,2048.23060929285
40,104,3,311,0.5,0.5,-0.5,2,2,1,2,747,1,1,747,1,0,1.6,NaN,0.957428388657087,0.957428388657087,750,1,0,congruent,1,4572.36470570602,4328.85751831669
40,104,3,312,0.5,-0.5,0,4,NaN,1,4,644,1,1,644,1,0,1.6,NaN,-0.0649358893870677,-0.0649358893870677,750,0,0,neutral,1,3361.70787689183,5141.68803926278
40,104,3,313,-0.5,0.5,0.5,2,4,1,2,813,1,0,813,0,0,1.6,0.8,1.61253559594752,1.61253559594752,750,0,0,incongruent,0,1760.50084503155,1573.47445538769
40,104,3,314,0.5,-0.5,0,3,NaN,0.8,3,701,1,1,701,0,0,1.2,NaN,0.500838516909212,0.500838516909212,750,0,0,neutral,0,6187.29410117022,2200.80221310567
40,104,3,315,-0.5,0.5,-0.5,2,2,0.8,2,583,1,1,583,1,0,1,0.6,-0.670413762791858,-0.670413762791858,750,1,0,congruent,0.1,1977.60646720253,5349.82665858933
40,104,3,316,-0.5,-0.5,0.5,3,4,0.8,3,684,1,1,684,1,0,1,1,0.332098781698041,0.332098781698041,750,0,0,incongruent,0.1,2724.82522638912,3327.12388107026
40,104,3,318,-0.5,0.5,0.5,2,3,0.8,2,729,1,1,729,1,0,0.8,0.8,0.778762786668788,0.778762786668788,750,0,0,incongruent,0.1,739.061490628055,2556.98354420368
40,104,3,319,0.5,0.5,-0.5,4,4,0.8,4,539,1,1,539,1,0,1,NaN,-1.10715190098548,-1.10715190098548,750,1,0,congruent,1,3343.36203006901,1789.19258638745
40,104,3,321,-0.5,0.5,0,3,NaN,0.8,3,672,1,1,672,1,0,1.6,0.8,0.212988380372508,0.212988380372508,750,0,0,neutral,0.1,3915.64088058336,2223.20320376684
40,104,3,322,-0.5,0.5,-0.5,4,4,1,4,500,1,1,500,1,0,1.6,0.8,-1.49426070529346,-1.49426070529346,750,1,0,congruent,0.1,4560.31040838291,2532.19673849991
40,104,3,323,0.5,-0.5,0,1,NaN,1,3,725,0,1,NaN,1,0,1.4,NaN,0.739059319560277,NaN,750,0,1,neutral,1,512.767212425116,5244.08861552014
40,104,3,324,-0.5,-0.5,-0.5,3,3,1,3,611,1,1,611,1,0,1.6,1,-0.392489493032282,-0.392489493032282,750,1,0,congruent,0.1,1431.5463417091,4020.5553340583
40,104,3,326,0.5,0.5,-0.5,4,4,1,4,632,1,1,632,1,0,1.2,NaN,-0.1840462907126,-0.1840462907126,750,1,0,congruent,1,2776.49477282736,2001.23861997732
40,104,3,327,-0.5,-0.5,0.5,1,2,1,2,697,0,1,NaN,1,0,1.4,1,0.461135049800701,NaN,750,1,0,incongruent,0.1,987.67836399851,1551.20095359791
40,104,3,330,-0.5,-0.5,0.5,1,2,0.8,1,687,1,1,687,1,0,1,1,0.361876382029424,0.361876382029424,750,0,0,incongruent,0.1,3495.62816100593,1092.24187500838
40,104,3,331,0.5,-0.5,-0.5,4,4,0.8,4,560,1,1,560,1,0,1,NaN,-0.898708698665796,-0.898708698665796,750,1,0,congruent,1,554.988026629722,2246.07155757515
40,104,3,332,0.5,0.5,0.5,1,3,0.8,2,681,0,1,NaN,0,0,1,NaN,0.302321181366658,NaN,750,0,1,incongruent,0,5003.43535535811,2161.24993436204
40,104,3,333,0.5,-0.5,-0.5,2,2,0.6,2,670,1,1,670,1,0,0.8,NaN,0.193136646818253,0.193136646818253,750,1,0,congruent,1,1789.05081408716,1540.46377992142
40,104,3,334,0.5,-0.5,0,4,NaN,0.6,4,567,1,1,567,0,0,1,NaN,-0.829227631225901,-0.829227631225901,750,0,0,neutral,0,1792.69149727007,2453.62203251485
40,104,3,335,0.5,-0.5,0.5,3,4,0.6,3,815,1,0,815,0,0,1,NaN,1.63238732950177,1.63238732950177,750,0,0,incongruent,0,3097.67723892578,5611.2030665748
40,104,3,336,0.5,0.5,-0.5,1,1,0.6,2,620,0,1,NaN,0,0,0.8,NaN,-0.303156692038133,NaN,750,0,1,congruent,0,3551.49070902051,1312.02608540286
40,104,3,337,0.5,-0.5,0,4,NaN,0.4,4,576,1,1,576,1,0,0.4,NaN,-0.739894830231752,-0.739894830231752,750,0,0,neutral,1,2899.95383465579,3480.50649825776
40,104,3,338,-0.5,0.5,0.5,3,1,0.4,3,918,1,0,918,0,0,0.8,0.8,2.65475160754593,2.65475160754593,750,0,0,incongruent,0,4150.83689172583,4276.0044718162
40,104,3,339,-0.5,0.5,0,2,NaN,0.2,2,620,1,1,620,1,0,0.4,0.6,-0.303156692038133,-0.303156692038133,750,0,0,neutral,0.1,2990.72714197051,3144.59163479032
40,104,3,341,0.5,-0.5,0,3,NaN,0.2,2,633,0,1,NaN,0,0,0.6,NaN,-0.174120423935473,NaN,750,0,1,neutral,0,3064.45370274364,7257.22940471534
40,104,3,343,-0.5,0.5,0,1,NaN,0.4,1,659,1,1,659,1,0,0.4,0.6,0.083952112269848,0.083952112269848,750,0,0,neutral,0.1,1969.84139802087,3189.79320037913
40,104,3,344,0.5,0.5,0.5,4,2,0.6,4,586,1,1,586,1,0,0.6,NaN,-0.640636162460475,-0.640636162460475,750,0,0,incongruent,1,3769.46073400854,5078.47091398751
40,104,3,345,-0.5,-0.5,0,2,NaN,0.8,1,622,0,1,NaN,1,0,0.8,1,-0.283304958483877,NaN,750,0,1,neutral,0.1,2702.04214950917,815.640313380091
40,104,3,346,0.5,-0.5,-0.5,1,1,0.8,1,586,1,1,586,1,0,1,NaN,-0.640636162460475,-0.640636162460475,750,1,0,congruent,1,2831.93716915071,6537.41783624611
40,104,3,347,-0.5,0.5,0,2,NaN,0.8,2,669,1,1,669,1,0,1.4,0.6,0.183210780041125,0.183210780041125,750,0,0,neutral,0.1,7712.38151521862,874.315388276087
40,104,3,348,-0.5,-0.5,0.5,1,2,0.8,1,589,1,1,589,0,0,1.4,1,-0.610858562129092,-0.610858562129092,750,0,0,incongruent,0,1899.15947707675,4352.55924469733
40,104,3,349,-0.5,0.5,0,2,NaN,0.8,2,523,1,1,523,1,0,1.2,0.8,-1.26596576941952,-1.26596576941952,750,0,0,neutral,0.1,1823.71669572374,2870.98463478658
40,104,3,350,-0.5,0.5,-0.5,1,1,1,1,671,1,1,671,1,0,1,1,0.203062513595381,0.203062513595381,750,1,0,congruent,0.1,9523.15454361369,1695.14771534563
40,104,3,351,-0.5,-0.5,-0.5,4,4,1,4,486,1,1,486,1,0,1,0.8,-1.63322284017325,-1.63322284017325,750,1,0,congruent,0.1,2766.7144403619,1198.70385161152
40,104,3,352,-0.5,-0.5,0.5,3,1,1,3,788,1,0,788,1,0,0.8,0.8,1.36438892651932,1.36438892651932,750,0,0,incongruent,0.1,3001.07734370064,2399.7254616159
40,104,3,353,-0.5,-0.5,0,4,NaN,1,4,617,1,1,617,1,0,0.8,0.8,-0.332934292369516,-0.332934292369516,750,0,0,neutral,0.1,1547.32944922333,1980.88684707845
40,104,3,354,0.5,0.5,-0.5,2,2,1,2,599,1,1,599,1,0,1,NaN,-0.511599894357815,-0.511599894357815,750,1,0,congruent,1,8426.75679329682,4610.31772006774
40,104,3,355,0.5,0.5,0.5,1,3,1,1,662,1,1,662,1,0,1.2,NaN,0.113729712601231,0.113729712601231,750,0,0,incongruent,1,5131.63566305044,2212.16479476134
40,104,3,356,-0.5,-0.5,-0.5,2,2,1,2,581,1,1,581,1,0,1.4,0.8,-0.690265496346114,-0.690265496346114,750,1,0,congruent,0.1,2307.29737977862,2417.28202142552
40,104,3,357,0.5,0.5,0.5,3,4,1,3,659,1,1,659,1,0,1.4,NaN,0.083952112269848,0.083952112269848,750,0,0,incongruent,1,2397.04851549014,1343.76389206372
40,104,3,359,0.5,0.5,0,3,NaN,0.8,3,693,1,1,693,1,0,1.4,NaN,0.42143158269219,0.42143158269219,750,0,0,neutral,1,5195.67193749896,2847.00532750593
40,104,3,360,0.5,-0.5,-0.5,1,1,0.8,1,574,1,1,574,0,0,1.4,NaN,-0.759746563786007,-0.759746563786007,750,1,0,congruent,0,4434.35400195309,2349.95206960417
40,104,3,362,0.5,0.5,0,4,NaN,0.8,4,611,1,1,611,1,0,1.2,NaN,-0.392489493032282,-0.392489493032282,750,0,0,neutral,1,2807.25970460734,2694.87901275617
40,104,3,363,0.5,0.5,-0.5,3,3,0.8,3,594,1,1,594,1,0,1.2,NaN,-0.561229228243453,-0.561229228243453,750,1,0,congruent,1,4695.796868287,5468.1339355908
40,104,3,364,-0.5,-0.5,0.5,4,2,0.8,4,739,1,1,739,1,0,1.6,0.8,0.878021454440065,0.878021454440065,750,0,0,incongruent,0.1,4647.56653777174,2266.57708641937
40,104,3,366,0.5,-0.5,-0.5,4,4,0.8,4,518,1,1,518,1,0,1.8,NaN,-1.31559510330516,-1.31559510330516,750,1,0,congruent,1,2367.97926066246,882.95452196741
40,104,3,369,0.5,0.5,0.5,2,1,1,2,664,1,1,664,1,0,1.8,NaN,0.133581446155487,0.133581446155487,750,0,0,incongruent,1,5751.71046216548,761.063357786717
40,104,3,370,-0.5,-0.5,0.5,4,2,1,4,820,1,0,820,1,0,2,1,1.68201666338741,1.68201666338741,750,0,0,incongruent,0.1,2441.94674799486,4235.81993550387
40,104,3,371,0.5,0.5,0.5,1,4,1,1,807,1,0,807,0,0,1.8,NaN,1.55298039528475,1.55298039528475,750,0,0,incongruent,0,354.904479852098,5227.52317638999
40,104,3,372,-0.5,0.5,0.5,4,1,0.8,4,672,1,1,672,1,0,1.4,1,0.212988380372508,0.212988380372508,750,0,0,incongruent,0.1,1971.58235559598,3072.74536973312
40,104,3,373,0.5,0.5,0.5,2,3,0.8,2,963,1,0,963,0,0,1.2,NaN,3.10141561251667,3.10141561251667,750,0,0,incongruent,0,3287.62135561348,4099.22815836684
40,104,3,374,-0.5,0.5,0,1,NaN,0.6,1,637,1,1,637,1,0,0.8,1,-0.134416956826962,-0.134416956826962,750,0,0,neutral,0.1,2522.03887557712,2391.81676804987
40,104,3,376,-0.5,-0.5,0,1,NaN,0.6,1,650,1,1,650,1,0,0.8,1,-0.00538068872430143,-0.00538068872430143,750,0,0,neutral,0.1,1501.50523239112,2988.53937828886
40,104,3,377,0.5,0.5,0.5,4,3,0.6,4,691,1,1,691,1,0,1,NaN,0.401579849137935,0.401579849137935,750,0,0,incongruent,1,1345.85029790895,5083.13921596185
40,104,3,379,0.5,-0.5,0,1,NaN,0.6,1,684,1,1,684,1,0,1.2,NaN,0.332098781698041,0.332098781698041,750,0,0,neutral,1,7362.2559921089,2459.34606886651
40,104,3,380,-0.5,-0.5,0.5,3,2,0.6,3,605,1,1,605,1,0,1.4,1,-0.452044693695048,-0.452044693695048,750,0,0,incongruent,0.1,1847.48112680931,407.636521489547
40,104,3,381,-0.5,0.5,0.5,4,3,0.6,4,456,1,1,456,1,0,1.2,1,-1.93099884348708,-1.93099884348708,750,0,0,incongruent,0.1,2119.63965974766,2214.5831868886
40,104,3,382,0.5,-0.5,0,2,NaN,0.8,2,678,1,1,678,1,0,1.2,NaN,0.272543581035274,0.272543581035274,750,0,0,neutral,1,3712.71587722667,4851.27199592422
40,104,3,383,0.5,0.5,-0.5,4,4,0.8,4,495,1,1,495,1,0,1.2,NaN,-1.5438900391791,-1.5438900391791,750,1,0,congruent,1,3049.00442054478,9769.92690564267
40,104,3,384,-0.5,-0.5,0,2,NaN,0.8,2,662,1,1,662,1,0,1.6,1,0.113729712601231,0.113729712601231,750,0,0,neutral,0.1,604.032528180468,3423.37733851859
40,104,3,385,0.5,-0.5,0.5,4,3,0.8,4,522,1,1,522,0,0,1.4,NaN,-1.27589163619665,-1.27589163619665,750,0,0,incongruent,0,1366.78527112723,5954.82676489986
40,104,3,386,-0.5,0.5,0,1,NaN,0.8,2,677,0,1,NaN,0,0,1.2,1,0.262617714258147,NaN,750,0,1,neutral,0,1846.14824305986,3504.15814724638
40,104,3,387,-0.5,-0.5,0.5,4,3,0.8,4,475,1,1,475,1,0,1,1,-1.74240737472165,-1.74240737472165,750,0,0,incongruent,0.1,4218.54555948278,4221.09064154146
40,104,3,388,-0.5,0.5,-0.5,2,2,0.8,2,774,1,0,774,0,0,0.8,0.8,1.22542679163953,1.22542679163953,750,1,0,congruent,0,4442.67225544138,13575.618428782
40,104,3,389,0.5,0.5,0,1,NaN,0.6,1,708,1,1,708,1,0,0.4,NaN,0.570319584349106,0.570319584349106,750,0,0,neutral,1,7305.26932362937,2803.95342839456
40,104,3,390,0.5,0.5,-0.5,3,3,0.6,3,755,1,0,755,0,0,0.6,NaN,1.03683532287411,1.03683532287411,750,1,0,congruent,0,1312.82928785827,6906.8243360774
40,104,3,393,-0.5,-0.5,-0.5,3,3,0.4,3,642,1,1,642,0,0,0.8,1,-0.0847876229413231,-0.0847876229413231,750,1,0,congruent,0,2694.11976079093,4186.42219322606
40,104,3,394,0.5,-0.5,0,4,NaN,0.4,4,476,1,1,476,1,0,0.8,NaN,-1.73248150794452,-1.73248150794452,750,0,0,neutral,1,4968.24474972645,2014.12137180822
40,104,3,395,-0.5,0.5,-0.5,3,3,0.4,3,530,1,1,530,1,0,0.8,0.6,-1.19648470197963,-1.19648470197963,750,1,0,congruent,0.1,3906.01508160426,1779.76636740484
40,104,3,396,0.5,0.5,0.5,4,1,0.6,4,568,1,1,568,1,0,1,NaN,-0.819301764448774,-0.819301764448774,750,0,0,incongruent,1,2699.94485968432,723.10533116237
40,104,3,397,-0.5,0.5,0.5,1,3,0.8,1,785,1,0,785,0,0,1.4,0.6,1.33461132618794,1.33461132618794,750,0,0,incongruent,0,1594.69765064475,2153.53447431799
40,104,3,398,-0.5,0.5,0,2,NaN,0.6,2,696,1,1,696,1,0,1,0.4,0.451209183023573,0.451209183023573,750,0,0,neutral,0.1,3074.87537452636,5191.84507786527
40,104,3,399,-0.5,0.5,-0.5,1,1,0.8,1,764,1,0,764,0,0,1.2,0.4,1.12616812386826,1.12616812386826,750,1,0,congruent,0,2834.35705324764,4096.92235432764
40,104,3,400,0.5,-0.5,0,2,NaN,0.6,2,587,1,1,587,0,0,0.8,NaN,-0.630710295683347,-0.630710295683347,750,0,0,neutral,0,7772.48761687348,4878.5252333501
40,104,3,401,0.5,0.5,0.5,1,4,0.6,1,850,1,0,850,0,0,0.6,NaN,1.97979266670124,1.97979266670124,750,0,0,incongruent,0,1509.43514940923,5954.08355655263
40,104,3,402,0.5,-0.5,0.5,4,2,0.4,4,604,1,1,604,1,0,0.2,NaN,-0.461970560472176,-0.461970560472176,750,0,0,incongruent,1,7616.33307067267,946.553444108673
40,104,3,403,-0.5,-0.5,-0.5,1,1,0.4,1,603,1,1,603,0,0,0.6,0.8,-0.471896427249304,-0.471896427249304,750,1,0,congruent,0,6689.58909500942,1538.4232906204
40,104,3,404,0.5,-0.5,-0.5,2,2,0.4,2,568,1,1,568,1,0,0.4,NaN,-0.819301764448774,-0.819301764448774,750,1,0,congruent,1,1911.81421868185,4786.58713314155
40,104,3,406,-0.5,-0.5,-0.5,1,1,0.4,1,626,1,1,626,0,0,1.2,0.6,-0.243601491375366,-0.243601491375366,750,1,0,congruent,0,4849.26283577925,6872.60043626112
40,104,3,407,-0.5,0.5,-0.5,2,2,0.4,2,597,1,1,597,1,0,1.2,0.4,-0.53145162791207,-0.53145162791207,750,1,0,congruent,0.1,1783.5018747694,2084.99249904225
40,104,3,408,0.5,0.5,-0.5,3,3,0.4,3,714,1,1,714,1,0,1,NaN,0.629874785011872,0.629874785011872,750,1,0,congruent,1,4874.69453939165,11043.4158364767
40,104,3,409,0.5,-0.5,-0.5,2,2,0.6,2,624,1,1,624,1,0,1.4,NaN,-0.263453224929622,-0.263453224929622,750,1,0,congruent,1,4401.98830478135,3255.75002491803
40,104,3,410,-0.5,0.5,0,1,NaN,0.6,1,678,1,1,678,1,0,1.4,0.6,0.272543581035274,0.272543581035274,750,0,0,neutral,0.1,12396.4084165158,2693.48782869614
40,104,3,411,0.5,-0.5,-0.5,2,2,0.6,2,720,1,1,720,0,0,1.2,NaN,0.689429985674638,0.689429985674638,750,1,0,congruent,0,2950.4211335401,1500.3679979295
40,104,3,412,-0.5,0.5,0,1,NaN,0.6,1,561,1,1,561,1,0,1.2,0.6,-0.888782831888668,-0.888782831888668,750,0,0,neutral,0.1,3013.02026156217,2220.41872824478
40,104,3,413,-0.5,-0.5,-0.5,2,2,0.8,2,598,1,1,598,0,0,1.2,0.4,-0.521525761134942,-0.521525761134942,750,1,0,congruent,0,1282.35542013328,7398.79899438209
40,104,3,414,0.5,0.5,0,4,NaN,0.8,4,521,1,1,521,1,0,0.8,NaN,-1.28581750297378,-1.28581750297378,750,0,0,neutral,1,6807.59419023722,2653.16390801978
40,104,3,415,-0.5,0.5,-0.5,2,2,1,2,767,1,0,767,0,0,0.8,0.8,1.15594572419964,1.15594572419964,750,1,0,congruent,0,12240.1942208301,2107.65559352189
40,104,3,416,0.5,0.5,0,3,NaN,0.8,3,664,1,1,664,1,0,0.6,NaN,0.133581446155487,0.133581446155487,750,0,0,neutral,1,5590.34074573799,21746.426470896
40,104,3,417,-0.5,-0.5,0.5,4,2,0.8,4,533,1,1,533,1,0,1,0.2,-1.16670710164824,-1.16670710164824,750,0,0,incongruent,0.1,1577.92294555184,3230.80619154788
40,104,3,418,0.5,0.5,-0.5,3,3,0.8,3,582,1,1,582,1,0,1,NaN,-0.680339629568986,-0.680339629568986,750,1,0,congruent,1,2149.88813555264,5762.44140911388
40,104,3,419,0.5,-0.5,-0.5,4,4,0.8,4,589,1,1,589,1,0,1.4,NaN,-0.610858562129092,-0.610858562129092,750,1,0,congruent,1,7205.56284897272,4666.44982744005
40,104,3,420,0.5,0.5,-0.5,2,2,0.8,2,757,1,0,757,0,0,1.4,NaN,1.05668705642836,1.05668705642836,750,1,0,congruent,0,5305.9715395885,10200.9767311129
40,104,3,421,0.5,0.5,-0.5,4,4,0.6,4,636,1,1,636,1,0,1.4,NaN,-0.144342823604089,-0.144342823604089,750,1,0,congruent,1,1979.01113768834,3429.05940850984
40,104,3,422,-0.5,0.5,0,3,NaN,0.6,3,861,1,0,861,0,0,1.4,0.6,2.08897720124965,2.08897720124965,750,0,0,neutral,0,9585.04979063781,3076.10123106072
40,104,3,423,0.5,0.5,-0.5,1,1,0.6,1,633,1,1,633,1,0,1.2,NaN,-0.174120423935473,-0.174120423935473,750,1,0,congruent,1,3567.96038107175,6812.20692872149
40,104,3,424,0.5,0.5,-0.5,2,2,0.6,2,574,1,1,574,1,0,1.2,NaN,-0.759746563786007,-0.759746563786007,750,1,0,congruent,1,10547.3921834737,5952.00074979185
40,104,3,425,-0.5,0.5,-0.5,3,3,0.6,3,535,1,1,535,1,0,1.2,0.6,-1.14685536809399,-1.14685536809399,750,1,0,congruent,0.1,1805.98978698904,720.168359903933
40,104,3,426,0.5,0.5,-0.5,2,2,0.8,2,640,1,1,640,1,0,1.4,NaN,-0.104639356495579,-0.104639356495579,750,1,0,congruent,1,2706.15011070455,1599.61411242138
40,104,3,427,0.5,0.5,0.5,1,3,0.8,2,702,0,1,NaN,0,0,1.4,NaN,0.51076438368634,NaN,750,0,1,incongruent,0,1319.96575544118,5294.00365049212
40,104,3,428,-0.5,-0.5,0.5,4,1,0.8,4,587,1,1,587,1,0,1.4,0.2,-0.630710295683347,-0.630710295683347,750,0,0,incongruent,0.1,1486.91715001758,5870.48031137982
40,104,3,429,-0.5,-0.5,0.5,2,4,0.8,3,982,0,0,NaN,1,0,1.2,0.4,3.2900070812821,NaN,750,0,1,incongruent,0.1,1966.48787929731,2062.39585365582
40,104,3,430,0.5,-0.5,-0.5,1,1,0.8,1,544,1,1,544,1,0,1,NaN,-1.05752256709984,-1.05752256709984,750,1,0,congruent,1,1479.51013010869,3594.27770945009
40,104,3,431,0.5,0.5,0,2,NaN,0.8,2,962,1,0,962,0,0,1.2,NaN,3.09148974573954,3.09148974573954,750,0,0,neutral,0,3778.37923852319,2902.59227430492
40,104,3,432,0.5,0.5,-0.5,4,4,0.6,4,707,1,1,707,1,0,0.8,NaN,0.560393717571978,0.560393717571978,750,1,0,congruent,1,824.737165343108,2713.36272370692
40,104,3,433,-0.5,-0.5,0.5,3,2,0.6,3,624,1,1,624,1,0,1.2,0.6,-0.263453224929622,-0.263453224929622,750,0,0,incongruent,0.1,4289.97642163992,1853.84920466866
40,104,3,434,-0.5,-0.5,-0.5,1,1,0.6,1,969,1,0,969,1,0,1.2,0.8,3.16097081317944,3.16097081317944,750,1,0,congruent,0.1,2698.38947893845,3126.21743120692
40,104,3,436,-0.5,-0.5,-0.5,4,4,0.6,4,480,1,1,480,1,0,0.8,0.8,-1.69277804083601,-1.69277804083601,750,1,0,congruent,0.1,10041.5924625613,2150.16798483906
40,104,3,437,-0.5,0.5,0.5,2,1,0.6,2,641,1,1,641,1,0,1,0.6,-0.0947134897184508,-0.0947134897184508,750,0,0,incongruent,0.1,7749.64161142355,4237.92088111256
40,104,3,438,0.5,-0.5,0,3,NaN,0.6,3,728,1,1,728,0,0,0.8,NaN,0.76883691989166,0.76883691989166,750,0,0,neutral,0,2117.30978711828,5781.09886231272
40,104,3,439,-0.5,0.5,-0.5,2,2,0.6,2,575,1,1,575,1,0,0.6,0.6,-0.74982069700888,-0.74982069700888,750,1,0,congruent,0.1,750.10341917305,3268.74836608341
40,104,3,440,-0.5,-0.5,0,3,NaN,0.6,3,632,1,1,632,1,0,0.6,0.8,-0.1840462907126,-0.1840462907126,750,0,0,neutral,0.1,11226.8287909424,2918.90072804318
40,104,3,442,0.5,-0.5,0.5,1,2,0.6,2,574,0,1,NaN,1,0,0.8,NaN,-0.759746563786007,NaN,750,1,0,incongruent,1,3393.38039694824,4773.92029538442
40,104,3,443,-0.5,-0.5,-0.5,4,4,0.6,4,482,1,1,482,0,0,1,0.8,-1.67292630728176,-1.67292630728176,750,1,0,congruent,0,1839.07113746396,4383.02331841384
40,104,3,444,-0.5,-0.5,-0.5,3,3,0.6,3,536,1,1,536,1,0,1,0.6,-1.13692950131686,-1.13692950131686,750,1,0,congruent,0.1,3004.01572436706,2603.16563924662
40,104,3,445,0.5,-0.5,0,2,NaN,0.6,2,624,1,1,624,1,0,1,NaN,-0.263453224929622,-0.263453224929622,750,0,0,neutral,1,8272.81898047332,3638.95885648381
40,104,3,446,-0.5,-0.5,0.5,3,4,0.6,3,590,1,1,590,0,0,1.2,0.8,-0.600932695351964,-0.600932695351964,750,0,0,incongruent,0,3546.13197077267,2157.219220018
40,104,3,447,-0.5,-0.5,0.5,1,3,0.6,1,669,1,1,669,0,0,1,0.6,0.183210780041125,0.183210780041125,750,0,0,incongruent,0,2543.08586491293,4925.09651915258
40,104,3,448,0.5,-0.5,0.5,2,4,0.6,2,701,1,1,701,1,0,0.6,NaN,0.500838516909212,0.500838516909212,750,0,0,incongruent,1,9313.24313510687,4241.34710229877
40,104,3,449,-0.5,0.5,-0.5,3,3,0.6,3,630,1,1,630,1,0,1,0.6,-0.203898024266856,-0.203898024266856,750,1,0,congruent,0.1,4214.16006971691,2168.17431750165
40,104,3,450,-0.5,0.5,-0.5,2,2,0.8,2,769,1,0,769,0,0,1,0.8,1.1757974577539,1.1757974577539,750,1,0,congruent,0,651.550453103665,5627.01495373226
40,104,4,451,-0.5,-0.5,-0.5,3,3,0.8,4,585,0,1,NaN,1,0,0.6,0.4,-0.650562029237603,NaN,750,0,1,congruent,0.1,1703.02806575141,2712.08430899073
40,104,4,452,0.5,0.5,0,2,NaN,0.8,2,705,1,1,705,1,0,0.8,NaN,0.540541984017723,0.540541984017723,750,0,0,neutral,1,5686.62385116937,2539.37578116544
40,104,4,453,-0.5,-0.5,-0.5,3,3,0.8,3,604,1,1,604,1,0,1.2,0.4,-0.461970560472176,-0.461970560472176,750,1,0,congruent,0.1,1172.50185155875,2264.24574039367
40,104,4,454,-0.5,0.5,-0.5,1,1,0.8,1,611,1,1,611,1,0,1,0.8,-0.392489493032282,-0.392489493032282,750,1,0,congruent,0.1,5778.02326149878,3619.24504822686
40,104,4,456,0.5,-0.5,-0.5,1,1,0.6,1,587,1,1,587,1,0,1,NaN,-0.630710295683347,-0.630710295683347,750,1,0,congruent,1,2584.21419538313,4195.96215046817
40,104,4,457,0.5,-0.5,0.5,2,4,0.6,2,587,1,1,587,1,0,1.2,NaN,-0.630710295683347,-0.630710295683347,750,0,0,incongruent,1,9550.2332125864,4836.02643355091
40,104,4,458,0.5,0.5,-0.5,3,3,0.6,3,627,1,1,627,1,0,1.2,NaN,-0.233675624598239,-0.233675624598239,750,1,0,congruent,1,2062.51924670585,847.034114021474
40,104,4,460,0.5,-0.5,0,1,NaN,0.8,1,665,1,1,665,1,0,1.6,NaN,0.143507312932614,0.143507312932614,750,0,0,neutral,1,3050.53326260576,5461.11029152891
40,104,4,461,0.5,0.5,0.5,4,3,0.8,4,594,1,1,594,1,0,2,NaN,-0.561229228243453,-0.561229228243453,750,0,0,incongruent,1,4697.20076539678,2868.77908490609
40,104,4,465,-0.5,-0.5,-0.5,3,3,1,3,589,1,1,589,1,0,1.8,0.6,-0.610858562129092,-0.610858562129092,750,1,0,congruent,0.1,5235.91754364631,1982.68940996049
40,104,4,466,-0.5,0.5,0,1,NaN,1,2,630,0,1,NaN,0,0,1.6,0.6,-0.203898024266856,NaN,750,0,1,neutral,0,12277.6846809676,2802.93405694635
40,104,4,467,-0.5,-0.5,-0.5,2,2,0.8,2,630,1,1,630,1,0,1.2,0.6,-0.203898024266856,-0.203898024266856,750,1,0,congruent,0.1,6174.78933915117,4388.54156078612
40,104,4,468,0.5,-0.5,-0.5,3,3,0.8,3,642,1,1,642,0,0,1.2,NaN,-0.0847876229413231,-0.0847876229413231,750,1,0,congruent,0,1594.16977095207,1948.89473180493
40,104,4,469,0.5,0.5,-0.5,4,4,0.8,4,514,1,1,514,1,0,0.8,NaN,-1.35529857041367,-1.35529857041367,750,1,0,congruent,1,5977.73351972579,3710.2519367329
40,104,4,470,-0.5,0.5,-0.5,3,3,0.8,3,511,1,1,511,1,0,0.8,0.4,-1.38507617074505,-1.38507617074505,750,1,0,congruent,0.1,2915.25440451883,2064.83583846654
40,104,4,472,0.5,-0.5,-0.5,4,4,0.8,4,475,1,1,475,1,0,1.2,NaN,-1.74240737472165,-1.74240737472165,750,1,0,congruent,1,2674.38259797365,4927.76794173766
40,104,4,473,0.5,0.5,-0.5,1,1,0.8,1,727,1,1,727,1,0,1.4,NaN,0.758911053114532,0.758911053114532,750,1,0,congruent,1,11098.8118310366,5400.10595504062
40,104,4,475,0.5,0.5,0.5,3,2,0.6,3,749,1,1,749,1,0,1.4,NaN,0.977280122211342,0.977280122211342,750,0,0,incongruent,1,2922.18805518925,11650.2875515605
40,104,4,476,-0.5,-0.5,0.5,4,3,0.8,4,548,1,1,548,0,0,1.6,0.8,-1.01781909999133,-1.01781909999133,750,0,0,incongruent,0,4493.16937413699,1649.63010938606
40,104,4,477,0.5,0.5,-0.5,1,1,0.8,2,694,0,1,NaN,0,0,1.2,NaN,0.431357449469318,NaN,750,0,1,congruent,0,2561.90384200311,2722.85956150095
40,104,4,478,0.5,0.5,0.5,2,4,0.6,2,711,1,1,711,1,0,0.8,NaN,0.600097184680489,0.600097184680489,750,0,0,incongruent,1,3350.78178848322,1107.1788883931
40,104,4,479,-0.5,0.5,0.5,3,1,0.6,3,646,1,1,646,1,0,0.8,0.6,-0.0450841558328123,-0.0450841558328123,750,0,0,incongruent,0.1,5703.00241085374,1148.36852603623
40,104,4,480,-0.5,0.5,-0.5,2,2,0.6,2,608,1,1,608,1,0,1,0.6,-0.422267093363665,-0.422267093363665,750,1,0,congruent,0.1,4650.39636827304,2023.70670029577
40,104,4,481,0.5,0.5,-0.5,4,4,0.8,4,521,1,1,521,1,0,0.8,NaN,-1.28581750297378,-1.28581750297378,750,1,0,congruent,1,1820.14612634535,892.141620671187
40,104,4,482,-0.5,0.5,0.5,3,1,0.8,3,669,1,1,669,1,0,1.2,0.8,0.183210780041125,0.183210780041125,750,0,0,incongruent,0.1,19497.4242796626,3676.62901475087
40,104,4,483,0.5,-0.5,0,4,NaN,1,4,508,1,1,508,1,0,1.4,NaN,-1.41485377107644,-1.41485377107644,750,0,0,neutral,1,5228.53451654234,4156.28805324164
40,104,4,485,0.5,-0.5,0,3,NaN,0.8,3,623,1,1,623,1,0,1.2,NaN,-0.27337909170675,-0.27337909170675,750,0,0,neutral,1,11959.300954561,2110.6825904681
40,104,4,489,0.5,0.5,0,1,NaN,0.8,1,707,1,1,707,1,0,1.2,NaN,0.560393717571978,0.560393717571978,750,0,0,neutral,1,2235.0308482955,3606.0583732362
40,104,4,490,-0.5,0.5,-0.5,3,3,0.8,3,652,1,1,652,1,0,1.6,1,0.014471044829954,0.014471044829954,750,1,0,congruent,0.1,3478.83526633317,4589.88971358784
40,104,4,492,-0.5,0.5,0.5,3,4,1,3,666,1,1,666,1,0,1.4,1,0.153433179709742,0.153433179709742,750,0,0,incongruent,0.1,1552.71312450614,1265.99763150019
40,104,4,493,0.5,-0.5,0,4,NaN,1,4,626,1,1,626,1,0,1.4,NaN,-0.243601491375366,-0.243601491375366,750,0,0,neutral,1,5572.37348128557,1394.08348817321
40,104,4,494,0.5,-0.5,0.5,1,2,1,2,663,0,1,NaN,1,0,1.4,NaN,0.123655579378359,NaN,750,1,0,incongruent,1,3205.02151598048,3450.01087418283
40,104,4,496,-0.5,0.5,0.5,2,1,1,2,788,1,0,788,0,0,1.6,1,1.36438892651932,1.36438892651932,750,0,0,incongruent,0,781.375022391297,3086.1554617238
40,104,4,497,0.5,0.5,-0.5,4,4,0.8,4,564,1,1,564,1,0,1.4,NaN,-0.859005231557285,-0.859005231557285,750,1,0,congruent,1,2126.98251901894,4029.17523479004
40,104,4,498,-0.5,-0.5,-0.5,2,2,0.8,2,668,1,1,668,1,0,1.6,0.8,0.173284913263997,0.173284913263997,750,1,0,congruent,0.1,2752.35174485288,1560.12227247227
40,104,4,499,-0.5,-0.5,0.5,1,3,0.8,3,662,0,1,NaN,1,0,1.4,0.8,0.113729712601231,NaN,750,1,0,incongruent,0.1,8014.79478243277,1714.79075508952
40,104,4,502,0.5,-0.5,0.5,1,4,0.6,1,735,1,1,735,0,0,1.2,NaN,0.838317987331554,0.838317987331554,750,0,0,incongruent,0,4444.54580924775,3212.63135390366
40,104,4,503,-0.5,-0.5,-0.5,2,2,0.6,2,740,1,1,740,1,0,0.8,0.8,0.887947321217193,0.887947321217193,750,1,0,congruent,0.1,1435.12730539851,2995.96058624535
40,104,4,505,0.5,0.5,0,2,NaN,0.6,2,609,1,1,609,1,0,1,NaN,-0.412341226586538,-0.412341226586538,750,0,0,neutral,1,1854.81217479343,1613.69991743249
40,104,4,506,0.5,0.5,-0.5,1,1,0.6,1,663,1,1,663,1,0,1,NaN,0.123655579378359,0.123655579378359,750,1,0,congruent,1,1056.26810749767,1317.10798047449
40,104,4,507,-0.5,-0.5,-0.5,3,3,0.8,3,734,1,1,734,1,0,1.4,0.8,0.828392120554426,0.828392120554426,750,1,0,congruent,0.1,1807.84900828753,2425.3733681946
40,104,4,508,-0.5,-0.5,0.5,1,2,0.8,2,904,0,0,NaN,0,0,1.6,1,2.51578947266614,NaN,750,1,0,incongruent,0,5425.08694695561,3119.84046562609
40,104,4,509,-0.5,0.5,0,3,NaN,0.8,3,727,1,1,727,1,0,1.4,0.6,0.758911053114532,0.758911053114532,750,0,0,neutral,0.1,2994.5171064404,1208.85363025893
40,104,4,510,0.5,0.5,-0.5,2,2,0.8,2,597,1,1,597,1,0,1.2,NaN,-0.53145162791207,-0.53145162791207,750,1,0,congruent,1,13361.8330379419,12178.3955268819
40,104,4,511,-0.5,0.5,-0.5,3,3,0.8,3,571,1,1,571,1,0,1.2,0.6,-0.789524164117391,-0.789524164117391,750,1,0,congruent,0.1,9156.19773743,925.244006411412
40,104,4,512,-0.5,0.5,-0.5,2,2,1,2,571,1,1,571,1,0,1,0.6,-0.789524164117391,-0.789524164117391,750,1,0,congruent,0.1,2205.45333463749,10278.2943424848
40,104,4,513,-0.5,0.5,0.5,1,3,1,3,854,0,0,NaN,0,0,1,0.6,2.01949613380975,NaN,750,1,0,incongruent,0,1344.47600007574,13373.7515259404
40,104,4,515,0.5,0.5,-0.5,3,3,0.8,3,701,1,1,701,1,0,1.2,NaN,0.500838516909212,0.500838516909212,750,1,0,congruent,1,4859.06934366855,2026.75718704569
40,104,4,516,-0.5,-0.5,0.5,2,4,0.8,2,660,1,1,660,0,0,1.2,0.8,0.0938779790469757,0.0938779790469757,750,0,0,incongruent,0,1918.70446545122,5354.29060172761
40,104,4,517,-0.5,0.5,0.5,4,3,0.8,4,435,1,1,435,1,0,1,0.6,-2.13944204580676,-2.13944204580676,750,0,0,incongruent,0.1,4265.31069642514,317.933566355807
40,104,4,518,0.5,0.5,0.5,3,1,0.8,2,749,0,1,NaN,0,0,1,NaN,0.977280122211342,NaN,750,0,1,incongruent,0,694.337487639266,2003.58196735209
40,104,4,521,0.5,0.5,-0.5,1,1,0.6,1,783,1,0,783,0,0,0.6,NaN,1.31475959263368,1.31475959263368,750,1,0,congruent,0,3348.85849944335,5304.75875589068
40,104,4,522,-0.5,0.5,0.5,4,2,0.6,4,700,1,1,700,1,0,0.6,0.8,0.490912650132084,0.490912650132084,750,0,0,incongruent,0.1,906.528592509271,7362.2214229128
40,104,4,523,-0.5,-0.5,0,3,NaN,0.6,3,655,1,1,655,1,0,0.6,0.6,0.0442486451613371,0.0442486451613371,750,0,0,neutral,0.1,9814.68879142594,1970.40576370546
40,104,4,524,0.5,-0.5,-0.5,4,4,0.6,4,547,1,1,547,0,0,0.8,NaN,-1.02774496676846,-1.02774496676846,750,1,0,congruent,0,3192.49849714579,3318.48878929762
40,104,4,526,0.5,0.5,-0.5,1,1,0.6,1,719,1,1,719,1,0,0.8,NaN,0.679504118897511,0.679504118897511,750,1,0,congruent,1,1820.10889291428,1359.93580763189
40,104,4,527,-0.5,-0.5,-0.5,2,2,0.8,2,654,1,1,654,1,0,1.2,0.6,0.0343227783842094,0.0343227783842094,750,1,0,congruent,0.1,1370.94705725492,2344.33329741127
40,104,4,528,-0.5,0.5,0,3,NaN,0.8,3,642,1,1,642,1,0,1.2,0.8,-0.0847876229413231,-0.0847876229413231,750,0,0,neutral,0.1,898.977039306506,1107.66723176334
40,104,4,529,0.5,0.5,0.5,2,3,0.8,1,841,0,0,NaN,0,0,1.2,NaN,1.89045986570709,NaN,750,0,1,incongruent,0,3812.27627199889,1921.0560170801
40,104,4,532,-0.5,-0.5,-0.5,2,2,0.8,2,799,1,0,799,1,0,1.2,0.6,1.47357346106773,1.47357346106773,750,1,0,congruent,0.1,1977.30810680608,2903.19087432045
40,104,4,533,-0.5,0.5,0.5,1,3,0.8,2,763,0,0,NaN,0,0,1.2,0.8,1.11624225709113,NaN,750,0,1,incongruent,0,7986.25808796201,6075.45523760275
40,104,4,534,-0.5,-0.5,0.5,3,4,0.6,3,712,1,1,712,0,0,1,0.6,0.610023051457617,0.610023051457617,750,0,0,incongruent,0,7955.97617475521,1813.07222097136
40,104,4,535,0.5,-0.5,0.5,1,2,0.6,2,713,0,1,NaN,0,0,1,NaN,0.619948918234744,NaN,750,1,0,incongruent,0,3005.10480514685,1008.56514626225
40,104,4,536,0.5,0.5,-0.5,4,4,0.6,4,590,1,1,590,1,0,0.6,NaN,-0.600932695351964,-0.600932695351964,750,1,0,congruent,1,1388.79586873336,5016.3673111187
40,104,4,538,0.5,-0.5,-0.5,2,2,0.6,2,604,1,1,604,1,0,0.6,NaN,-0.461970560472176,-0.461970560472176,750,1,0,congruent,1,4438.98303463057,3062.43170010109
40,104,4,539,0.5,0.5,0,1,NaN,0.6,2,676,0,1,NaN,0,0,1,NaN,0.252691847481019,NaN,750,0,1,neutral,0,3157.09669638929,1709.3849003985
40,104,4,542,0.5,0.5,-0.5,3,3,0.4,3,752,1,0,752,0,0,0.6,NaN,1.00705772254273,1.00705772254273,750,1,0,congruent,0,3244.16389175122,1767.43158144889
40,104,4,543,0.5,-0.5,0,4,NaN,0.4,4,548,1,1,548,0,0,0.4,NaN,-1.01781909999133,-1.01781909999133,750,0,0,neutral,0,5200.892080421,3489.11416294949
40,104,4,544,-0.5,0.5,0.5,1,2,0.4,1,698,1,1,698,1,0,0,0.8,0.471060916577829,0.471060916577829,750,0,0,incongruent,0.1,1400.45172325067,1285.01185151576
40,104,4,546,-0.5,0.5,0,3,NaN,0.6,3,577,1,1,577,1,0,0.6,0.8,-0.729968963454624,-0.729968963454624,750,0,0,neutral,0.1,992.810131230664,6157.88844587953
40,104,4,547,0.5,0.5,-0.5,2,2,0.6,2,906,1,0,906,0,0,0.8,NaN,2.53564120622039,2.53564120622039,750,1,0,congruent,0,2341.50119327175,2889.72838987805
40,104,4,548,-0.5,-0.5,0.5,3,4,0.4,3,639,1,1,639,1,0,0.8,0.4,-0.114565223272706,-0.114565223272706,750,0,0,incongruent,0.1,6250.96400082073,3113.19173531285
40,104,4,549,0.5,-0.5,0,1,NaN,0.4,1,687,1,1,687,1,0,1,NaN,0.361876382029424,0.361876382029424,750,0,0,neutral,1,11021.5522057583,2189.82954974757
40,104,4,550,0.5,-0.5,-0.5,2,2,0.4,2,589,1,1,589,0,0,1.2,NaN,-0.610858562129092,-0.610858562129092,750,1,0,congruent,0,1320.4297467235,5462.37717107842
40,104,4,551,0.5,-0.5,-0.5,1,1,0.4,2,765,0,0,NaN,1,0,0.8,NaN,1.13609399064539,NaN,750,0,1,congruent,1,2067.61895428978,5446.5098310418
40,104,4,553,-0.5,-0.5,0,1,NaN,0.4,1,642,1,1,642,1,0,1,0.4,-0.0847876229413231,-0.0847876229413231,750,0,0,neutral,0.1,1100.43119953633,2970.10182455554
40,104,4,554,-0.5,0.5,-0.5,4,4,0.4,4,582,1,1,582,1,0,1,0.8,-0.680339629568986,-0.680339629568986,750,1,0,congruent,0.1,1974.18275675114,1373.21135310908
40,104,4,555,0.5,-0.5,0.5,2,3,0.6,2,586,1,1,586,0,0,0.8,NaN,-0.640636162460475,-0.640636162460475,750,0,0,incongruent,0,2893.48534043248,1464.21503550583
40,104,4,556,0.5,0.5,-0.5,4,4,0.6,4,524,1,1,524,1,0,0.8,NaN,-1.25603990264239,-1.25603990264239,750,1,0,congruent,1,2554.90158307522,1101.85539350691
40,104,4,557,0.5,-0.5,0.5,1,3,0.8,2,626,0,1,NaN,1,0,0.8,NaN,-0.243601491375366,NaN,750,0,1,incongruent,1,6176.68059143954,6707.26128352939
40,104,4,560,-0.5,-0.5,0.5,2,3,0.6,2,759,1,0,759,1,0,0.8,0.4,1.07653878998262,1.07653878998262,750,0,0,incongruent,0.1,2810.32510224991,4177.63431992909
40,104,4,561,-0.5,-0.5,0,1,NaN,0.6,2,583,0,1,NaN,1,0,1,0.6,-0.670413762791858,NaN,750,0,1,neutral,0.1,2096.77327624432,2700.43651411999
40,104,4,562,-0.5,-0.5,-0.5,2,2,0.6,2,625,1,1,625,1,0,0.8,0.8,-0.253527358152494,-0.253527358152494,750,1,0,congruent,0.1,2237.8175470628,6119.78708390856
40,104,4,563,0.5,-0.5,0.5,3,1,0.6,3,602,1,1,602,1,0,0.6,NaN,-0.481822294026432,-0.481822294026432,750,0,0,incongruent,1,1471.50317533548,2262.82115683526
40,104,4,564,0.5,0.5,0,2,NaN,0.6,2,612,1,1,612,1,0,1,NaN,-0.382563626255154,-0.382563626255154,750,0,0,neutral,1,6656.22537825991,3479.36452535106
40,104,4,565,0.5,-0.5,-0.5,4,4,0.6,4,600,1,1,600,1,0,1.4,NaN,-0.501674027580687,-0.501674027580687,750,1,0,congruent,1,1983.57800312517,3570.18155627515
40,104,4,567,0.5,0.5,-0.5,4,4,0.6,4,509,1,1,509,1,0,1.4,NaN,-1.40492790429931,-1.40492790429931,750,1,0,congruent,1,5254.81357866994,778.634404226694
40,104,4,569,0.5,0.5,0.5,1,2,0.6,1,778,1,0,778,0,0,1.4,NaN,1.26513025874805,1.26513025874805,750,0,0,incongruent,0,3762.47167154669,838.424343465312
40,104,4,570,0.5,0.5,0.5,3,1,0.4,3,686,1,1,686,1,0,1,NaN,0.351950515252296,0.351950515252296,750,0,0,incongruent,1,5049.63571581578,5132.85603239189
40,104,4,571,0.5,-0.5,0.5,1,3,0.6,1,834,1,0,834,1,0,1,NaN,1.8209787982672,1.8209787982672,750,0,0,incongruent,1,3383.22149253473,2081.5681486692
40,104,4,572,0.5,-0.5,-0.5,4,4,0.6,4,641,1,1,641,1,0,1.4,NaN,-0.0947134897184508,-0.0947134897184508,750,1,0,congruent,1,5125.66611245971,5267.06646205552
40,104,4,573,-0.5,-0.5,0,3,NaN,0.6,3,708,1,1,708,1,0,1.4,1,0.570319584349106,0.570319584349106,750,0,0,neutral,0.1,6617.72497492897,2372.55069965074
40,104,4,574,-0.5,-0.5,-0.5,2,2,0.6,2,623,1,1,623,0,0,1.4,1,-0.27337909170675,-0.27337909170675,750,1,0,congruent,0,4662.61642513242,2691.1923416221
40,104,4,575,-0.5,-0.5,0,1,NaN,0.6,1,636,1,1,636,0,0,1.4,0.8,-0.144342823604089,-0.144342823604089,750,0,0,neutral,0,3951.82565389996,4794.57936332299
40,104,4,577,0.5,0.5,0.5,2,3,0.6,2,724,1,1,724,1,0,0.8,NaN,0.729133452783149,0.729133452783149,750,0,0,incongruent,1,2802.62944511465,18895.0551902368
40,104,4,578,0.5,-0.5,0,3,NaN,0.8,3,675,1,1,675,1,0,0.8,NaN,0.242765980703891,0.242765980703891,750,0,0,neutral,1,15253.4856258458,1153.58001386443
40,104,4,579,-0.5,-0.5,-0.5,1,1,0.8,2,949,0,0,NaN,0,0,1,0.6,2.96245347763688,NaN,750,0,1,congruent,0,4256.61191138043,1747.32328068121
40,104,4,580,0.5,0.5,0,2,NaN,0.8,3,623,0,1,NaN,0,0,1,NaN,-0.27337909170675,NaN,750,0,1,neutral,0,2370.75473323069,4343.60028827317
40,104,4,582,-0.5,0.5,-0.5,1,1,0.6,1,585,1,1,585,1,0,0.8,1,-0.650562029237603,-0.650562029237603,750,1,0,congruent,0.1,1922.53652821384,1513.62814195247
40,104,4,583,-0.5,0.5,-0.5,3,3,0.8,3,589,1,1,589,1,0,0.6,1,-0.610858562129092,-0.610858562129092,750,1,0,congruent,0.1,1768.64856849161,6133.92088143089
40,104,4,584,-0.5,-0.5,0.5,1,2,0.8,2,683,0,1,NaN,0,0,0.4,0.2,0.322172914920913,NaN,750,1,0,incongruent,0,5440.41934156971,1657.31673417892
40,104,4,585,-0.5,0.5,-0.5,4,4,0.8,4,513,1,1,513,1,0,0.4,1,-1.3652244371908,-1.3652244371908,750,1,0,congruent,0.1,3006.96966126892,611.116471423236
40,104,4,586,0.5,-0.5,0,1,NaN,0.8,1,739,1,1,739,1,0,0.6,NaN,0.878021454440065,0.878021454440065,750,0,0,neutral,1,2701.27220120333,2428.10968097948
40,104,4,587,-0.5,-0.5,-0.5,2,2,0.8,2,664,1,1,664,1,0,1,0,0.133581446155487,0.133581446155487,750,1,0,congruent,0.1,4313.05135894014,3310.22842883225
40,104,4,588,-0.5,0.5,0.5,3,4,0.8,2,742,0,1,NaN,0,0,1,1,0.907799054771448,NaN,750,0,1,incongruent,0,8799.36723249444,4469.40377232697
40,104,4,589,0.5,0.5,0.5,4,3,0.6,4,662,1,1,662,1,0,0.8,NaN,0.113729712601231,0.113729712601231,750,0,0,incongruent,1,3911.12323208028,2208.12618354448
40,104,4,590,0.5,0.5,-0.5,1,1,0.8,1,606,1,1,606,1,0,1.2,NaN,-0.442118826917921,-0.442118826917921,750,1,0,congruent,1,2049.74836897303,2489.17237114118
40,104,4,591,-0.5,-0.5,0.5,3,2,0.8,3,684,1,1,684,0,0,1.4,0.2,0.332098781698041,0.332098781698041,750,0,0,incongruent,0,5993.34654391615,3593.52099292586
40,104,4,592,-0.5,-0.5,0.5,2,4,0.8,4,654,0,1,NaN,0,0,1,0.2,0.0343227783842094,NaN,750,1,0,incongruent,0,2369.01118409764,1010.41601199102
40,104,4,593,-0.5,-0.5,0.5,4,3,0.8,4,608,1,1,608,1,0,0.8,0.2,-0.422267093363665,-0.422267093363665,750,0,0,incongruent,0.1,1833.06871535371,1210.06404560334
40,104,4,596,-0.5,0.5,-0.5,2,2,0.8,2,898,1,0,898,0,0,1,0.8,2.45623427200337,2.45623427200337,750,1,0,congruent,0,1379.20679594826,3695.63950667849
40,104,4,597,0.5,-0.5,0.5,4,3,0.6,4,614,1,1,614,1,0,1,NaN,-0.362711892700899,-0.362711892700899,750,0,0,incongruent,1,1068.19004195864,4101.89409804697
40,104,4,599,-0.5,-0.5,-0.5,1,1,0.6,1,579,1,1,579,1,0,1.4,0.6,-0.710117229900369,-0.710117229900369,750,1,0,congruent,0.1,1233.54534427927,3018.964596686
40,104,4,600,0.5,0.5,0.5,3,2,0.6,3,734,1,1,734,1,0,1.2,NaN,0.828392120554426,0.828392120554426,750,0,0,incongruent,1,1417.89804689663,1903.67180818308
