subid,vers,block,trial,rewlvl,efflvl,congruency,targetresp,distractorresp,rollingefflvl,resp,rt,acc,fast,accrt,isrewarded,ismiss,runavgrrgen,runavgrrcond,zrt,acczrt,rtthreshold,isdisterror,isranderror,congruence,feedback,fcz_resp_theta,fcz_resp_theta_baseline
41,104,1,66,0.5,-0.5,-0.5,1,1,0,1,670,1,1,670,0,0,0.4,NaN,-0.255607539079743,-0.255607539079743,750,1,0,congruent,0,2319.80123990112,2226.57278569564
41,104,1,67,-0.5,-0.5,-0.5,4,4,0,4,859,1,0,859,0,0,0.4,0.2,0.990448501717676,0.990448501717676,750,1,0,congruent,0,19916.0071236876,7197.05519215168
41,104,1,68,0.5,0.5,0.5,3,1,0,3,779,1,0,779,0,0,0,NaN,0.463017373337816,0.463017373337816,750,0,0,incongruent,0,6845.66675071861,2881.38152722304
41,104,1,69,0.5,0.5,0.5,1,4,0,4,944,0,0,NaN,0,0,0,NaN,1.55084407562128,NaN,750,1,0,incongruent,0,12455.3361535335,8269.70467496317
41,104,1,70,0.5,0.5,0,4,NaN,0,4,809,1,0,809,0,0,0,NaN,0.660804046480264,0.660804046480264,750,0,0,neutral,0,6279.37375284127,4831.39144697806
41,104,1,71,-0.5,-0.5,-0.5,1,1,0,4,882,0,0,NaN,0,0,0,0,1.14208495112689,NaN,750,0,1,congruent,0,2911.31446802061,2296.55646044213
41,104,1,72,0.5,-0.5,0.5,4,2,0,1,865,0,0,NaN,0,0,0,NaN,1.03000583634617,NaN,750,0,1,incongruent,0,3756.85111409095,3537.36786142861
41,104,1,73,0.5,-0.5,0,3,NaN,0,3,685,1,1,685,0,0,0,NaN,-0.156714202508519,-0.156714202508519,750,0,0,neutral,0,5547.75743054342,5030.572786101
41,104,1,78,-0.5,0.5,0.5,3,4,0,3,572,1,1,572,1,0,0,0,-0.901710671345071,-0.901710671345071,750,0,0,incongruent,0.1,952.278239016522,1510.26414993652
41,104,1,79,0.5,-0.5,0,2,NaN,0.2,2,650,1,1,650,0,0,0.2,NaN,-0.387465321174708,-0.387465321174708,750,0,0,neutral,0,2358.2711564847,2810.05005492036
41,104,1,81,0.5,0.5,0.5,2,4,0.2,2,776,1,0,776,0,0,0.2,NaN,0.443238706023571,0.443238706023571,750,0,0,incongruent,0,3242.36291599469,1344.12222725722
41,104,1,82,-0.5,0.5,-0.5,1,1,0.2,1,491,1,1,491,1,0,0.2,0.2,-1.43573468882968,-1.43573468882968,750,1,0,congruent,0.1,876.981277326538,1672.98654084087
41,104,1,83,0.5,-0.5,0.5,4,2,0.4,1,622,0,1,NaN,0,0,0.4,NaN,-0.572066216107659,NaN,750,0,1,incongruent,0,10927.0632984434,3028.30223416435
41,104,1,84,0.5,0.5,0,1,NaN,0.4,3,546,0,1,NaN,0,0,0.2,NaN,-1.07312578806853,NaN,750,0,1,neutral,0,5114.19974618577,3403.65895130439
41,104,1,85,-0.5,0.5,-0.5,3,3,0.4,4,884,0,0,NaN,0,0,0.2,0.4,1.15527072933638,NaN,750,0,1,congruent,0,1467.66825188441,6471.61172307164
41,104,1,86,-0.5,-0.5,0,1,NaN,0.4,1,735,1,1,735,1,0,0.2,0,0.172930252728893,0.172930252728893,750,0,0,neutral,0.1,3974.36631621549,3533.17084738441
41,104,1,87,-0.5,0.5,0.5,3,1,0.4,3,753,1,0,753,0,0,0.4,0.4,0.291602256614362,0.291602256614362,750,0,0,incongruent,0,3799.359790271,5114.34893019376
41,104,1,88,0.5,0.5,0,2,NaN,0.2,2,705,1,1,705,1,0,0.2,NaN,-0.0248564204135542,-0.0248564204135542,750,0,0,neutral,1,4871.85304382407,3898.71878242499
41,104,1,89,0.5,-0.5,-0.5,1,1,0.4,1,537,1,1,537,0,0,0.6,NaN,-1.13246179001126,-1.13246179001126,750,1,0,congruent,0,7242.59863909128,2197.00717949431
41,104,1,90,-0.5,0.5,0.5,2,3,0.4,3,620,0,1,NaN,0,0,0.6,0.4,-0.585251994317155,NaN,750,1,0,incongruent,0,12390.1544050059,6119.7942034534
41,104,1,91,-0.5,-0.5,0.5,3,1,0.2,3,454,1,1,454,0,0,0.6,0.2,-1.67967158570536,-1.67967158570536,750,0,0,incongruent,0,2641.9880711622,5036.8623801417
41,104,1,92,-0.5,0.5,-0.5,2,2,0.2,2,585,1,1,585,1,0,0.4,0.4,-0.816003112983344,-0.816003112983344,750,1,0,congruent,0.1,2916.61201244636,1396.03184655365
41,104,1,93,0.5,0.5,-0.5,3,3,0.4,3,829,1,0,829,0,0,0.6,NaN,0.792661828575229,0.792661828575229,750,1,0,congruent,0,2188.24497817486,3651.20373575361
41,104,1,94,-0.5,0.5,0,4,NaN,0.4,4,820,1,0,820,0,0,0.2,0.4,0.733325826632494,0.733325826632494,750,0,0,neutral,0,3799.02143852363,2369.4478579806
41,104,1,95,-0.5,0.5,-0.5,2,2,0.4,2,598,1,1,598,1,0,0.2,0.2,-0.730295554621617,-0.730295554621617,750,1,0,congruent,0.1,4875.88454661283,1346.02632222342
41,104,1,96,-0.5,0.5,-0.5,4,4,0.4,3,520,0,1,NaN,0,0,0.4,0.4,-1.24454090479198,NaN,750,0,1,congruent,0,11642.1306800149,4075.29512854334
41,104,1,97,0.5,-0.5,0.5,1,3,0.4,1,505,1,1,505,0,0,0.4,NaN,-1.3434342413632,-1.3434342413632,750,0,0,incongruent,0,1439.40128595522,6646.11190860882
41,104,1,98,0.5,0.5,-0.5,2,2,0.4,2,513,1,1,513,1,0,0.2,NaN,-1.29069112852522,-1.29069112852522,750,1,0,congruent,1,3536.91119135404,3132.38157623575
41,104,1,99,0.5,-0.5,0.5,1,4,0.4,1,847,1,0,847,0,0,0.6,NaN,0.911333832460697,0.911333832460697,750,0,0,incongruent,0,4563.93715671712,2752.62855269599
41,104,1,100,-0.5,0.5,0.5,2,3,0.4,2,735,1,1,735,1,0,0.6,0.4,0.172930252728893,0.172930252728893,750,0,0,incongruent,0.1,3278.37859128547,2401.7110351262
41,104,1,101,-0.5,0.5,-0.5,4,4,0.6,1,776,0,0,NaN,0,0,0.6,0.6,0.443238706023571,NaN,750,0,1,congruent,0,10228.1842882004,600.379493195395
41,104,1,102,0.5,0.5,0,1,NaN,0.6,1,742,1,1,742,1,0,0.6,NaN,0.219080476462131,0.219080476462131,750,0,0,neutral,1,4240.58085177648,3507.25809298742
41,104,1,104,-0.5,0.5,-0.5,2,2,0.6,2,532,1,1,532,1,0,0.6,0.4,-1.165426235535,-1.165426235535,750,1,0,congruent,0.1,5581.65502751281,3068.88319730004
41,104,1,105,-0.5,-0.5,0.5,1,3,0.6,1,752,1,0,752,0,0,0.8,0.2,0.285009367509613,0.285009367509613,750,0,0,incongruent,0,10256.2086335652,1213.26092664438
41,104,1,106,0.5,0.5,0,2,NaN,0.6,2,660,1,1,660,1,0,0.6,NaN,-0.321536430127225,-0.321536430127225,750,0,0,neutral,1,14815.4925819001,3663.5990689174
41,104,1,107,0.5,0.5,-0.5,3,3,0.6,1,877,0,0,NaN,0,0,1,NaN,1.10912050560314,NaN,750,0,1,congruent,0,10330.6270383134,3721.12248472652
41,104,1,108,0.5,0.5,-0.5,2,2,0.6,2,782,1,0,782,0,0,0.6,NaN,0.482796040652061,0.482796040652061,750,1,0,congruent,0,1911.76364845584,2638.70563715658
41,104,1,109,0.5,-0.5,0,4,NaN,0.4,4,778,1,0,778,0,0,0.6,NaN,0.456424484233068,0.456424484233068,750,0,0,neutral,0,11038.9007678967,5592.61938337537
41,104,1,110,-0.5,0.5,0.5,3,4,0.4,3,783,1,0,783,0,0,0.4,0.4,0.489388929756809,0.489388929756809,750,0,0,incongruent,0,7755.15293413743,7705.10320744051
41,104,1,111,0.5,0.5,-0.5,1,1,0.4,1,763,1,0,763,0,0,0.4,NaN,0.357531147661844,0.357531147661844,750,1,0,congruent,0,13059.1596736795,2482.6566206256
41,104,1,112,-0.5,-0.5,-0.5,3,3,0.2,3,902,1,0,902,0,0,0,0.2,1.27394273322185,1.27394273322185,750,1,0,congruent,0,9565.36555440459,1864.06062330594
41,104,1,113,-0.5,0.5,0,2,NaN,0.2,2,682,1,1,682,1,0,0,0.4,-0.176492869822764,-0.176492869822764,750,0,0,neutral,0.1,11163.2588432714,2730.14927072823
41,104,1,114,-0.5,0.5,-0.5,4,4,0.2,1,519,0,1,NaN,0,0,0.2,0.4,-1.25113379389673,NaN,750,0,1,congruent,0,8278.62243803951,1772.77266654813
41,104,1,116,-0.5,0.5,-0.5,2,2,0.2,2,802,1,0,802,0,0,0.2,0.4,0.614653822747026,0.614653822747026,750,1,0,congruent,0,4696.49986350747,2256.34754729675
41,104,1,117,-0.5,-0.5,0,1,NaN,0.2,1,998,1,0,998,0,0,0.2,0.2,1.90686008727768,1.90686008727768,750,0,0,neutral,0,2150.85725020688,2157.96815547862
41,104,1,119,0.5,-0.5,0.5,2,4,0.2,2,929,1,0,929,1,0,0,NaN,1.45195073905005,1.45195073905005,750,0,0,incongruent,1,3930.96186486211,11901.1384008226
41,104,1,121,0.5,0.5,-0.5,2,2,0.2,2,717,1,1,717,1,0,0.4,NaN,0.0542582488434248,0.0542582488434248,750,1,0,congruent,1,4996.06998348797,3377.20318419081
41,104,1,123,0.5,0.5,0.5,3,2,0.2,3,381,1,1,381,1,0,0.8,NaN,-2.16095249035199,-2.16095249035199,750,0,0,incongruent,1,3524.0968073361,671.552220253615
41,104,1,124,0.5,0.5,0,2,NaN,0.4,2,545,1,1,545,1,0,1.2,NaN,-1.07971867717327,-1.07971867717327,750,0,0,neutral,1,4036.29813561962,8894.93654929614
41,104,1,125,-0.5,-0.5,0.5,4,2,0.6,4,361,1,1,361,1,0,1.2,0,-2.29281027244695,-2.29281027244695,750,0,0,incongruent,0.1,6204.49347962651,1519.77994294442
41,104,1,126,-0.5,-0.5,0,2,NaN,0.6,2,482,1,1,482,1,0,1.4,0.2,-1.49507069077241,-1.49507069077241,750,0,0,neutral,0.1,5180.70722899148,1533.85838043577
41,104,1,127,-0.5,0.5,-0.5,3,3,0.6,3,867,1,0,867,0,0,1.2,0.2,1.04319161455566,1.04319161455566,750,1,0,congruent,0,1201.54817926621,4665.69892666177
41,104,1,128,-0.5,0.5,0,2,NaN,0.6,2,483,1,1,483,1,0,1.2,0,-1.48847780166767,-1.48847780166767,750,0,0,neutral,0.1,11950.4724612709,4578.11573205625
41,104,1,129,0.5,0.5,-0.5,3,3,0.6,2,564,0,1,NaN,0,0,1,NaN,-0.954453784183057,NaN,750,0,1,congruent,0,1777.89368498914,1497.95806581627
41,104,1,130,0.5,0.5,0,1,NaN,0.6,3,610,0,1,NaN,0,0,0.6,NaN,-0.651180885364638,NaN,750,0,1,neutral,0,1903.00686382844,4668.91922357333
41,104,1,131,-0.5,-0.5,-0.5,4,4,0.4,1,914,0,0,NaN,1,0,0.4,0.4,1.35305740247883,NaN,750,0,1,congruent,0.1,4025.39467842206,2970.68804310008
41,104,1,132,0.5,-0.5,0,1,NaN,0.4,1,880,1,0,880,0,0,0.4,NaN,1.12889917291739,1.12889917291739,750,0,0,neutral,0,1998.65784955757,3333.55878307962
41,104,1,134,0.5,-0.5,0,1,NaN,0.2,1,796,1,0,796,0,0,0.2,NaN,0.575096488118536,0.575096488118536,750,0,0,neutral,0,2587.49894776694,5712.17021221405
41,104,1,135,-0.5,0.5,-0.5,3,3,0.2,3,834,1,0,834,0,0,0.2,0.2,0.82562627409897,0.82562627409897,750,1,0,congruent,0,2976.56245723077,6953.64905063238
41,104,1,136,0.5,0.5,0,1,NaN,0.2,2,653,0,1,NaN,0,0,0.2,NaN,-0.367686653860463,NaN,750,0,1,neutral,0,14245.4527455545,2303.82775875758
41,104,1,137,0.5,-0.5,0.5,2,3,0,2,625,1,1,625,0,0,0,NaN,-0.552287548793414,-0.552287548793414,750,0,0,incongruent,0,2809.69038275009,7125.54752555194
41,104,1,138,0.5,-0.5,0.5,3,1,0,3,829,1,0,829,0,0,0,NaN,0.792661828575229,0.792661828575229,750,0,0,incongruent,0,3013.36013942471,5609.4304715167
41,104,1,139,-0.5,0.5,0.5,4,2,0,4,941,1,0,941,0,0,0,0.2,1.53106540830703,1.53106540830703,750,0,0,incongruent,0,6102.51058932029,1153.46911484732
41,104,1,143,-0.5,-0.5,0,1,NaN,0,1,737,1,1,737,0,0,0,0.6,0.18611603093839,0.18611603093839,750,0,0,neutral,0,6792.32116510773,4146.19055116725
41,104,1,144,-0.5,0.5,-0.5,4,4,0,4,800,1,0,800,0,0,0,0.2,0.601468044537529,0.601468044537529,750,1,0,congruent,0,3005.18700145814,2677.4385286336
41,104,1,146,0.5,-0.5,0,3,NaN,0,2,569,0,1,NaN,0,0,0,NaN,-0.921489338659316,NaN,750,0,1,neutral,0,1101.23971967355,4452.78397975485
41,104,1,147,-0.5,0.5,0.5,4,3,0,1,799,0,0,NaN,0,0,0,0.2,0.594875155432781,NaN,750,0,1,incongruent,0,3514.66945207597,2202.63686242335
41,104,1,148,-0.5,0.5,0,1,NaN,0,1,504,1,1,504,1,0,0,0.2,-1.35002713046795,-1.35002713046795,750,0,0,neutral,0.1,3440.07049557632,7638.06263758093
41,104,1,149,0.5,0.5,0.5,3,1,0.2,3,841,1,0,841,0,0,0.2,NaN,0.871776497832208,0.871776497832208,750,0,0,incongruent,0,4320.48404633489,2746.49565520132
41,104,1,150,-0.5,-0.5,0,2,NaN,0.2,2,599,1,1,599,0,0,0.2,0.4,-0.723702665516869,-0.723702665516869,750,0,0,neutral,0,5559.54277255511,2896.23545314369
41,104,2,151,0.5,-0.5,0.5,4,2,0.2,1,936,0,0,NaN,1,0,0.2,NaN,1.49810096278329,NaN,750,0,1,incongruent,1,1503.47097279505,3151.92792816196
41,104,2,152,-0.5,0.5,0,1,NaN,0.2,3,846,0,0,NaN,0,0,0.6,0.2,0.904740943355949,NaN,750,0,1,neutral,0,3392.50340580363,3231.38374338169
41,104,2,154,-0.5,0.5,0,2,NaN,0.2,2,403,1,1,403,1,0,0.4,0.2,-2.01590893004753,-2.01590893004753,750,0,0,neutral,0.1,1630.99696356564,3494.2773629351
41,104,2,155,0.5,0.5,0.5,4,2,0.4,3,633,0,1,NaN,0,0,0.6,NaN,-0.499544435955428,NaN,750,0,1,incongruent,0,7967.46940240438,5120.46421972331
41,104,2,156,0.5,0.5,0.5,1,3,0.2,1,370,1,1,370,1,0,0.6,NaN,-2.23347427050422,-2.23347427050422,750,0,0,incongruent,1,2143.94389684154,2751.90148973133
41,104,2,157,0.5,-0.5,0.5,3,4,0.4,4,554,0,1,NaN,1,0,0.6,NaN,-1.02038267523054,NaN,750,1,0,incongruent,1,9770.17841450793,1696.26546077612
41,104,2,158,-0.5,-0.5,-0.5,1,1,0.4,1,654,1,1,654,1,0,1,0.2,-0.361093764755715,-0.361093764755715,750,1,0,congruent,0.1,1953.79685165561,4053.2585380126
41,104,2,159,0.5,0.5,0,2,NaN,0.4,2,553,1,1,553,1,0,1.2,NaN,-1.02697556433529,-1.02697556433529,750,0,0,neutral,1,2990.62039630149,6416.12769289677
41,104,2,161,-0.5,0.5,0.5,2,3,0.6,2,599,1,1,599,1,0,1.4,0.4,-0.723702665516869,-0.723702665516869,750,0,0,incongruent,0.1,7584.11759549746,6246.43281024008
41,104,2,162,-0.5,0.5,-0.5,4,4,0.6,4,737,1,1,737,1,0,1.2,0.4,0.18611603093839,0.18611603093839,750,1,0,congruent,0.1,4148.73115254668,7459.45186844001
41,104,2,163,0.5,0.5,0.5,2,3,0.8,2,543,1,1,543,1,0,1,NaN,-1.09290445538277,-1.09290445538277,750,0,0,incongruent,1,1353.26122493055,4366.75779805993
41,104,2,164,0.5,0.5,-0.5,1,1,0.8,1,675,1,1,675,1,0,1.2,NaN,-0.222643093556002,-0.222643093556002,750,1,0,congruent,1,3267.0441245045,5651.28381980923
41,104,2,165,0.5,-0.5,-0.5,2,2,0.8,2,453,1,1,453,1,0,1.2,NaN,-1.68626447481011,-1.68626447481011,750,1,0,congruent,1,2710.35759432086,1119.67209511499
41,104,2,166,0.5,0.5,0.5,1,3,0.8,1,635,1,1,635,1,0,1.6,NaN,-0.486358657745932,-0.486358657745932,750,0,0,incongruent,1,3134.98042287978,4461.87909180463
41,104,2,168,0.5,-0.5,0.5,4,2,0.8,4,879,1,0,879,1,0,1.6,NaN,1.12230628381264,1.12230628381264,750,0,0,incongruent,1,1698.61812234495,2781.97549103901
41,104,2,169,-0.5,0.5,0,1,NaN,0.8,1,927,1,0,927,0,0,1.6,0.6,1.43876496084056,1.43876496084056,750,0,0,neutral,0,879.666449891016,3598.37760560639
41,104,2,170,0.5,-0.5,-0.5,3,3,0.6,3,805,1,0,805,1,0,1.2,NaN,0.634432490061271,0.634432490061271,750,1,0,congruent,1,3636.59990999533,10545.6240969015
41,104,2,172,-0.5,-0.5,-0.5,1,1,0.6,1,615,1,1,615,1,0,0.8,0.2,-0.618216439840897,-0.618216439840897,750,1,0,congruent,0.1,11177.7983265984,5017.30626490062
41,104,2,173,0.5,0.5,0,4,NaN,0.6,4,735,1,1,735,1,0,1,NaN,0.172930252728893,0.172930252728893,750,0,0,neutral,1,8756.55142222865,2581.60067087632
41,104,2,174,-0.5,0.5,-0.5,1,1,0.6,1,613,1,1,613,1,0,1,0.6,-0.631402218050393,-0.631402218050393,750,1,0,congruent,0.1,7290.38174163209,5118.0713434838
41,104,2,175,-0.5,-0.5,-0.5,2,2,0.6,2,642,1,1,642,0,0,1.2,0.4,-0.440208434012694,-0.440208434012694,750,1,0,congruent,0,1952.02834123302,2019.2562766611
41,104,2,176,-0.5,0.5,-0.5,4,4,0.6,1,769,0,0,NaN,0,0,0.8,0.6,0.397088482290334,NaN,750,0,1,congruent,0,7331.45948227591,5188.11992064584
41,104,2,177,-0.5,-0.5,-0.5,1,1,0.4,1,983,1,0,983,1,0,0.8,0.4,1.80796675070646,1.80796675070646,750,1,0,congruent,0.1,3329.60344537484,1899.08390122512
41,104,2,178,0.5,0.5,0.5,2,4,0.4,2,663,1,1,663,1,0,0.8,NaN,-0.301757762812981,-0.301757762812981,750,0,0,incongruent,1,4776.356713912,4412.13523595625
41,104,2,179,-0.5,0.5,0.5,3,2,0.6,3,774,1,0,774,0,0,0.8,0.6,0.430052927814075,0.430052927814075,750,0,0,incongruent,0,2861.2405161133,859.039948229701
41,104,2,180,-0.5,-0.5,-0.5,4,4,0.6,4,383,1,1,383,1,0,0.6,0.6,-2.14776671214249,-2.14776671214249,750,1,0,congruent,0.1,4057.68388437563,2671.37206007653
41,104,2,181,0.5,-0.5,0.5,3,2,0.6,3,612,1,1,612,1,0,0.8,NaN,-0.637995107155141,-0.637995107155141,750,0,0,incongruent,1,4604.34762988293,1943.73832812159
41,104,2,182,0.5,0.5,0,4,NaN,0.6,3,692,0,1,NaN,0,0,1.2,NaN,-0.110563978775281,NaN,750,0,1,neutral,0,3046.63719839056,2912.17071206378
41,104,2,183,-0.5,-0.5,0.5,1,4,0.4,1,881,1,0,881,1,0,1,0.8,1.13549206202214,1.13549206202214,750,0,0,incongruent,0.1,4545.82722274136,1591.8766426952
41,104,2,184,-0.5,-0.5,-0.5,3,3,0.4,3,730,1,1,730,0,0,0.8,0.8,0.139965807205152,0.139965807205152,750,1,0,congruent,0,1887.85382045764,4033.03913326974
41,104,2,185,-0.5,0.5,0.5,1,4,0.4,2,565,0,1,NaN,0,0,0.8,0.4,-0.947860895078309,NaN,750,0,1,incongruent,0,7399.2327067218,5852.58980577476
41,104,2,186,0.5,0.5,-0.5,3,3,0.2,3,622,1,1,622,1,0,0.6,NaN,-0.572066216107659,-0.572066216107659,750,1,0,congruent,1,6529.06225042579,3422.65382187258
41,104,2,187,0.5,-0.5,-0.5,2,2,0.4,2,545,1,1,545,1,0,0.6,NaN,-1.07971867717327,-1.07971867717327,750,1,0,congruent,1,3891.52425282985,1378.64288783771
41,104,2,189,0.5,-0.5,-0.5,2,2,0.2,2,607,1,1,607,0,0,0.8,NaN,-0.670959552678883,-0.670959552678883,750,1,0,congruent,0,3089.00872534714,3411.10925299119
41,104,2,190,0.5,0.5,0,3,NaN,0.2,3,731,1,1,731,1,0,0.8,NaN,0.1465586963099,0.1465586963099,750,0,0,neutral,1,2732.54464689556,3599.02536130613
41,104,2,192,0.5,0.5,0.5,4,3,0.4,4,854,1,0,854,0,0,1,NaN,0.957484056193935,0.957484056193935,750,0,0,incongruent,0,3263.27911092118,3009.2588551871
41,104,2,193,0.5,0.5,-0.5,1,1,0.4,1,856,1,0,856,0,0,0.6,NaN,0.970669834403431,0.970669834403431,750,1,0,congruent,0,5559.84414173319,3487.74780785317
41,104,2,194,0.5,0.5,0,3,NaN,0.4,2,886,0,0,NaN,0,0,0.6,NaN,1.16845650754588,NaN,750,0,1,neutral,0,3317.3432229056,2740.93105017732
41,104,2,196,0.5,-0.5,-0.5,1,1,0.2,1,534,1,1,534,0,0,0.2,NaN,-1.1522404573255,-1.1522404573255,750,1,0,congruent,0,4955.53175308715,4484.43445602394
41,104,2,197,0.5,-0.5,0,3,NaN,0.2,3,681,1,1,681,1,0,0,NaN,-0.183085758927512,-0.183085758927512,750,0,0,neutral,1,1063.18431982601,1625.91786205911
41,104,2,198,-0.5,0.5,-0.5,1,1,0.2,4,755,0,0,NaN,0,0,0.4,0.2,0.304788034823858,NaN,750,0,1,congruent,0,5997.54709285373,10024.897186492
41,104,2,200,-0.5,-0.5,0,2,NaN,0.2,2,615,1,1,615,1,0,0.4,0.6,-0.618216439840897,-0.618216439840897,750,0,0,neutral,0.1,908.28172380286,5818.63912018737
41,104,2,202,-0.5,-0.5,-0.5,2,2,0.2,3,649,0,1,NaN,0,0,0.6,0.6,-0.394058210279456,NaN,750,0,1,congruent,0,2132.16711160675,5715.31123910029
41,104,2,203,0.5,-0.5,0.5,4,3,0.2,4,824,1,0,824,1,0,0.2,NaN,0.759697383051487,0.759697383051487,750,0,0,incongruent,1,2196.27244902193,7809.52618916599
41,104,2,204,0.5,0.5,-0.5,1,1,0.2,1,872,1,0,872,0,0,0.6,NaN,1.0761560600794,1.0761560600794,750,1,0,congruent,0,2932.82072239474,9058.60505432375
41,104,2,205,0.5,-0.5,0.5,2,4,0,2,752,1,0,752,0,0,0.6,NaN,0.285009367509613,0.285009367509613,750,0,0,incongruent,0,4681.19608579499,7657.14318235357
41,104,2,207,0.5,-0.5,0,1,NaN,0,1,690,1,1,690,0,0,0.4,NaN,-0.123749756984778,-0.123749756984778,750,0,0,neutral,0,1319.8137583945,3104.00845157708
41,104,2,208,0.5,0.5,0.5,3,4,0,3,858,1,0,858,0,0,0.4,NaN,0.983855612612928,0.983855612612928,750,0,0,incongruent,0,10629.670596041,14750.3585613596
41,104,2,209,0.5,0.5,-0.5,2,2,0,1,707,0,1,NaN,0,0,0,NaN,-0.0116706422040577,NaN,750,0,1,congruent,0,6751.29451118755,1170.99329808747
41,104,2,210,-0.5,0.5,0,4,NaN,0,1,580,0,1,NaN,0,0,0,0.2,-0.848967558507085,NaN,750,0,1,neutral,0,4293.61630823344,979.897713086688
41,104,2,211,0.5,0.5,-0.5,1,1,0,1,870,1,0,870,0,0,0,NaN,1.06297028186991,1.06297028186991,750,1,0,congruent,0,1994.55406174578,8657.05851248186
41,104,2,212,-0.5,-0.5,-0.5,4,4,0,4,944,1,0,944,0,0,0,0.4,1.55084407562128,1.55084407562128,750,1,0,congruent,0,5017.18121523682,2905.73959405716
41,104,2,214,0.5,-0.5,0,2,NaN,0,2,554,1,1,554,0,0,0,NaN,-1.02038267523054,-1.02038267523054,750,0,0,neutral,0,10068.8721081871,8357.4843736041
41,104,2,215,0.5,0.5,-0.5,4,4,0,3,542,0,1,NaN,0,0,0,NaN,-1.09949734448752,NaN,750,0,1,congruent,0,4404.98575806635,4865.29038005762
41,104,2,216,-0.5,0.5,0.5,2,3,0,2,941,1,0,941,0,0,0,0,1.53106540830703,1.53106540830703,750,0,0,incongruent,0,1650.97416263192,7432.06765366494
41,104,2,217,-0.5,-0.5,-0.5,4,4,0,4,534,1,1,534,0,0,0,0.4,-1.1522404573255,-1.1522404573255,750,1,0,congruent,0,12190.2675843709,12083.553079423
41,104,2,218,-0.5,0.5,0.5,3,1,0,4,865,0,0,NaN,0,0,0,0,1.03000583634617,NaN,750,0,1,incongruent,0,2852.70635635557,2369.30112564551
41,104,2,219,-0.5,0.5,-0.5,4,4,0,4,399,1,1,399,1,0,0,0,-2.04228048646652,-2.04228048646652,750,1,0,congruent,0.1,4313.78989999362,5287.42613811701
41,104,2,220,0.5,0.5,0,1,NaN,0.2,1,723,1,1,723,1,0,0.2,NaN,0.0938155834719143,0.0938155834719143,750,0,0,neutral,1,3055.07824751915,7155.91279241449
41,104,2,221,-0.5,0.5,-0.5,4,4,0.4,4,716,1,1,716,1,0,0.6,0.2,0.0476653597386765,0.0476653597386765,750,1,0,congruent,0.1,4185.02107964804,5484.55281050984
41,104,2,222,-0.5,-0.5,0.5,3,1,0.6,3,866,1,0,866,1,0,0.8,0.2,1.03659872545091,1.03659872545091,750,0,0,incongruent,0.1,8432.06741909012,3171.64860986507
41,104,2,224,-0.5,-0.5,0.5,3,1,0.8,3,967,1,0,967,1,0,1.2,0.4,1.70248052503049,1.70248052503049,750,0,0,incongruent,0.1,7021.69385684299,2019.54118859088
41,104,2,225,-0.5,0.5,-0.5,2,2,0.8,2,532,1,1,532,1,0,1.2,0.6,-1.165426235535,-1.165426235535,750,1,0,congruent,0.1,622.75473052399,1729.62456707136
41,104,2,227,-0.5,-0.5,-0.5,3,3,0.8,3,863,1,0,863,0,0,0.8,0.4,1.01682005813667,1.01682005813667,750,1,0,congruent,0,2637.71318268679,538.408215772581
41,104,2,229,0.5,0.5,0,2,NaN,0.8,2,566,1,1,566,1,0,0.4,NaN,-0.941268005973561,-0.941268005973561,750,0,0,neutral,1,1669.44558215601,3310.74132910241
41,104,2,230,-0.5,-0.5,-0.5,4,4,0.8,4,899,1,0,899,1,0,0.6,0.4,1.25416406590761,1.25416406590761,750,1,0,congruent,0.1,2031.85770014492,2389.27252985639
41,104,2,231,-0.5,-0.5,0,2,NaN,0.8,2,565,1,1,565,1,0,0.6,0.6,-0.947860895078309,-0.947860895078309,750,0,0,neutral,0.1,2694.77235842074,3095.46826748597
41,104,2,232,0.5,-0.5,-0.5,4,4,0.8,4,756,1,0,756,1,0,0.8,NaN,0.311380923928607,0.311380923928607,750,1,0,congruent,1,3894.51974499385,1814.93013858311
41,104,2,233,-0.5,-0.5,0,1,NaN,0.8,1,644,1,1,644,1,0,1.2,0.8,-0.427022655803197,-0.427022655803197,750,0,0,neutral,0.1,1590.04493752259,1703.49732236781
41,104,2,234,0.5,0.5,-0.5,2,2,0.8,2,526,1,1,526,1,0,1.4,NaN,-1.20498357016349,-1.20498357016349,750,1,0,congruent,1,7568.43521457201,1807.50771792898
41,104,2,235,-0.5,0.5,0,4,NaN,0.8,4,666,1,1,666,1,0,1.4,0.8,-0.281979095498736,-0.281979095498736,750,0,0,neutral,0.1,6904.09089630904,3281.00491081714
41,104,2,236,0.5,0.5,0.5,1,4,0.8,1,868,1,0,868,0,0,1.4,NaN,1.04978450366041,1.04978450366041,750,0,0,incongruent,0,1489.66665432219,5245.78581557657
41,104,2,237,0.5,0.5,0,4,NaN,0.6,4,775,1,0,775,0,0,1.2,NaN,0.436645816918823,0.436645816918823,750,0,0,neutral,0,7405.09124134095,1222.02295862255
41,104,2,238,0.5,-0.5,0.5,2,3,0.6,2,479,1,1,479,0,0,0.8,NaN,-1.51484935808666,-1.51484935808666,750,0,0,incongruent,0,1497.89910068922,1381.00161574739
41,104,2,239,0.5,0.5,0,1,NaN,0.6,1,617,1,1,617,1,0,0.6,NaN,-0.6050306616314,-0.6050306616314,750,0,0,neutral,1,9510.03145654042,4116.07824264193
41,104,2,240,0.5,-0.5,0.5,2,1,0.6,2,879,1,0,879,1,0,0.6,NaN,1.12230628381264,1.12230628381264,750,0,0,incongruent,1,1041.82709268506,2514.12011957394
41,104,2,241,-0.5,-0.5,0.5,3,4,0.6,3,851,1,0,851,0,0,0.8,0.8,0.93770538887969,0.93770538887969,750,0,0,incongruent,0,5900.60790839401,3632.51808131389
41,104,2,243,-0.5,0.5,-0.5,3,3,0.6,3,393,1,1,393,1,0,1,0.8,-2.08183782109501,-2.08183782109501,750,1,0,congruent,0.1,7459.67758463072,1788.18303431489
41,104,2,244,0.5,-0.5,-0.5,2,2,0.6,2,625,1,1,625,1,0,1.2,NaN,-0.552287548793414,-0.552287548793414,750,1,0,congruent,1,4548.54155341549,5715.81977183637
41,104,2,245,0.5,0.5,0.5,1,4,0.6,1,564,1,1,564,1,0,1.2,NaN,-0.954453784183057,-0.954453784183057,750,0,0,incongruent,1,5299.2699254556,2885.64141145712
41,104,2,246,-0.5,-0.5,0,4,NaN,0.6,2,664,0,1,NaN,0,0,1.2,0.8,-0.295164873708232,NaN,750,0,1,neutral,0,20012.8762132813,2922.792105794
41,104,2,247,-0.5,0.5,0.5,1,4,0.6,1,824,1,0,824,0,0,1.2,0.8,0.759697383051487,0.759697383051487,750,0,0,incongruent,0,5311.28083494225,2496.20281000675
41,104,2,248,-0.5,0.5,0,4,NaN,0.6,1,653,0,1,NaN,0,0,1,0.6,-0.367686653860463,NaN,750,0,1,neutral,0,15821.6166711259,483.686453710975
41,104,2,249,0.5,0.5,-0.5,3,3,0.6,3,850,1,0,850,0,0,0.8,NaN,0.931112499774942,0.931112499774942,750,1,0,congruent,0,5092.40018092414,2309.03582412849
41,104,2,250,-0.5,-0.5,-0.5,2,2,0.4,2,577,1,1,577,0,0,0.4,0.6,-0.86874622582133,-0.86874622582133,750,1,0,congruent,0,2310.27597982718,6482.04081810541
41,104,2,251,0.5,-0.5,0,1,NaN,0.4,1,769,1,0,769,0,0,0,NaN,0.397088482290334,0.397088482290334,750,0,0,neutral,0,1737.48137437968,5640.10712415662
41,104,2,253,0.5,-0.5,-0.5,4,4,0.2,1,879,0,0,NaN,0,0,0,NaN,1.12230628381264,NaN,750,0,1,congruent,0,3365.25842801923,4636.8755495532
41,104,2,254,-0.5,0.5,0.5,3,1,0.2,3,655,1,1,655,1,0,0,0.4,-0.354500875650967,-0.354500875650967,750,0,0,incongruent,0.1,4458.43216076441,18419.0540863074
41,104,2,256,-0.5,-0.5,-0.5,3,3,0.2,3,899,1,0,899,0,0,0.2,0.4,1.25416406590761,1.25416406590761,750,1,0,congruent,0,1086.67391738862,3578.52983923945
41,104,2,257,-0.5,-0.5,0.5,2,1,0.2,2,709,1,1,709,0,0,0.2,0.2,0.00151513600543879,0.00151513600543879,750,0,0,incongruent,0,4182.24115727689,2414.83912169533
41,104,2,258,0.5,0.5,0.5,1,3,0.2,1,716,1,1,716,1,0,0.2,NaN,0.0476653597386765,0.0476653597386765,750,0,0,incongruent,1,4957.50157091918,1008.47378802102
41,104,2,259,-0.5,-0.5,0.5,4,2,0.4,4,717,1,1,717,0,0,0.6,0.2,0.0542582488434248,0.0542582488434248,750,0,0,incongruent,0,1788.0364163399,3432.29175337942
41,104,2,260,-0.5,-0.5,0,1,NaN,0.4,2,608,0,1,NaN,0,0,0.4,0,-0.664366663574134,NaN,750,0,1,neutral,0,4633.19270415933,5132.07406280108
41,104,2,261,0.5,0.5,0.5,4,1,0.4,3,945,0,0,NaN,0,0,0.4,NaN,1.55743696472603,NaN,750,0,1,incongruent,0,7677.28859173488,1808.26914844999
41,104,2,262,-0.5,0.5,0,3,NaN,0.4,4,961,0,0,NaN,0,0,0.4,0.4,1.662923190402,NaN,750,0,1,neutral,0,4003.36957799801,10346.5860428637
41,104,2,264,0.5,-0.5,0,3,NaN,0.4,3,772,1,0,772,0,0,0,NaN,0.416867149604578,0.416867149604578,750,0,0,neutral,0,5311.48455205785,2888.18588839308
41,104,2,265,0.5,0.5,-0.5,1,1,0.4,1,782,1,0,782,0,0,0,NaN,0.482796040652061,0.482796040652061,750,1,0,congruent,0,2064.92607054112,14329.450961069
41,104,2,266,-0.5,0.5,0,2,NaN,0.2,2,581,1,1,581,1,0,0,0.2,-0.842374669402337,-0.842374669402337,750,0,0,neutral,0.1,1392.79585234576,1713.90711499412
41,104,2,268,-0.5,-0.5,-0.5,4,4,0.4,4,577,1,1,577,0,0,0.6,0,-0.86874622582133,-0.86874622582133,750,1,0,congruent,0,13349.7907245386,2965.49112924083
41,104,2,269,0.5,-0.5,0,3,NaN,0.4,2,774,0,0,NaN,0,0,0.6,NaN,0.430052927814075,NaN,750,0,1,neutral,0,3484.49065394868,3466.65035520366
41,104,2,270,0.5,-0.5,-0.5,2,2,0.4,2,652,1,1,652,0,0,0.6,NaN,-0.374279542965211,-0.374279542965211,750,1,0,congruent,0,4366.78180651899,6730.36362168717
41,104,2,271,-0.5,-0.5,0.5,4,3,0.4,1,648,0,1,NaN,0,0,0.6,0,-0.400651099384204,NaN,750,0,1,incongruent,0,5080.9956630343,2236.02651812111
41,104,2,272,0.5,-0.5,-0.5,1,1,0.4,1,539,1,1,539,0,0,0.4,NaN,-1.11927601180176,-1.11927601180176,750,1,0,congruent,0,1423.35082597712,6582.05338214421
41,104,2,274,0.5,-0.5,0.5,3,2,0.4,3,610,1,1,610,0,0,0,NaN,-0.651180885364638,-0.651180885364638,750,0,0,incongruent,0,1798.22785769746,5692.32538036987
41,104,2,276,-0.5,-0.5,0.5,1,2,0.2,2,917,0,0,NaN,0,0,0,0,1.37283606979307,NaN,750,1,0,incongruent,0,8246.16138317291,4638.33439303488
41,104,2,278,-0.5,0.5,0,2,NaN,0.2,2,632,1,1,632,1,0,0.4,0.4,-0.506137325060176,-0.506137325060176,750,0,0,neutral,0.1,2299.83279007731,2439.97255667053
41,104,2,279,0.5,-0.5,-0.5,4,4,0.4,4,677,1,1,677,0,0,0.6,NaN,-0.209457315346505,-0.209457315346505,750,1,0,congruent,0,1496.35974856,2786.95140321234
41,104,2,280,-0.5,-0.5,0.5,1,2,0.4,1,896,1,0,896,0,0,0.6,0,1.23438539859336,1.23438539859336,750,0,0,incongruent,0,3318.35320009398,4850.81546376218
41,104,2,281,-0.5,0.5,0.5,2,3,0.4,4,836,0,0,NaN,0,0,0.6,0.6,0.838812052308466,NaN,750,0,1,incongruent,0,1813.58101744619,7677.98775881235
41,104,2,282,0.5,-0.5,-0.5,1,1,0.4,1,490,1,1,490,0,0,0.6,NaN,-1.44232757793443,-1.44232757793443,750,1,0,congruent,0,3638.0362999055,1893.71666526958
41,104,2,283,0.5,0.5,-0.5,4,4,0.4,4,751,1,0,751,0,0,0.2,NaN,0.278416478404865,0.278416478404865,750,1,0,congruent,0,11592.163962683,4070.25027092727
41,104,2,285,-0.5,0.5,-0.5,4,4,0.4,4,784,1,0,784,0,0,0,0.4,0.495981818861557,0.495981818861557,750,1,0,congruent,0,10640.3421961769,14880.0133348912
41,104,2,287,0.5,-0.5,0,1,NaN,0.2,1,771,1,0,771,0,0,0,NaN,0.41027426049983,0.41027426049983,750,0,0,neutral,0,2798.65892305186,8346.32103625456
41,104,2,288,-0.5,-0.5,-0.5,2,2,0.2,2,610,1,1,610,0,0,0,0,-0.651180885364638,-0.651180885364638,750,1,0,congruent,0,3832.3755935081,4419.54335408163
41,104,2,289,-0.5,-0.5,0.5,4,3,0.2,4,965,1,0,965,0,0,0,0,1.68929474682099,1.68929474682099,750,0,0,incongruent,0,1340.73473814704,1613.00677281776
41,104,2,290,-0.5,0.5,-0.5,2,2,0.2,2,782,1,0,782,0,0,0,0.4,0.482796040652061,0.482796040652061,750,1,0,congruent,0,14962.8616409285,3867.29930324379
41,104,2,293,-0.5,-0.5,0.5,2,4,0,2,889,1,0,889,0,0,0,0,1.18823517486012,1.18823517486012,750,0,0,incongruent,0,3723.97253501403,767.467288888399
41,104,2,295,0.5,-0.5,0,3,NaN,0,3,445,1,1,445,0,0,0,NaN,-1.7390075876481,-1.7390075876481,750,0,0,neutral,0,3194.38317496622,3891.5135252585
41,104,2,296,0.5,-0.5,-0.5,2,2,0,2,604,1,1,604,0,0,0,NaN,-0.690738219993127,-0.690738219993127,750,1,0,congruent,0,3730.88231236103,4753.4474448891
41,104,2,298,-0.5,-0.5,-0.5,3,3,0,3,861,1,0,861,0,0,0,0,1.00363427992717,1.00363427992717,750,1,0,congruent,0,11520.7386216737,10011.8065115265
41,104,2,299,0.5,0.5,-0.5,1,1,0,1,609,1,1,609,1,0,0,NaN,-0.657773774469386,-0.657773774469386,750,1,0,congruent,1,13475.4055010297,2044.26445304497
41,104,2,300,-0.5,0.5,0.5,4,3,0.2,2,722,0,1,NaN,0,0,0.4,0.2,0.087222694367166,NaN,750,0,1,incongruent,0,4416.95594256811,1306.05110067265
41,104,3,301,-0.5,0.5,0,1,NaN,0.2,1,677,1,1,677,1,0,0.4,0.2,-0.209457315346505,-0.209457315346505,750,0,0,neutral,0.1,4039.23423829324,2491.6925092407
41,104,3,302,-0.5,0.5,-0.5,4,4,0.4,4,594,1,1,594,1,0,0.6,0.2,-0.75666711104061,-0.75666711104061,750,1,0,congruent,0.1,1425.28372880166,6357.54816778858
41,104,3,303,-0.5,0.5,0.5,3,1,0.6,3,337,1,1,337,1,0,0.8,0.4,-2.45103961096091,-2.45103961096091,750,0,0,incongruent,0.1,6030.56471623895,1915.59466105786
41,104,3,305,0.5,0.5,-0.5,1,1,0.8,1,656,1,1,656,1,0,1,NaN,-0.347907986546218,-0.347907986546218,750,1,0,congruent,1,3223.07801283043,1177.76438577236
41,104,3,306,0.5,0.5,0.5,4,3,0.8,4,790,1,0,790,0,0,1.4,NaN,0.535539153490047,0.535539153490047,750,0,0,incongruent,0,2349.76927369251,2103.60085410971
41,104,3,307,0.5,-0.5,0,2,NaN,0.8,2,597,1,1,597,1,0,1.2,NaN,-0.736888443726365,-0.736888443726365,750,0,0,neutral,1,401.316852971416,8767.70318973683
41,104,3,309,-0.5,-0.5,0,4,NaN,0.6,4,787,1,0,787,0,0,1.2,0,0.515760486175802,0.515760486175802,750,0,0,neutral,0,1553.43822695467,2658.87007495853
41,104,3,310,0.5,0.5,0.5,2,3,0.6,2,430,1,1,430,1,0,0.8,NaN,-1.83790092421932,-1.83790092421932,750,0,0,incongruent,1,3062.0470868024,6970.25828578033
41,104,3,311,0.5,0.5,0,4,NaN,0.6,3,784,0,0,NaN,0,0,0.8,NaN,0.495981818861557,NaN,750,0,1,neutral,0,715.478289856721,2538.57439982854
41,104,3,314,-0.5,-0.5,-0.5,1,1,0.2,1,835,1,0,835,0,0,0.8,0,0.832219163203718,0.832219163203718,750,1,0,congruent,0,13384.0650423704,4912.95579165635
41,104,3,315,0.5,-0.5,-0.5,3,3,0.2,3,925,1,0,925,1,0,0.8,NaN,1.42557918263106,1.42557918263106,750,1,0,congruent,1,1577.02355419977,5496.68489451431
41,104,3,316,0.5,-0.5,0,2,NaN,0.2,2,556,1,1,556,0,0,0.8,NaN,-1.00719689702104,-1.00719689702104,750,0,0,neutral,0,15680.206427288,13872.358212095
41,104,3,317,-0.5,-0.5,-0.5,3,3,0.2,3,840,1,0,840,0,0,0.8,0,0.865183608727459,0.865183608727459,750,1,0,congruent,0,2261.80445215487,10309.7430398899
41,104,3,319,0.5,-0.5,0.5,4,2,0.4,3,822,0,0,NaN,0,0,0.6,NaN,0.746511604841991,NaN,750,0,1,incongruent,0,3894.33749616346,11148.0493357027
41,104,3,320,0.5,0.5,-0.5,3,3,0.4,3,592,1,1,592,1,0,0.6,NaN,-0.769852889250106,-0.769852889250106,750,1,0,congruent,1,13149.7207019689,4470.44559164809
41,104,3,321,0.5,0.5,-0.5,4,4,0.6,4,753,1,0,753,0,0,0.6,NaN,0.291602256614362,0.291602256614362,750,1,0,congruent,0,1521.52659539625,2602.56692390859
41,104,3,322,-0.5,-0.5,-0.5,2,2,0.4,3,554,0,1,NaN,0,0,0.6,0,-1.02038267523054,NaN,750,0,1,congruent,0,4934.41033226747,1508.51509776219
41,104,3,324,-0.5,0.5,0.5,3,2,0.4,3,955,1,0,955,0,0,0.8,0.6,1.62336585577351,1.62336585577351,750,0,0,incongruent,0,1975.34564556495,3761.85017391205
41,104,3,325,0.5,-0.5,0,4,NaN,0.4,1,829,0,0,NaN,0,0,0.8,NaN,0.792661828575229,NaN,750,0,1,neutral,0,698.219587805585,1386.07098586267
41,104,3,327,0.5,-0.5,0.5,1,3,0.4,3,945,0,0,NaN,0,0,0.4,NaN,1.55743696472603,NaN,750,1,0,incongruent,0,3735.31101303143,17725.8050402915
41,104,3,328,-0.5,-0.5,0,3,NaN,0.4,3,999,1,0,999,0,0,0.4,0,1.91345297638243,1.91345297638243,750,0,0,neutral,0,2638.51548688358,4672.03390003207
41,104,3,330,-0.5,0.5,-0.5,3,3,0.4,3,693,1,1,693,1,0,0.2,0.4,-0.103971089670533,-0.103971089670533,750,1,0,congruent,0.1,8607.38313554624,20677.5214645477
41,104,3,331,-0.5,0.5,0.5,4,1,0.4,3,709,0,1,NaN,0,0,0.4,0.6,0.00151513600543879,NaN,750,0,1,incongruent,0,2844.84313675768,3395.53300808333
41,104,3,333,-0.5,0.5,0,1,NaN,0.4,1,786,1,0,786,0,0,0.6,0.6,0.509167597071054,0.509167597071054,750,0,0,neutral,0,982.24743214977,4387.32330172095
41,104,3,336,0.5,-0.5,-0.5,2,2,0.2,3,902,0,0,NaN,0,0,0.2,NaN,1.27394273322185,NaN,750,0,1,congruent,0,1615.78908747745,5591.88507303711
41,104,3,339,-0.5,-0.5,0,2,NaN,0,2,932,1,0,932,0,0,0,0.2,1.4717294063643,1.4717294063643,750,0,0,neutral,0,2861.19801421374,3196.1944777063
41,104,3,340,0.5,-0.5,-0.5,1,1,0,3,689,0,1,NaN,0,0,0,NaN,-0.130342646089526,NaN,750,0,1,congruent,0,2425.53435537862,10010.6828104658
41,104,3,342,0.5,-0.5,-0.5,1,1,0,1,595,1,1,595,0,0,0,NaN,-0.750074221935862,-0.750074221935862,750,1,0,congruent,0,16329.5462737442,13808.6759366547
41,104,3,345,0.5,0.5,0.5,3,2,0,2,511,0,1,NaN,0,0,0,NaN,-1.30387690673471,NaN,750,1,0,incongruent,0,2188.95701999244,2453.20769347262
41,104,3,346,0.5,-0.5,0.5,2,3,0,2,556,1,1,556,0,0,0,NaN,-1.00719689702104,-1.00719689702104,750,0,0,incongruent,0,1841.26442484649,824.75811273543
41,104,3,347,0.5,-0.5,-0.5,4,4,0,4,859,1,0,859,0,0,0,NaN,0.990448501717676,0.990448501717676,750,1,0,congruent,0,5675.30281638349,5715.94996719628
41,104,3,348,-0.5,-0.5,-0.5,3,3,0,3,523,1,1,523,0,0,0,0.2,-1.22476223747774,-1.22476223747774,750,1,0,congruent,0,7865.39355849335,435.057287682998
41,104,3,349,0.5,0.5,0,2,NaN,0,2,437,1,1,437,1,0,0,NaN,-1.79175070048608,-1.79175070048608,750,0,0,neutral,1,8248.98985381099,2268.36238359981
41,104,3,350,0.5,0.5,0.5,1,4,0.2,1,817,1,0,817,0,0,0.4,NaN,0.71354715931825,0.71354715931825,750,0,0,incongruent,0,2665.02344348744,2650.10568352199
41,104,3,352,0.5,-0.5,0.5,1,3,0.2,2,675,0,1,NaN,0,0,0.4,NaN,-0.222643093556002,NaN,750,0,1,incongruent,0,918.713845957336,1214.20442731758
41,104,3,354,-0.5,-0.5,0,1,NaN,0.2,1,708,1,1,708,0,0,0.4,0.2,-0.00507775309930946,-0.00507775309930946,750,0,0,neutral,0,1647.73228470444,1126.79679695298
41,104,3,356,0.5,-0.5,-0.5,1,1,0.2,1,587,1,1,587,0,0,0,NaN,-0.802817334773848,-0.802817334773848,750,1,0,congruent,0,2322.21026952432,7531.01274511601
41,104,3,357,-0.5,-0.5,0,4,NaN,0.2,3,707,0,1,NaN,0,0,0,0,-0.0116706422040577,NaN,750,0,1,neutral,0,1318.37662245395,2282.03785787064
41,104,3,358,0.5,-0.5,-0.5,2,2,0.2,2,574,1,1,574,0,0,0,NaN,-0.888524893135575,-0.888524893135575,750,1,0,congruent,0,3111.3352020535,3246.1971874647
41,104,3,360,0.5,0.5,-0.5,3,3,0.2,3,844,1,0,844,0,0,0,NaN,0.891555165146452,0.891555165146452,750,1,0,congruent,0,7861.39385076077,2256.96304866858
41,104,3,361,0.5,-0.5,-0.5,2,2,0.2,2,876,1,0,876,0,0,0,NaN,1.1025276164984,1.1025276164984,750,1,0,congruent,0,1584.49811026801,2391.9995836493
41,104,3,362,0.5,0.5,0,4,NaN,0.2,4,925,1,0,925,0,0,0,NaN,1.42557918263106,1.42557918263106,750,0,0,neutral,0,5033.8788848692,2495.62143236327
41,104,3,364,-0.5,-0.5,0.5,1,4,0.2,1,676,1,1,676,0,0,0,0,-0.216050204451253,-0.216050204451253,750,0,0,incongruent,0,1266.919502281,2446.03079253029
41,104,3,366,0.5,-0.5,0.5,4,2,0.2,4,621,1,1,621,0,0,0,NaN,-0.578659105212407,-0.578659105212407,750,0,0,incongruent,0,4984.92242542476,3893.25650901514
41,104,3,367,-0.5,-0.5,-0.5,1,1,0.2,1,541,1,1,541,0,0,0,0,-1.10609023359227,-1.10609023359227,750,1,0,congruent,0,5283.16498877487,13171.7660856412
41,104,3,368,0.5,-0.5,-0.5,2,2,0.2,2,797,1,0,797,1,0,0,NaN,0.581689377223285,0.581689377223285,750,1,0,congruent,1,1156.62687906602,2642.85586524556
41,104,3,369,-0.5,-0.5,0,1,NaN,0.2,1,776,1,0,776,1,0,0.4,0,0.443238706023571,0.443238706023571,750,0,0,neutral,0.1,493.103412883686,5553.57345578719
41,104,3,370,0.5,-0.5,0.5,4,2,0.2,2,904,0,0,NaN,1,0,0.6,NaN,1.28712851143135,NaN,750,1,0,incongruent,1,3934.48516398715,2217.68177743032
41,104,3,372,0.5,-0.5,0.5,2,3,0.2,3,701,0,1,NaN,0,0,1,NaN,-0.0512279768325472,NaN,750,1,0,incongruent,0,3224.3484277406,2629.34956100844
41,104,3,373,-0.5,0.5,0,1,NaN,0.2,2,619,0,1,NaN,0,0,1,0,-0.591844883421904,NaN,750,0,1,neutral,0,1696.60619472255,4476.03362838875
41,104,3,374,0.5,0.5,-0.5,4,4,0,4,642,1,1,642,1,0,0.6,NaN,-0.440208434012694,-0.440208434012694,750,1,0,congruent,1,2016.03134722854,1740.33593818402
41,104,3,375,0.5,-0.5,0.5,1,3,0.2,2,819,0,0,NaN,0,0,0.8,NaN,0.726732937527746,NaN,750,0,1,incongruent,0,3892.37001197259,1594.10899009395
41,104,3,377,0.5,0.5,-0.5,1,1,0.2,1,822,1,0,822,0,0,0.4,NaN,0.746511604841991,0.746511604841991,750,1,0,congruent,0,2528.0405850976,3681.79123235605
41,104,3,378,0.5,0.5,0,2,NaN,0.2,2,561,1,1,561,1,0,0.4,NaN,-0.974232451497302,-0.974232451497302,750,0,0,neutral,1,4806.21067298797,1866.84307165845
41,104,3,379,0.5,-0.5,0.5,4,1,0.4,4,859,1,0,859,0,0,0.8,NaN,0.990448501717676,0.990448501717676,750,0,0,incongruent,0,2050.91084767114,980.32550239292
41,104,3,380,-0.5,0.5,0,3,NaN,0.4,3,565,1,1,565,1,0,0.4,0,-0.947860895078309,-0.947860895078309,750,0,0,neutral,0.1,1666.3239878078,2373.33110666362
41,104,3,381,0.5,-0.5,-0.5,2,2,0.6,2,514,1,1,514,0,0,0.6,NaN,-1.28409823942047,-1.28409823942047,750,1,0,congruent,0,2975.46577063341,3503.27619040552
41,104,3,382,-0.5,0.5,-0.5,4,4,0.6,4,802,1,0,802,0,0,0.6,0.2,0.614653822747026,0.614653822747026,750,1,0,congruent,0,4042.25866877941,603.408629828708
41,104,3,383,-0.5,0.5,0,1,NaN,0.4,1,563,1,1,563,1,0,0.6,0.2,-0.961046673287805,-0.961046673287805,750,0,0,neutral,0.1,5696.55147789275,5401.8633564787
41,104,3,385,-0.5,0.5,-0.5,4,4,0.6,4,719,1,1,719,1,0,0.4,0.4,0.0674440270529213,0.0674440270529213,750,1,0,congruent,0.1,4323.16298182662,3914.1539497177
41,104,3,386,0.5,-0.5,0,3,NaN,0.6,3,602,1,1,602,0,0,0.4,NaN,-0.703923998202624,-0.703923998202624,750,0,0,neutral,0,3928.9840442453,4287.32787576767
41,104,3,388,0.5,0.5,0,2,NaN,0.4,2,592,1,1,592,1,0,0.4,NaN,-0.769852889250106,-0.769852889250106,750,0,0,neutral,1,2782.20973223903,3956.99913016173
41,104,3,390,-0.5,-0.5,0.5,1,2,0.6,2,497,0,1,NaN,0,0,1,0.2,-1.39617735420119,NaN,750,1,0,incongruent,0,2690.67332494356,7088.74954287136
41,104,3,391,-0.5,0.5,0.5,2,3,0.6,2,349,1,1,349,1,0,0.8,0.6,-2.37192494170393,-2.37192494170393,750,0,0,incongruent,0.1,1457.01144174944,3911.28316887071
41,104,3,393,0.5,-0.5,-0.5,1,1,0.8,1,684,1,1,684,1,0,1.2,NaN,-0.163307091613267,-0.163307091613267,750,1,0,congruent,1,1922.6922968704,3302.52382459936
41,104,3,394,-0.5,0.5,-0.5,4,4,0.8,4,382,1,1,382,1,0,1.2,0.8,-2.15435960124724,-2.15435960124724,750,1,0,congruent,0.1,768.387153101602,2687.75299081357
41,104,3,395,-0.5,0.5,0,2,NaN,0.8,2,409,1,1,409,1,0,1,1,-1.97635159541904,-1.97635159541904,750,0,0,neutral,0.1,1549.33484324515,1155.90531785867
41,104,3,396,-0.5,-0.5,-0.5,1,1,1,1,598,1,1,598,1,0,1.2,0.2,-0.730295554621617,-0.730295554621617,750,1,0,congruent,0.1,13708.6853511787,1369.73531419284
41,104,3,397,0.5,0.5,-0.5,3,3,1,3,413,1,1,413,1,0,1.2,NaN,-1.94998003900004,-1.94998003900004,750,1,0,congruent,1,810.93862296655,3938.73833398655
41,104,3,398,0.5,0.5,0,2,NaN,1,2,477,1,1,477,1,0,1.4,NaN,-1.52803513629615,-1.52803513629615,750,0,0,neutral,1,4544.52359427,1100.36440605838
41,104,3,399,0.5,0.5,-0.5,3,3,1,3,625,1,1,625,1,0,1.4,NaN,-0.552287548793414,-0.552287548793414,750,1,0,congruent,1,3823.08683356201,1139.36667208226
41,104,3,400,0.5,-0.5,0,1,NaN,1,1,355,1,1,355,1,0,1.6,NaN,-2.33236760707544,-2.33236760707544,750,0,0,neutral,1,7221.8754594026,1676.34395248117
41,104,3,401,0.5,0.5,-0.5,4,4,1,4,882,1,0,882,0,0,1.8,NaN,1.14208495112689,1.14208495112689,750,1,0,congruent,0,11372.8923128693,3846.55078814448
41,104,3,402,0.5,0.5,-0.5,2,2,0.8,2,282,1,1,282,1,0,1.6,NaN,-2.81364851172206,-2.81364851172206,750,1,0,congruent,1,1989.54753035125,2493.14816936084
41,104,3,403,0.5,-0.5,0.5,4,1,0.8,4,775,1,0,775,1,0,1.6,NaN,0.436645816918823,0.436645816918823,750,0,0,incongruent,1,1592.72303393482,532.321809047749
41,104,3,404,0.5,0.5,-0.5,3,3,0.8,4,673,0,1,NaN,0,0,1.6,NaN,-0.235828871765498,NaN,750,0,1,congruent,0,10378.106352063,9401.12014284858
41,104,3,406,0.5,-0.5,0.5,4,2,0.6,4,716,1,1,716,0,0,1,NaN,0.0476653597386765,0.0476653597386765,750,0,0,incongruent,0,18831.9906355322,4230.56958273681
41,104,3,407,0.5,-0.5,-0.5,1,1,0.6,1,523,1,1,523,1,0,1,NaN,-1.22476223747774,-1.22476223747774,750,1,0,congruent,1,2242.55705042428,5935.66167931029
41,104,3,408,-0.5,-0.5,0,4,NaN,0.6,4,884,1,0,884,1,0,1,0.6,1.15527072933638,1.15527072933638,750,0,0,neutral,0.1,3190.08996403631,5100.06093538853
41,104,3,409,-0.5,-0.5,-0.5,2,2,0.6,3,797,0,0,NaN,1,0,0.8,0.8,0.581689377223285,NaN,750,0,1,congruent,0.1,5647.94178568413,5074.50058831067
41,104,3,410,-0.5,0.5,-0.5,1,1,0.6,1,743,1,1,743,1,0,1,1,0.225673365566879,0.225673365566879,750,1,0,congruent,0.1,9931.82995675057,5520.39287486718
41,104,3,411,0.5,0.5,0,2,NaN,0.6,2,705,1,1,705,1,0,1,NaN,-0.0248564204135542,-0.0248564204135542,750,0,0,neutral,1,996.17210836262,4748.22400535878
41,104,3,413,-0.5,0.5,-0.5,4,4,0.6,4,673,1,1,673,1,0,1,1,-0.235828871765498,-0.235828871765498,750,1,0,congruent,0.1,13805.8999608362,2535.54366024414
41,104,3,414,-0.5,0.5,0,3,NaN,0.6,3,576,1,1,576,1,0,1,1,-0.875339114926078,-0.875339114926078,750,0,0,neutral,0.1,6360.05660348161,6450.23684501835
41,104,3,415,0.5,0.5,-0.5,2,2,0.8,2,497,1,1,497,1,0,1,NaN,-1.39617735420119,-1.39617735420119,750,1,0,congruent,1,2123.35364182501,4311.07907412482
41,104,3,416,-0.5,-0.5,0,1,NaN,0.8,1,814,1,0,814,1,0,1.2,0.8,0.693768492004005,0.693768492004005,750,0,0,neutral,0.1,3782.57844846656,3166.26138037214
41,104,3,417,0.5,-0.5,-0.5,3,3,0.8,3,549,1,1,549,0,0,1,NaN,-1.05334712075428,-1.05334712075428,750,1,0,congruent,0,2800.61033682523,5995.64168455785
41,104,3,418,0.5,-0.5,0,4,NaN,0.8,4,649,1,1,649,1,0,1,NaN,-0.394058210279456,-0.394058210279456,750,0,0,neutral,1,4756.99777852004,4896.94234396927
41,104,3,419,0.5,0.5,-0.5,1,1,0.8,1,577,1,1,577,1,0,1.2,NaN,-0.86874622582133,-0.86874622582133,750,1,0,congruent,1,5408.51778293457,6031.00186934806
41,104,3,420,-0.5,-0.5,0.5,3,4,0.8,2,532,0,1,NaN,1,0,1.4,1,-1.165426235535,NaN,750,0,1,incongruent,0.1,2344.08077960071,4271.09282221432
41,104,3,421,0.5,-0.5,-0.5,1,1,0.8,1,822,1,0,822,0,0,1.2,NaN,0.746511604841991,0.746511604841991,750,1,0,congruent,0,6680.44374401648,1235.13324667009
41,104,3,423,-0.5,-0.5,0.5,4,2,0.8,4,813,1,0,813,1,0,1,1,0.687175602899257,0.687175602899257,750,0,0,incongruent,0.1,1755.6399918771,3002.45909870883
41,104,3,424,0.5,-0.5,0,1,NaN,0.8,1,716,1,1,716,1,0,0.8,NaN,0.0476653597386765,0.0476653597386765,750,0,0,neutral,1,1754.17969703012,1005.31029297735
41,104,3,425,-0.5,-0.5,0.5,4,2,0.8,4,842,1,0,842,1,0,0.8,1,0.878369386936956,0.878369386936956,750,0,0,incongruent,0.1,3115.11369071428,726.593705112427
41,104,3,426,0.5,-0.5,0.5,1,3,0.8,1,756,1,0,756,1,0,0.8,NaN,0.311380923928607,0.311380923928607,750,0,0,incongruent,1,4627.864289542,694.629871274422
41,104,3,427,0.5,0.5,0.5,3,1,0.8,3,706,1,1,706,1,0,1.2,NaN,-0.018263531308806,-0.018263531308806,750,0,0,incongruent,1,7057.28519349741,2666.40143944595
41,104,3,428,0.5,-0.5,-0.5,2,2,0.8,2,480,1,1,480,0,0,1.6,NaN,-1.50825646898191,-1.50825646898191,750,1,0,congruent,0,2756.82742520571,3815.73227576561
41,104,3,429,-0.5,0.5,0,1,NaN,0.8,1,629,1,1,629,1,0,1.4,1,-0.525915992374421,-0.525915992374421,750,0,0,neutral,0.1,5644.63862548183,741.598431935714
41,104,3,431,0.5,0.5,0.5,4,1,0.8,4,608,1,1,608,1,0,1.4,NaN,-0.664366663574134,-0.664366663574134,750,0,0,incongruent,1,7003.59555043457,5474.42300913602
41,104,3,432,0.5,0.5,-0.5,2,2,0.8,2,818,1,0,818,0,0,1.4,NaN,0.720140048422998,0.720140048422998,750,1,0,congruent,0,7512.43270308381,3459.64928944318
41,104,3,435,-0.5,0.5,0.5,3,1,0.8,4,799,0,0,NaN,0,0,1,1,0.594875155432781,NaN,750,0,1,incongruent,0,1139.32835791914,4503.60648938819
41,104,3,436,-0.5,0.5,-0.5,4,4,0.6,4,674,1,1,674,1,0,0.6,0.8,-0.22923598266075,-0.22923598266075,750,1,0,congruent,0.1,6041.24407823725,2512.02786130638
41,104,3,437,-0.5,-0.5,0.5,3,1,0.6,3,578,1,1,578,1,0,0.4,0.8,-0.862153336716582,-0.862153336716582,750,0,0,incongruent,0.1,2924.93186165815,882.447134376022
41,104,3,438,-0.5,0.5,0,2,NaN,0.6,2,958,1,0,958,0,0,0.6,0.8,1.64314452308775,1.64314452308775,750,0,0,neutral,0,4355.54503317297,5513.77338220706
41,104,3,439,-0.5,-0.5,-0.5,1,1,0.4,1,683,1,1,683,1,0,0.4,0.8,-0.169899980718016,-0.169899980718016,750,1,0,congruent,0.1,1960.47641363148,884.10522462425
41,104,3,442,-0.5,0.5,-0.5,4,4,0.2,4,682,1,1,682,1,0,0.4,0.4,-0.176492869822764,-0.176492869822764,750,1,0,congruent,0.1,6452.44378317603,1761.64278070613
41,104,3,443,-0.5,-0.5,-0.5,2,2,0.4,2,703,1,1,703,0,0,0.4,0.8,-0.0380421986230507,-0.0380421986230507,750,1,0,congruent,0,1521.10947426358,7894.05604699979
41,104,3,444,-0.5,0.5,0,3,NaN,0.4,3,824,1,0,824,0,0,0.4,0.4,0.759697383051487,0.759697383051487,750,0,0,neutral,0,2027.69875982075,6099.0669156227
41,104,3,445,0.5,-0.5,-0.5,2,2,0.2,2,606,1,1,606,0,0,0.2,NaN,-0.677552441783631,-0.677552441783631,750,1,0,congruent,0,20149.6629793442,1809.32783531888
41,104,3,448,0.5,0.5,-0.5,1,1,0.2,2,598,0,1,NaN,0,0,0,NaN,-0.730295554621617,NaN,750,0,1,congruent,0,1423.70953170534,7160.82754046049
41,104,3,450,-0.5,-0.5,0,4,NaN,0.2,4,446,1,1,446,0,0,0,0.4,-1.73241469854335,-1.73241469854335,750,0,0,neutral,0,2814.11575529824,3278.5909866018
41,104,4,452,0.5,0.5,0,3,NaN,0.2,3,572,1,1,572,1,0,0,NaN,-0.901710671345071,-0.901710671345071,750,0,0,neutral,1,1608.81890510154,2314.31246003708
41,104,4,453,-0.5,0.5,-0.5,1,1,0.4,1,741,1,1,741,1,0,0.4,0.4,0.212487587357383,0.212487587357383,750,1,0,congruent,0.1,4497.23286911082,8006.37304165095
41,104,4,454,-0.5,-0.5,0.5,4,3,0.4,4,548,1,1,548,0,0,0.6,0.4,-1.05994000985903,-1.05994000985903,750,0,0,incongruent,0,2411.26335965865,4495.56795871341
41,104,4,456,0.5,0.5,-0.5,3,3,0.4,3,510,1,1,510,1,0,0.6,NaN,-1.31046979583946,-1.31046979583946,750,1,0,congruent,1,2866.35651418673,3886.32052586663
41,104,4,457,-0.5,-0.5,0,2,NaN,0.6,2,551,1,1,551,1,0,1,0,-1.04016134254478,-1.04016134254478,750,0,0,neutral,0.1,3824.60764188325,1616.01498003877
41,104,4,458,-0.5,0.5,-0.5,3,3,0.6,3,689,1,1,689,1,0,0.8,0.4,-0.130342646089526,-0.130342646089526,750,1,0,congruent,0.1,1739.76937719729,1056.84242398899
41,104,4,460,-0.5,0.5,0,3,NaN,0.8,2,680,0,1,NaN,0,0,1.2,0.6,-0.18967864803226,NaN,750,0,1,neutral,0,6459.70783465892,3615.27677520807
41,104,4,461,0.5,-0.5,-0.5,2,2,0.8,2,653,1,1,653,1,0,1.2,NaN,-0.367686653860463,-0.367686653860463,750,1,0,congruent,1,2604.52880957284,6076.91063280242
41,104,4,462,0.5,-0.5,0,1,NaN,0.8,1,756,1,0,756,0,0,1.2,NaN,0.311380923928607,0.311380923928607,750,0,0,neutral,0,1963.81050296943,4186.50308729679
41,104,4,463,0.5,-0.5,-0.5,2,2,0.8,2,680,1,1,680,1,0,1,NaN,-0.18967864803226,-0.18967864803226,750,1,0,congruent,1,2454.89310529003,9737.87996945101
41,104,4,464,0.5,-0.5,-0.5,4,4,0.8,4,814,1,0,814,1,0,1.2,NaN,0.693768492004005,0.693768492004005,750,1,0,congruent,1,2566.99813632354,4047.92549394039
41,104,4,467,0.5,-0.5,0,2,NaN,0.6,2,641,1,1,641,0,0,1.2,NaN,-0.446801323117442,-0.446801323117442,750,0,0,neutral,0,4139.91101341227,3873.73008715865
41,104,4,468,0.5,-0.5,0.5,4,2,0.6,3,631,0,1,NaN,0,0,1.2,NaN,-0.512730214164925,NaN,750,0,1,incongruent,0,2504.22857370802,898.229445712664
41,104,4,469,0.5,-0.5,0.5,2,4,0.6,2,791,1,0,791,1,0,0.8,NaN,0.542132042594795,0.542132042594795,750,0,0,incongruent,1,3355.59965639057,4399.17926434573
41,104,4,470,0.5,0.5,0,1,NaN,0.6,1,856,1,0,856,0,0,0.8,NaN,0.970669834403431,0.970669834403431,750,0,0,neutral,0,5506.7919449921,2919.16166843555
41,104,4,471,-0.5,-0.5,-0.5,3,3,0.4,3,920,1,0,920,0,0,0.4,0.2,1.39261473710732,1.39261473710732,750,1,0,congruent,0,3432.13099874822,3382.98939699126
41,104,4,472,0.5,-0.5,-0.5,1,1,0.4,1,661,1,1,661,1,0,0.4,NaN,-0.314943541022477,-0.314943541022477,750,1,0,congruent,1,6445.88892068773,1016.27126063267
41,104,4,473,-0.5,0.5,-0.5,2,2,0.4,2,738,1,1,738,1,0,0.8,0.6,0.192708920043138,0.192708920043138,750,1,0,congruent,0.1,2428.80266416291,2557.80412565743
41,104,4,475,0.5,0.5,0.5,2,1,0.4,1,753,0,0,NaN,0,0,0.6,NaN,0.291602256614362,NaN,750,1,0,incongruent,0,2843.84151400584,2061.23200213561
41,104,4,476,-0.5,0.5,-0.5,4,4,0.2,4,568,1,1,568,1,0,0.6,0.6,-0.928082227764064,-0.928082227764064,750,1,0,congruent,0.1,3130.71852587179,1171.48283056508
41,104,4,477,0.5,0.5,0,3,NaN,0.4,3,567,1,1,567,1,0,0.8,NaN,-0.934675116868813,-0.934675116868813,750,0,0,neutral,1,2662.17469996567,1569.07775244539
41,104,4,478,-0.5,0.5,0.5,4,2,0.6,4,894,1,0,894,0,0,0.8,0.8,1.22119962038386,1.22119962038386,750,0,0,incongruent,0,1133.34819093637,5297.18010400216
41,104,4,479,-0.5,0.5,0,2,NaN,0.4,2,619,1,1,619,1,0,0.6,0.6,-0.591844883421904,-0.591844883421904,750,0,0,neutral,0.1,3051.32250339015,990.57548555386
41,104,4,480,0.5,-0.5,-0.5,3,3,0.6,4,909,0,0,NaN,1,0,0.8,NaN,1.32009295695509,NaN,750,0,1,congruent,1,4047.2581307946,3560.7113414712
41,104,4,481,-0.5,0.5,-0.5,1,1,0.6,1,604,1,1,604,1,0,1.2,0.6,-0.690738219993127,-0.690738219993127,750,1,0,congruent,0.1,2108.42640429651,1787.44814733585
41,104,4,482,-0.5,-0.5,-0.5,4,4,0.8,4,700,1,1,700,1,0,1.2,0.2,-0.0578208659372954,-0.0578208659372954,750,1,0,congruent,0.1,2427.15488494835,2385.06032019137
41,104,4,483,-0.5,-0.5,0.5,1,2,0.8,1,838,1,0,838,1,0,1,0.4,0.851997830517963,0.851997830517963,750,0,0,incongruent,0.1,1011.59627056913,3195.55693806063
41,104,4,484,-0.5,-0.5,-0.5,3,3,0.8,3,897,1,0,897,1,0,1.2,0.6,1.24097828769811,1.24097828769811,750,1,0,congruent,0.1,2109.02952812105,3654.7661231563
41,104,4,485,-0.5,0.5,-0.5,4,4,0.8,4,683,1,1,683,1,0,1.2,0.8,-0.169899980718016,-0.169899980718016,750,1,0,congruent,0.1,2931.57705226033,7997.70709816513
41,104,4,488,0.5,-0.5,-0.5,2,2,0.6,2,828,1,0,828,1,0,0.6,NaN,0.78606893947048,0.78606893947048,750,1,0,congruent,1,2150.64321181067,5129.28550997023
41,104,4,490,-0.5,0.5,0.5,2,1,0.6,2,552,1,1,552,1,0,0.6,0.6,-1.03356845344004,-1.03356845344004,750,0,0,incongruent,0.1,2001.38643789131,1375.85624817892
41,104,4,492,-0.5,-0.5,0.5,2,3,0.4,2,643,1,1,643,1,0,0.6,0.6,-0.433615544907946,-0.433615544907946,750,0,0,incongruent,0.1,5960.70316320311,1935.37904640617
41,104,4,495,0.5,-0.5,0.5,2,1,0.2,2,664,1,1,664,1,0,0.4,NaN,-0.295164873708232,-0.295164873708232,750,0,0,incongruent,1,2204.77339565979,3066.1756628965
41,104,4,499,0.5,-0.5,-0.5,2,2,0.4,2,578,1,1,578,0,0,0.8,NaN,-0.862153336716582,-0.862153336716582,750,1,0,congruent,0,3657.4873511977,2438.44674159819
41,104,4,500,0.5,0.5,0,4,NaN,0.4,1,750,0,1,NaN,0,0,0.8,NaN,0.271823589300117,NaN,750,0,1,neutral,0,2619.01151695336,6332.44096649533
41,104,4,503,0.5,0.5,0,2,NaN,0.2,2,465,1,1,465,1,0,0,NaN,-1.60714980555313,-1.60714980555313,750,0,0,neutral,1,2941.64892477808,3776.62814998848
41,104,4,504,-0.5,-0.5,-0.5,4,4,0.4,4,909,1,0,909,1,0,0.4,0.4,1.32009295695509,1.32009295695509,750,1,0,congruent,0.1,3391.20565447175,4208.5421729014
41,104,4,506,-0.5,-0.5,0,2,NaN,0.4,2,577,1,1,577,0,0,0.6,0.4,-0.86874622582133,-0.86874622582133,750,0,0,neutral,0,6058.41062098624,4704.96305552183
41,104,4,507,-0.5,-0.5,0.5,1,3,0.4,3,880,0,0,NaN,0,0,0.6,0.4,1.12889917291739,NaN,750,1,0,incongruent,0,770.033248459401,1272.15391475763
41,104,4,508,-0.5,-0.5,0,2,NaN,0.4,2,585,1,1,585,1,0,0.6,0.2,-0.816003112983344,-0.816003112983344,750,0,0,neutral,0.1,5087.86421519728,736.270792043226
41,104,4,510,-0.5,0.5,0.5,1,3,0.4,2,897,0,0,NaN,0,0,0.6,0.6,1.24097828769811,NaN,750,0,1,incongruent,0,5836.45772557587,533.317729134434
41,104,4,511,0.5,0.5,0.5,2,4,0.2,3,970,0,0,NaN,0,0,0.6,NaN,1.72225919234473,NaN,750,0,1,incongruent,0,912.51682370977,5184.56891091046
41,104,4,513,-0.5,-0.5,0,4,NaN,0.2,4,872,1,0,872,0,0,0.6,0.2,1.0761560600794,1.0761560600794,750,0,0,neutral,0,3368.94139904232,2138.24126622204
41,104,4,514,0.5,0.5,-0.5,3,3,0.2,3,586,1,1,586,1,0,0.4,NaN,-0.809410223878596,-0.809410223878596,750,1,0,congruent,1,1039.68026199501,1888.37861886309
41,104,4,517,0.5,0.5,0.5,3,4,0.4,3,911,1,0,911,0,0,0.4,NaN,1.33327873516458,1.33327873516458,750,0,0,incongruent,0,7465.32609099772,4604.3883330221
41,104,4,521,-0.5,0.5,0.5,2,1,0.2,1,743,0,1,NaN,0,0,0,0.4,0.225673365566879,NaN,750,1,0,incongruent,0,3833.33338480427,4699.05211461873
41,104,4,522,0.5,0.5,-0.5,3,3,0,2,778,0,0,NaN,0,0,0,NaN,0.456424484233068,NaN,750,0,1,congruent,0,1653.94255905189,1181.49759687231
41,104,4,524,-0.5,-0.5,0,1,NaN,0,1,639,1,1,639,0,0,0,0.2,-0.459987101326939,-0.459987101326939,750,0,0,neutral,0,2264.02668851653,2461.22093770123
41,104,4,526,0.5,0.5,0,4,NaN,0,4,830,1,0,830,0,0,0,NaN,0.799254717679977,0.799254717679977,750,0,0,neutral,0,2374.48051516888,5560.99331212983
41,104,4,527,-0.5,0.5,-0.5,3,3,0,3,461,1,1,461,1,0,0,0,-1.63352136197213,-1.63352136197213,750,1,0,congruent,0.1,6014.91018807458,2055.08271806702
41,104,4,528,0.5,0.5,0,4,NaN,0.2,4,651,1,1,651,1,0,0.2,NaN,-0.38087243206996,-0.38087243206996,750,0,0,neutral,1,2273.86221077219,3838.67866588826
41,104,4,529,-0.5,-0.5,0.5,3,1,0.4,3,440,1,1,440,0,0,0.6,0.2,-1.77197203317184,-1.77197203317184,750,0,0,incongruent,0,3187.91599440104,2803.15090475438
41,104,4,531,-0.5,0.5,-0.5,2,2,0.4,3,794,0,0,NaN,0,0,0.6,0.2,0.56191070990904,NaN,750,0,1,congruent,0,4673.53104072743,6706.69795346304
41,104,4,532,0.5,-0.5,0,1,NaN,0.4,1,618,1,1,618,0,0,0.6,NaN,-0.598437772526652,-0.598437772526652,750,0,0,neutral,0,5902.56727002587,3779.89141303145
41,104,4,533,0.5,-0.5,-0.5,4,4,0.4,4,628,1,1,628,0,0,0.4,NaN,-0.532508881479169,-0.532508881479169,750,1,0,congruent,0,11489.4558278235,1433.64115668024
41,104,4,534,0.5,-0.5,-0.5,1,1,0.4,1,804,1,0,804,0,0,0,NaN,0.627839600956522,0.627839600956522,750,1,0,congruent,0,1265.51977633637,9086.17841549018
41,104,4,535,0.5,0.5,0.5,2,4,0.4,3,975,0,0,NaN,0,0,0,NaN,1.75522363786847,NaN,750,0,1,incongruent,0,989.845066282047,1312.76776498218
41,104,4,540,-0.5,-0.5,0,3,NaN,0.2,3,352,1,1,352,0,0,0,0,-2.35214627438969,-2.35214627438969,750,0,0,neutral,0,4575.29689267954,2289.10929204601
41,104,4,545,-0.5,-0.5,-0.5,2,2,0.4,2,645,1,1,645,1,0,0.8,0.2,-0.420429766698449,-0.420429766698449,750,1,0,congruent,0.1,3238.57360000674,10516.7016815626
41,104,4,551,-0.5,0.5,0,3,NaN,0.4,3,654,1,1,654,1,0,0.2,0.2,-0.361093764755715,-0.361093764755715,750,0,0,neutral,0.1,7296.78373286757,2579.17395563549
41,104,4,559,0.5,0.5,-0.5,1,1,0.2,1,760,1,0,760,0,0,0.4,NaN,0.337752480347599,0.337752480347599,750,1,0,congruent,0,2237.18923043063,9041.15741957147
41,104,4,560,-0.5,0.5,0.5,2,4,0.2,2,954,1,0,954,0,0,0.4,0.2,1.61677296666876,1.61677296666876,750,0,0,incongruent,0,3754.38345112995,7340.7742732253
41,104,4,562,0.5,0.5,0.5,1,3,0,1,832,1,0,832,0,0,0,NaN,0.812440495889473,0.812440495889473,750,0,0,incongruent,0,3954.2809004909,9688.89486331508
41,104,4,564,0.5,0.5,-0.5,3,3,0,1,758,0,0,NaN,0,0,0,NaN,0.324566702138103,NaN,750,0,1,congruent,0,5933.89633459473,3950.85864898765
41,104,4,565,0.5,0.5,0,2,NaN,0,3,917,0,0,NaN,0,0,0,NaN,1.37283606979307,NaN,750,0,1,neutral,0,3224.36222593767,2004.02017106752
41,104,4,566,-0.5,0.5,0.5,1,4,0,1,968,1,0,968,0,0,0,0.2,1.70907341413524,1.70907341413524,750,0,0,incongruent,0,1597.35365076053,3204.53353202394
41,104,4,568,0.5,0.5,-0.5,4,4,0,4,511,1,1,511,1,0,0,NaN,-1.30387690673471,-1.30387690673471,750,1,0,congruent,1,816.323076763912,2585.47334265254
41,104,4,569,-0.5,-0.5,0,3,NaN,0.2,3,329,1,1,329,0,0,0.4,0.6,-2.5037827237989,-2.5037827237989,750,0,0,neutral,0,4042.33233962466,3858.51883986278
41,104,4,570,0.5,0.5,-0.5,1,1,0.2,1,629,1,1,629,1,0,0.4,NaN,-0.525915992374421,-0.525915992374421,750,1,0,congruent,1,2233.3235784021,3173.34619893902
41,104,4,571,-0.5,0.5,-0.5,2,2,0.4,2,323,1,1,323,1,0,0.8,0,-2.54334005842739,-2.54334005842739,750,1,0,congruent,0.1,3144.28527478566,12151.3231894477
41,104,4,572,0.5,-0.5,0.5,3,4,0.6,3,808,1,0,808,1,0,1,NaN,0.654211157375515,0.654211157375515,750,0,0,incongruent,1,3064.02044006884,3364.93808465476
41,104,4,573,-0.5,0.5,0,2,NaN,0.6,2,817,1,0,817,0,0,1.4,0.2,0.71354715931825,0.71354715931825,750,0,0,neutral,0,3753.09471033595,1513.09393679565
41,104,4,574,-0.5,-0.5,0.5,4,1,0.6,4,506,1,1,506,1,0,1,0.4,-1.33684135225846,-1.33684135225846,750,0,0,incongruent,0.1,5221.02275137854,8796.34552041468
41,104,4,575,-0.5,-0.5,0,2,NaN,0.6,2,744,1,1,744,1,0,1.2,0.4,0.232266254671627,0.232266254671627,750,0,0,neutral,0.1,4428.69349517541,4476.11924681425
41,104,4,576,-0.5,-0.5,0.5,4,2,0.6,4,742,1,1,742,0,0,1,0.6,0.219080476462131,0.219080476462131,750,0,0,incongruent,0,5664.34612030469,11453.5438794375
41,104,4,577,0.5,0.5,0,3,NaN,0.6,2,688,0,1,NaN,0,0,0.8,NaN,-0.136935535194274,NaN,750,0,1,neutral,0,4845.50435036747,1666.32408673454
41,104,4,578,-0.5,0.5,0.5,2,1,0.6,2,868,1,0,868,0,0,0.4,0.2,1.04978450366041,1.04978450366041,750,0,0,incongruent,0,3936.5557816207,5217.92840629073
41,104,4,579,0.5,0.5,0.5,1,4,0.4,1,721,1,1,721,1,0,0.4,NaN,0.0806298052624178,0.0806298052624178,750,0,0,incongruent,1,4051.38569098649,4171.27872329605
41,104,4,583,-0.5,0.5,-0.5,1,1,0.4,1,856,1,0,856,0,0,0.8,0.2,0.970669834403431,0.970669834403431,750,1,0,congruent,0,2031.25884454712,1446.71270979427
41,104,4,584,0.5,0.5,0,4,NaN,0.4,4,988,1,0,988,0,0,0.8,NaN,1.8409311962302,1.8409311962302,750,0,0,neutral,0,7826.04192001296,7752.44923422994
41,104,4,586,0.5,-0.5,-0.5,2,2,0.2,2,862,1,0,862,0,0,0.4,NaN,1.01022716903192,1.01022716903192,750,1,0,congruent,0,11196.8888610434,11586.9371321526
41,104,4,589,-0.5,0.5,-0.5,4,4,0.2,4,742,1,1,742,1,0,0.2,0.2,0.219080476462131,0.219080476462131,750,1,0,congruent,0.1,7031.22463696002,1633.76577476002
41,104,4,590,-0.5,-0.5,-0.5,3,3,0.2,3,731,1,1,731,0,0,0.4,0.6,0.1465586963099,0.1465586963099,750,1,0,congruent,0,4752.40174076682,2934.70072262432
41,104,4,593,0.5,0.5,0,4,NaN,0.2,3,825,0,0,NaN,0,0,0.4,NaN,0.766290272156236,NaN,750,0,1,neutral,0,1247.64399159387,4387.19390988066
41,104,4,598,-0.5,-0.5,-0.5,3,3,0.2,3,674,1,1,674,1,0,0,0.2,-0.22923598266075,-0.22923598266075,750,1,0,congruent,0.1,5195.46561870917,7892.83992206955
41,104,4,599,0.5,-0.5,0,4,NaN,0.2,4,712,1,1,712,0,0,0.2,NaN,0.0212938033196835,0.0212938033196835,750,0,0,neutral,0,5260.11085466108,2716.53134276611
41,104,4,600,-0.5,0.5,-0.5,3,3,0.2,3,566,1,1,566,1,0,0.2,0.2,-0.941268005973561,-0.941268005973561,750,1,0,congruent,0.1,3499.43181450992,416.032897585324
