subid,vers,block,trial,rewlvl,efflvl,congruency,targetresp,distractorresp,rollingefflvl,resp,rt,acc,fast,accrt,isrewarded,ismiss,runavgrrgen,runavgrrcond,zrt,acczrt,rtthreshold,isdisterror,isranderror,congruence,feedback,fcz_resp_theta,fcz_resp_theta_baseline
42,104,1,2,-0.5,0.5,-0.5,2,2,0.8,2,518,1,1,518,1,0,0.4,0,-0.736602614569167,-0.736602614569167,750,1,0,congruent,0.1,1914.24970753156,3288.45120317989
42,104,1,3,0.5,-0.5,-0.5,3,3,0.8,1,518,0,1,NaN,1,0,0.6,NaN,-0.736602614569167,NaN,750,0,1,congruent,1,7674.95167864245,1615.32537725452
42,104,1,4,0.5,-0.5,0,4,NaN,0.8,4,602,1,1,602,1,0,1,NaN,-0.163736829840166,-0.163736829840166,750,0,0,neutral,1,715.473570997208,2260.90212188859
42,104,1,5,-0.5,-0.5,0.5,2,3,0.8,2,664,1,1,664,1,0,1.4,0,0.259092677936001,0.259092677936001,750,0,0,incongruent,0.1,6353.03808426519,4881.67795083127
42,104,1,8,-0.5,0.5,0,2,NaN,0.9,2,467,1,1,467,1,0,1.4,0.4,-1.08441398386892,-1.08441398386892,750,0,0,neutral,0.1,4289.11580531695,1736.61731030679
42,104,1,16,-0.5,0.5,-0.5,3,3,1,4,419,0,1,NaN,0,0,1.8,1,-1.41176586085692,NaN,750,0,1,congruent,0,7939.9144068663,6657.08647828753
42,104,1,17,-0.5,0.5,-0.5,1,1,0.8,1,477,1,1,477,1,0,1.4,0.8,-1.01621567616308,-1.01621567616308,750,1,0,congruent,0.1,1663.49795097011,3634.09300144322
42,104,1,18,0.5,-0.5,0.5,4,2,0.8,4,450,1,1,450,1,0,1.4,NaN,-1.20035110696883,-1.20035110696883,750,0,0,incongruent,1,3017.39340999632,5450.67207677315
42,104,1,21,-0.5,-0.5,-0.5,1,1,0.8,1,603,1,1,603,1,0,1.4,0.6,-0.156916999069583,-0.156916999069583,750,1,0,congruent,0.1,4230.79439775133,2825.34056053903
42,104,1,22,-0.5,0.5,0.5,2,4,0.8,2,276,1,1,276,1,0,1.6,0.8,-2.38700166105034,-2.38700166105034,750,0,0,incongruent,0.1,6309.92879347536,7512.53818977525
42,104,1,24,-0.5,-0.5,-0.5,1,1,0.6,2,462,0,1,NaN,1,0,1.2,0.8,-1.11851313772183,NaN,750,0,1,congruent,0.1,5032.82750879708,6367.58393743636
42,104,1,25,0.5,0.5,-0.5,2,2,0.6,1,477,0,1,NaN,0,0,1,NaN,-1.01621567616308,NaN,750,0,1,congruent,0,18046.8814470505,754.848944027392
42,104,1,26,-0.5,-0.5,0.5,4,3,0.4,4,480,1,1,480,1,0,0.6,1,-0.995756183851334,-0.995756183851334,750,0,0,incongruent,0.1,3489.92785377357,2766.20945425947
42,104,1,30,-0.5,0.5,0.5,2,3,0.6,2,535,1,1,535,1,0,0.4,0.6,-0.62066549146925,-0.62066549146925,750,0,0,incongruent,0.1,4854.33192620682,470.872466898671
42,104,1,31,-0.5,-0.5,0.5,1,4,0.6,3,457,0,1,NaN,1,0,0.6,1,-1.15261229157475,NaN,750,0,1,incongruent,0.1,10382.9600356554,7822.20050426769
42,104,1,32,0.5,0.5,-0.5,3,3,0.6,3,858,1,0,858,0,0,0.6,NaN,1.58213984742917,1.58213984742917,750,1,0,congruent,0,2324.55032705243,3051.052557636
42,104,1,33,-0.5,-0.5,0,4,NaN,0.4,4,386,1,1,386,1,0,0.4,1,-1.63682027628617,-1.63682027628617,750,0,0,neutral,0.1,3235.94630857162,1716.24577557949
42,104,1,34,0.5,-0.5,-0.5,2,2,0.4,1,411,0,1,NaN,1,0,0.6,NaN,-1.46632450702158,NaN,750,0,1,congruent,1,1388.73553218303,892.73158528796
42,104,1,35,0.5,0.5,0.5,1,3,0.4,3,673,0,1,NaN,0,0,1,NaN,0.320471154871251,NaN,750,1,0,incongruent,0,7949.77479892391,4219.56946495748
42,104,1,40,-0.5,-0.5,-0.5,2,2,0.2,2,340,1,1,340,0,0,0.2,0.8,-1.950532491733,-1.950532491733,750,1,0,congruent,0,4266.8604059411,903.292909127556
42,104,1,42,0.5,-0.5,0,4,NaN,0.2,4,460,1,1,460,0,0,0.2,NaN,-1.132152799263,-1.132152799263,750,0,0,neutral,0,10190.348035856,4210.30638659966
42,104,1,44,-0.5,0.5,0.5,4,1,0.2,3,644,0,1,NaN,0,0,0,0.8,0.122696062524334,NaN,750,0,1,incongruent,0,10346.8892550643,1571.41296721649
42,104,1,45,-0.5,-0.5,0.5,3,2,0.2,4,657,0,1,NaN,0,0,0,0.4,0.211353862541918,NaN,750,0,1,incongruent,0,1651.67396772367,1625.70155562929
42,104,1,46,0.5,0.5,0,2,NaN,0.2,1,635,0,1,NaN,0,0,0,NaN,0.0613175855890843,NaN,750,0,1,neutral,0,8324.17438584644,7996.27991537634
42,104,1,47,0.5,0.5,0.5,3,4,0.2,3,541,1,1,541,1,0,0,NaN,-0.57974650684575,-0.57974650684575,750,0,0,incongruent,1,1703.58223354273,2120.76451881627
42,104,1,48,0.5,0.5,0,1,NaN,0.2,1,554,1,1,554,1,0,0.4,NaN,-0.491088706828166,-0.491088706828166,750,0,0,neutral,1,16268.1056480189,10033.0371227347
42,104,1,49,0.5,0.5,-0.5,3,3,0.4,3,436,1,1,436,1,0,0.8,NaN,-1.295828737757,-1.295828737757,750,1,0,congruent,1,3124.55662489934,2962.79618965621
42,104,1,50,0.5,0.5,0,2,NaN,0.6,2,744,1,1,744,1,0,1.2,NaN,0.804679139582668,0.804679139582668,750,0,0,neutral,1,1808.13865383793,4844.4234033951
42,104,1,51,-0.5,0.5,-0.5,1,1,0.8,1,675,1,1,675,1,0,1.6,0.6,0.334110816412418,0.334110816412418,750,1,0,congruent,0.1,2235.98931059286,2923.57012668205
42,104,1,52,0.5,0.5,0,2,NaN,1,2,469,1,1,469,1,0,1.8,NaN,-1.07077432232775,-1.07077432232775,750,0,0,neutral,1,3659.02786142369,4242.4338876202
42,104,1,53,0.5,0.5,-0.5,1,1,1,1,617,1,1,617,1,0,1.8,NaN,-0.0614393682814159,-0.0614393682814159,750,1,0,congruent,1,5556.89328579583,1612.03138591374
42,104,1,54,-0.5,-0.5,0.5,4,2,1,4,612,1,1,612,1,0,1.8,0.2,-0.0955385221343326,-0.0955385221343326,750,0,0,incongruent,0.1,1895.60971419087,1998.24117561919
42,104,1,55,0.5,0.5,-0.5,3,3,1,3,505,1,1,505,1,0,1.6,NaN,-0.82526041458675,-0.82526041458675,750,1,0,congruent,1,2821.81299741091,578.148987037946
42,104,1,56,-0.5,0.5,0,1,NaN,1,1,595,1,1,595,1,0,1.6,0.8,-0.211475645234249,-0.211475645234249,750,0,0,neutral,0.1,3603.67022752468,2770.05139466007
42,104,1,57,-0.5,0.5,-0.5,2,2,1,2,472,1,1,472,1,0,1.6,0.8,-1.050314830016,-1.050314830016,750,1,0,congruent,0.1,3847.44506653838,2948.2144336281
42,104,1,59,-0.5,-0.5,-0.5,3,3,1,3,530,1,1,530,1,0,1.4,0.2,-0.654764645322167,-0.654764645322167,750,1,0,congruent,0.1,2117.42370668483,852.251157808459
42,104,1,61,-0.5,0.5,-0.5,4,4,0.8,4,485,1,1,485,1,0,1,0.8,-0.961657029998417,-0.961657029998417,750,1,0,congruent,0.1,10836.5387981744,1498.68608802518
42,104,1,63,0.5,0.5,0,4,NaN,0.6,4,467,1,1,467,1,0,0.8,NaN,-1.08441398386892,-1.08441398386892,750,0,0,neutral,1,3061.23265602139,2589.86770502776
42,104,1,64,0.5,0.5,-0.5,1,1,0.6,1,386,1,1,386,1,0,0.8,NaN,-1.63682027628617,-1.63682027628617,750,1,0,congruent,1,8812.08186701926,2752.93130111326
42,104,1,65,-0.5,-0.5,-0.5,2,2,0.6,2,658,1,1,658,0,0,1,0.4,0.218173693312501,0.218173693312501,750,1,0,congruent,0,1445.7182977777,3064.76041969736
42,104,1,67,-0.5,-0.5,0.5,3,4,0.6,4,668,0,1,NaN,0,0,1,0.6,0.286372001018335,NaN,750,1,0,incongruent,0,4860.35092328759,3306.97453560474
42,104,1,68,0.5,0.5,-0.5,1,1,0.6,1,514,1,1,514,1,0,1,NaN,-0.7638819376515,-0.7638819376515,750,1,0,congruent,1,2519.14135978461,2074.91913376584
42,104,1,73,0.5,-0.5,0.5,1,4,0.6,4,651,0,1,NaN,1,0,1,NaN,0.170434877918418,NaN,750,1,0,incongruent,1,1691.22161306125,4170.93779588939
42,104,1,74,0.5,-0.5,0.5,3,2,0.6,3,824,1,0,824,0,0,1,NaN,1.35026560122934,1.35026560122934,750,0,0,incongruent,0,1819.1285772531,499.217932627309
42,104,1,75,0.5,-0.5,-0.5,4,4,0.6,4,563,1,1,563,0,0,0.6,NaN,-0.429710229892916,-0.429710229892916,750,1,0,congruent,0,1308.18922129622,2380.65398667289
42,104,1,76,-0.5,-0.5,0.5,3,1,0.6,3,770,1,0,770,1,0,0.4,0.6,0.981994739617835,0.981994739617835,750,0,0,incongruent,0.1,3693.9293873214,2756.79630122268
42,104,1,78,0.5,-0.5,-0.5,3,3,0.6,3,780,1,0,780,1,0,1,NaN,1.05019304732367,1.05019304732367,750,1,0,congruent,1,1784.32353101634,3787.0885892314
42,104,1,79,-0.5,-0.5,-0.5,2,2,0.6,2,453,1,1,453,1,0,1,0.6,-1.17989161465708,-1.17989161465708,750,1,0,congruent,0.1,3299.99085201095,1347.53545730531
42,104,1,80,-0.5,0.5,-0.5,1,1,0.6,1,543,1,1,543,1,0,1.2,0.8,-0.566106845304583,-0.566106845304583,750,1,0,congruent,0.1,7025.92701994162,7107.58089386017
42,104,1,81,0.5,0.5,-0.5,2,2,0.6,2,852,1,0,852,0,0,1.4,NaN,1.54122086280567,1.54122086280567,750,1,0,congruent,0,6163.13232815636,1827.51108124717
42,104,1,82,-0.5,0.5,0,1,NaN,0.4,1,814,1,0,814,0,0,1.2,0.8,1.2820672935235,1.2820672935235,750,0,0,neutral,0,5408.83621119011,1723.33368286968
42,104,1,83,0.5,0.5,-0.5,4,4,0.4,4,579,1,1,579,1,0,0.8,NaN,-0.320592937563583,-0.320592937563583,750,1,0,congruent,1,3448.4293726139,2123.68872956945
42,104,1,84,0.5,-0.5,0,3,NaN,0.6,3,807,1,0,807,0,0,0.8,NaN,1.23432847812942,1.23432847812942,750,0,0,neutral,0,11070.0535908539,2650.46371709268
42,104,1,85,-0.5,-0.5,0.5,1,2,0.6,1,433,1,1,433,0,0,0.6,0.6,-1.31628823006875,-1.31628823006875,750,0,0,incongruent,0,8825.5714487533,2187.15783521519
42,104,1,86,0.5,-0.5,0.5,3,1,0.6,4,575,0,1,NaN,0,0,0.4,NaN,-0.347872260645916,NaN,750,0,1,incongruent,0,2999.41162742067,1398.07156768603
42,104,1,87,-0.5,0.5,0,2,NaN,0.6,3,655,0,1,NaN,0,0,0.4,0.6,0.197714201000751,NaN,750,0,1,neutral,0,6272.19551315622,2299.91415299095
42,104,1,88,-0.5,0.5,-0.5,3,3,0.4,3,753,1,0,753,0,0,0.4,0.4,0.866057616517918,0.866057616517918,750,1,0,congruent,0,7223.04940893573,2581.49079767699
42,104,1,89,-0.5,0.5,0,4,NaN,0.2,4,582,1,1,582,1,0,0,0.2,-0.300133445251833,-0.300133445251833,750,0,0,neutral,0.1,4349.95258196514,1678.02377229644
42,104,1,90,0.5,-0.5,-0.5,2,2,0.4,1,618,0,1,NaN,0,0,0.2,NaN,-0.0546195375108325,NaN,750,0,1,congruent,0,3587.28749427276,850.64075258527
42,104,1,91,0.5,-0.5,0.5,1,4,0.4,1,563,1,1,563,0,0,0.2,NaN,-0.429710229892916,-0.429710229892916,750,0,0,incongruent,0,1197.37167429448,713.872336336746
42,104,1,92,0.5,-0.5,0,2,NaN,0.4,2,573,1,1,573,1,0,0.2,NaN,-0.361511922187083,-0.361511922187083,750,0,0,neutral,1,4906.13256958116,1513.47066346322
42,104,1,93,0.5,-0.5,-0.5,3,3,0.4,2,606,0,1,NaN,1,0,0.6,NaN,-0.136457506757833,NaN,750,0,1,congruent,1,8087.43749610212,1343.69328380903
42,104,1,94,-0.5,0.5,0.5,4,2,0.4,4,659,1,1,659,1,0,1,0.4,0.224993524083084,0.224993524083084,750,0,0,incongruent,0.1,8200.91843922728,3589.80784302835
42,104,1,95,-0.5,-0.5,0.5,2,4,0.6,2,803,1,0,803,0,0,1,0.6,1.20704915504709,1.20704915504709,750,0,0,incongruent,0,12139.5242717276,1017.51552554797
42,104,1,97,-0.5,-0.5,-0.5,4,4,0.6,4,564,1,1,564,1,0,1,0.4,-0.422890399122333,-0.422890399122333,750,1,0,congruent,0.1,3487.59392216734,9000.47064895251
42,104,1,98,-0.5,0.5,0.5,2,1,0.6,1,672,0,1,NaN,0,0,0.8,0.4,0.313651324100668,NaN,750,1,0,incongruent,0,15471.9599877125,3943.9463032226
42,104,1,99,0.5,0.5,0,1,NaN,0.4,1,534,1,1,534,1,0,0.4,NaN,-0.627485322239833,-0.627485322239833,750,0,0,neutral,1,5140.58110107549,3917.51224167955
42,104,1,101,0.5,-0.5,-0.5,1,1,0.8,1,421,1,1,421,1,0,0.8,NaN,-1.39812619931575,-1.39812619931575,750,1,0,congruent,1,7555.15893371124,1900.47608400063
42,104,1,102,-0.5,-0.5,0,4,NaN,0.8,4,392,1,1,392,1,0,1.2,0.6,-1.59590129166267,-1.59590129166267,750,0,0,neutral,0.1,686.507608370949,1780.90359670601
42,104,1,103,-0.5,0.5,0.5,1,4,0.8,1,903,1,0,903,0,0,1.2,0.6,1.88903223210542,1.88903223210542,750,0,0,incongruent,0,6078.00143649708,3373.86437178527
42,104,1,104,-0.5,-0.5,0,3,NaN,0.6,2,611,0,1,NaN,1,0,1.2,0.6,-0.102358352904916,NaN,750,0,1,neutral,0.1,6319.44652917051,2889.93082345032
42,104,1,105,-0.5,-0.5,-0.5,4,4,0.6,4,578,1,1,578,1,0,1,0.6,-0.327412768334166,-0.327412768334166,750,1,0,congruent,0.1,2133.08418412778,1598.82220293142
42,104,1,106,0.5,-0.5,-0.5,2,2,0.6,2,875,1,0,875,0,0,1,NaN,1.69807697052909,1.69807697052909,750,1,0,congruent,0,5706.80118109072,3688.65442265645
42,104,1,109,0.5,0.5,0.5,1,4,0.6,2,708,0,1,NaN,0,0,1,NaN,0.559165231841668,NaN,750,0,1,incongruent,0,3269.86905392298,1883.09164342153
42,104,1,115,-0.5,0.5,-0.5,3,3,0.8,3,881,1,0,881,0,0,1.8,0.6,1.73899595515259,1.73899595515259,750,1,0,congruent,0,3812.54069059564,2087.98357141876
42,104,1,118,0.5,-0.5,-0.5,1,1,0.6,3,930,0,0,NaN,1,0,1,NaN,2.07316766291117,NaN,750,0,1,congruent,1,1966.76910269548,2949.59447467322
42,104,1,121,-0.5,-0.5,0,1,NaN,0.6,2,692,0,1,NaN,0,0,1.2,1,0.450047939512335,NaN,750,0,1,neutral,0,6366.72137101228,4207.31959237831
42,104,1,130,-0.5,0.5,-0.5,3,3,0.6,3,746,1,1,746,1,0,0.8,0.4,0.818318801123835,0.818318801123835,750,1,0,congruent,0.1,2471.04712257068,6526.52655163492
42,104,1,131,-0.5,-0.5,0.5,2,4,0.6,2,670,1,1,670,0,0,1,0.6,0.300011662559501,0.300011662559501,750,0,0,incongruent,0,2315.65794983693,5505.16396934333
42,104,1,133,-0.5,-0.5,0.5,1,2,0.6,1,883,1,0,883,1,0,1,0.4,1.75263561669375,1.75263561669375,750,0,0,incongruent,0.1,6684.99819146948,2574.00346811999
42,104,1,143,0.5,-0.5,0,3,NaN,0.6,3,911,1,0,911,0,0,1,NaN,1.94359087827009,1.94359087827009,750,0,0,neutral,0,17624.6193135107,4855.4386479433
42,104,1,148,0.5,0.5,-0.5,3,3,0.8,3,351,1,1,351,1,0,1.2,NaN,-1.87551435325658,-1.87551435325658,750,1,0,congruent,1,8087.99139821191,1545.98105096371
42,104,2,151,0.5,0.5,-0.5,2,2,1,2,651,1,1,651,1,0,1.2,NaN,0.170434877918418,0.170434877918418,750,1,0,congruent,1,8901.54910608801,845.121839106404
42,104,2,152,-0.5,0.5,0,1,NaN,1,1,595,1,1,595,1,0,1.4,0.8,-0.211475645234249,-0.211475645234249,750,0,0,neutral,0.1,1470.46039498518,1012.29075476615
42,104,2,153,-0.5,0.5,0.5,3,4,1,3,599,1,1,599,1,0,1.4,0.8,-0.184196322151916,-0.184196322151916,750,0,0,incongruent,0.1,4006.00607310347,1378.76740354423
42,104,2,155,-0.5,0.5,-0.5,2,2,1,2,637,1,1,637,1,0,1.2,1,0.0749572471302509,0.0749572471302509,750,1,0,congruent,0.1,3820.87271884878,1626.83684730397
42,104,2,158,0.5,0.5,-0.5,4,4,1,4,560,1,1,560,1,0,1.2,NaN,-0.450169722204666,-0.450169722204666,750,1,0,congruent,1,3904.18335744023,5011.34792421271
42,104,2,159,0.5,0.5,0.5,3,1,1,3,671,1,1,671,1,0,1.4,NaN,0.306831493330085,0.306831493330085,750,0,0,incongruent,1,4575.82678141206,1309.26635176932
42,104,2,161,-0.5,0.5,-0.5,1,1,1,3,647,0,1,NaN,0,0,1.8,1,0.143155554836084,NaN,750,0,1,congruent,0,9519.50186191379,2891.39244051699
42,104,2,163,-0.5,-0.5,-0.5,1,1,0.8,3,698,0,1,NaN,1,0,1.6,1,0.490966924135835,NaN,750,0,1,congruent,0.1,2144.34077274755,1506.08591433091
42,104,2,166,0.5,-0.5,0,2,NaN,0.8,2,908,1,0,908,1,0,1.2,NaN,1.92313138595834,1.92313138595834,750,0,0,neutral,1,3934.08865785542,2573.68188872487
42,104,2,170,-0.5,0.5,0.5,2,1,0.6,2,598,1,1,598,1,0,1.2,0.6,-0.191016152922499,-0.191016152922499,750,0,0,incongruent,0.1,2874.07911180504,3926.14760893707
42,104,2,171,-0.5,0.5,0.5,1,4,0.8,3,703,0,1,NaN,0,0,1.2,0.6,0.525066077988751,NaN,750,0,1,incongruent,0,3015.77242400725,1351.99240811354
42,104,2,172,-0.5,0.5,-0.5,2,2,0.6,2,707,1,1,707,1,0,0.8,0.4,0.552345401071085,0.552345401071085,750,1,0,congruent,0.1,4293.52149759806,2699.6048755493
42,104,2,176,0.5,0.5,0.5,4,2,0.6,4,556,1,1,556,1,0,1,NaN,-0.477449045287,-0.477449045287,750,0,0,incongruent,1,637.714646790511,608.803347265811
42,104,2,177,-0.5,0.5,0.5,2,4,0.8,2,631,1,1,631,1,0,1.4,0.4,0.0340382625067509,0.0340382625067509,750,0,0,incongruent,0.1,15368.8733938633,1500.10388035277
42,104,2,178,-0.5,0.5,0.5,1,2,0.8,1,950,1,0,950,0,0,1.4,0.6,2.20956427832284,2.20956427832284,750,0,0,incongruent,0,10758.6647350305,3544.56606033527
42,104,2,179,0.5,-0.5,-0.5,3,3,0.6,2,671,0,1,NaN,1,0,1,NaN,0.306831493330085,NaN,750,0,1,congruent,1,1679.03754067572,3712.0946728113
42,104,2,180,-0.5,0.5,-0.5,2,2,0.6,2,536,1,1,536,1,0,1,0.4,-0.613845660698667,-0.613845660698667,750,1,0,congruent,0.1,939.195315927346,438.72076095798
42,104,2,181,0.5,-0.5,0,3,NaN,0.6,3,573,1,1,573,0,0,1.2,NaN,-0.361511922187083,-0.361511922187083,750,0,0,neutral,0,2216.38930849038,2595.34358034741
42,104,2,183,0.5,0.5,-0.5,2,2,0.6,2,734,1,1,734,1,0,0.6,NaN,0.736480831876835,0.736480831876835,750,1,0,congruent,1,8233.03343531723,4039.85519186029
42,104,2,184,0.5,0.5,0,1,NaN,0.6,1,805,1,0,805,0,0,1,NaN,1.22068881658825,1.22068881658825,750,0,0,neutral,0,4135.3073646353,8269.62428413067
42,104,2,185,-0.5,0.5,-0.5,3,3,0.4,3,639,1,1,639,1,0,0.6,0.4,0.0885969086714176,0.0885969086714176,750,1,0,congruent,0.1,4337.02764131585,5740.35281376566
42,104,2,187,0.5,0.5,-0.5,2,2,0.4,2,591,1,1,591,1,0,0.6,NaN,-0.238754968316583,-0.238754968316583,750,1,0,congruent,1,2267.53339031028,4050.07942319671
42,104,2,189,0.5,0.5,-0.5,1,1,0.6,1,530,1,1,530,1,0,0.8,NaN,-0.654764645322167,-0.654764645322167,750,1,0,congruent,1,5494.94586521576,1324.43325770002
42,104,2,191,0.5,0.5,-0.5,2,2,0.8,2,503,1,1,503,1,0,1.2,NaN,-0.838900076127917,-0.838900076127917,750,1,0,congruent,1,6861.44581874689,2367.85131293305
42,104,2,192,0.5,-0.5,0.5,1,4,0.8,1,923,1,0,923,0,0,1.6,NaN,2.02542884751709,2.02542884751709,750,0,0,incongruent,0,4195.54945576322,763.16727314941
42,104,2,193,-0.5,-0.5,0.5,3,2,0.8,3,523,1,1,523,1,0,1.2,1,-0.70250346071625,-0.70250346071625,750,0,0,incongruent,0.1,2050.21570150759,2180.84260976979
42,104,2,194,-0.5,0.5,-0.5,1,1,0.8,2,791,0,0,NaN,0,0,1.2,0.6,1.12521118580009,NaN,750,0,1,congruent,0,12776.0327462156,1904.84834798447
42,104,2,195,-0.5,0.5,-0.5,4,4,0.8,4,658,1,1,658,1,0,0.8,0.4,0.218173693312501,0.218173693312501,750,1,0,congruent,0.1,4126.38489011149,2430.67395387623
42,104,2,196,0.5,-0.5,0.5,3,2,0.8,1,682,0,1,NaN,1,0,0.8,NaN,0.381849631806501,NaN,750,0,1,incongruent,1,1979.63957500349,1524.10397507117
42,104,2,197,0.5,-0.5,0.5,2,4,0.8,2,760,1,0,760,1,0,0.8,NaN,0.913796431912002,0.913796431912002,750,0,0,incongruent,1,1692.28652470687,4447.75535505638
42,104,2,199,-0.5,-0.5,-0.5,3,3,0.6,3,537,1,1,537,0,0,1,1,-0.607025829928083,-0.607025829928083,750,1,0,congruent,0,3063.97302796757,2089.84117568396
42,104,2,200,-0.5,0.5,-0.5,1,1,0.6,1,689,1,1,689,1,0,1,0.6,0.429588447200585,0.429588447200585,750,1,0,congruent,0.1,3544.39524768291,2327.51089779407
42,104,2,201,0.5,0.5,0.5,2,3,0.6,2,413,1,1,413,1,0,1,NaN,-1.45268484548042,-1.45268484548042,750,0,0,incongruent,1,5024.72479364848,2347.20336345574
42,104,2,206,-0.5,0.5,0.5,1,4,0.4,1,754,1,0,754,0,0,0.6,0.6,0.872877447288502,0.872877447288502,750,0,0,incongruent,0,13036.8944623828,2175.61417938806
42,104,2,207,-0.5,-0.5,0,3,NaN,0.4,3,505,1,1,505,0,0,0.2,0.8,-0.82526041458675,-0.82526041458675,750,0,0,neutral,0,2632.1901550636,4338.19361364533
42,104,2,208,-0.5,0.5,0.5,1,4,0.4,2,715,0,1,NaN,0,0,0.2,0.4,0.606904047235752,NaN,750,0,1,incongruent,0,7407.26223852271,2464.30827630319
42,104,2,209,-0.5,-0.5,-0.5,2,2,0.2,2,676,1,1,676,1,0,0.2,0.6,0.340930647183001,0.340930647183001,750,1,0,congruent,0.1,1898.67563689061,6507.04984258888
42,104,2,213,0.5,-0.5,0.5,1,2,0.2,2,789,0,0,NaN,0,0,1,NaN,1.11157152425892,NaN,750,1,0,incongruent,0,2650.55406792133,3116.36184136188
42,104,2,215,0.5,-0.5,-0.5,4,4,0.4,4,681,1,1,681,0,0,1.2,NaN,0.375029801035918,0.375029801035918,750,1,0,congruent,0,4082.74530411311,6045.64165385722
42,104,2,216,-0.5,0.5,0.5,1,2,0.4,1,780,1,0,780,0,0,1.2,0.4,1.05019304732367,1.05019304732367,750,0,0,incongruent,0,2834.90743866033,2043.54673493521
42,104,2,217,-0.5,0.5,-0.5,4,4,0.4,4,544,1,1,544,1,0,0.8,0.2,-0.559287014534,-0.559287014534,750,1,0,congruent,0.1,1976.55677331595,13396.0849381811
42,104,2,219,0.5,-0.5,-0.5,4,4,0.6,4,759,1,0,759,0,0,0.8,NaN,0.906976601141419,0.906976601141419,750,1,0,congruent,0,4158.74876679818,5614.04391252968
42,104,2,220,-0.5,0.5,-0.5,3,3,0.6,3,653,1,1,653,1,0,0.4,0.2,0.184074539459584,0.184074539459584,750,1,0,congruent,0.1,1950.70198064993,3004.14981148064
42,104,2,221,0.5,-0.5,0,4,NaN,0.8,4,944,1,0,944,1,0,0.6,NaN,2.16864529369934,2.16864529369934,750,0,0,neutral,1,4162.10357074885,5981.7984812753
42,104,2,222,0.5,-0.5,-0.5,2,2,0.8,2,716,1,1,716,1,0,1,NaN,0.613723878006335,0.613723878006335,750,1,0,congruent,1,8298.44604840342,3185.14629530262
42,104,2,223,-0.5,-0.5,0,1,NaN,0.8,1,753,1,0,753,1,0,1.2,0.6,0.866057616517918,0.866057616517918,750,0,0,neutral,0.1,1087.7302508112,2860.56138881838
42,104,2,227,0.5,0.5,-0.5,1,1,0.8,2,497,0,1,NaN,0,0,1.6,NaN,-0.879819060751417,NaN,750,0,1,congruent,0,3397.59188355476,2167.083628968
42,104,2,228,-0.5,-0.5,-0.5,4,4,0.6,4,517,1,1,517,1,0,1.2,0.8,-0.74342244533975,-0.74342244533975,750,1,0,congruent,0.1,2240.03621512027,5377.83496503269
42,104,2,229,-0.5,-0.5,-0.5,1,1,0.6,1,428,1,1,428,1,0,1.2,0.8,-1.35038738392167,-1.35038738392167,750,1,0,congruent,0.1,7530.20908729855,761.43946804691
42,104,2,230,-0.5,0.5,0.5,2,3,0.6,2,713,1,1,713,1,0,1.2,0.6,0.593264385694585,0.593264385694585,750,0,0,incongruent,0.1,3487.08975658922,3133.57533067246
42,104,2,231,-0.5,0.5,0.5,1,2,0.8,1,686,1,1,686,1,0,1,0.8,0.409128954888835,0.409128954888835,750,0,0,incongruent,0.1,9721.23532067275,8055.09304743836
42,104,2,232,-0.5,-0.5,0,3,NaN,0.8,3,525,1,1,525,1,0,0.8,1,-0.688863799175083,-0.688863799175083,750,0,0,neutral,0.1,2153.37124180798,1220.89132873475
42,104,2,234,0.5,-0.5,-0.5,4,4,0.8,3,587,0,1,NaN,0,0,1,NaN,-0.266034291398916,NaN,750,0,1,congruent,0,11912.968280525,2846.43489699465
42,104,2,235,0.5,-0.5,-0.5,3,3,0.8,3,669,1,1,669,1,0,0.8,NaN,0.293191831788918,0.293191831788918,750,1,0,congruent,1,5577.17435713021,2685.11402177413
42,104,2,236,0.5,0.5,0,4,NaN,0.8,4,487,1,1,487,1,0,1,NaN,-0.94801736845725,-0.94801736845725,750,0,0,neutral,1,1196.11954212409,1136.92085935218
42,104,2,241,-0.5,-0.5,-0.5,2,2,0.6,2,635,1,1,635,1,0,1,0.8,0.0613175855890843,0.0613175855890843,750,1,0,congruent,0.1,2958.34614777347,3466.91707213466
42,104,2,242,0.5,0.5,0.5,3,1,0.6,3,915,1,0,915,0,0,0.8,NaN,1.97087020135242,1.97087020135242,750,0,0,incongruent,0,3922.15436389113,2404.96042749291
42,104,2,244,-0.5,0.5,-0.5,1,1,0.6,1,513,1,1,513,1,0,1.2,0.8,-0.770701768422083,-0.770701768422083,750,1,0,congruent,0.1,2547.12616695434,874.224389835657
42,104,2,245,0.5,-0.5,0.5,3,2,0.6,3,353,1,1,353,0,0,1,NaN,-1.86187469171542,-1.86187469171542,750,0,0,incongruent,0,1394.11450413872,816.675240672602
42,104,2,246,-0.5,0.5,0,2,NaN,0.6,2,367,1,1,367,1,0,0.8,0.8,-1.76639706092725,-1.76639706092725,750,0,0,neutral,0.1,5223.20979257994,1837.91242458279
42,104,2,247,0.5,-0.5,-0.5,1,1,0.6,1,582,1,1,582,1,0,0.8,NaN,-0.300133445251833,-0.300133445251833,750,1,0,congruent,1,3567.52805590249,1220.58596420887
42,104,2,248,0.5,-0.5,0,4,NaN,0.6,4,562,1,1,562,1,0,1.2,NaN,-0.4365300606635,-0.4365300606635,750,0,0,neutral,1,4021.22929475005,4570.5266409396
42,104,2,251,0.5,-0.5,0.5,3,1,0.8,3,395,1,1,395,1,0,1.6,NaN,-1.57544179935092,-1.57544179935092,750,0,0,incongruent,1,8143.02524888129,3245.55807183843
42,104,2,252,0.5,-0.5,0,4,NaN,0.8,4,458,1,1,458,1,0,1.8,NaN,-1.14579246080417,-1.14579246080417,750,0,0,neutral,1,2475.17266513355,1481.80904050592
42,104,2,253,-0.5,-0.5,-0.5,2,2,0.8,2,549,1,1,549,1,0,1.8,0.8,-0.525187860681083,-0.525187860681083,750,1,0,congruent,0.1,7328.72428179317,2697.82079969235
42,104,2,254,-0.5,-0.5,0,4,NaN,0.8,4,612,1,1,612,1,0,1.6,0.8,-0.0955385221343326,-0.0955385221343326,750,0,0,neutral,0.1,3729.73143534178,2351.17128378808
42,104,2,255,0.5,0.5,-0.5,1,1,0.8,1,457,1,1,457,1,0,1.6,NaN,-1.15261229157475,-1.15261229157475,750,1,0,congruent,1,4136.92504823614,3383.60748040346
42,104,2,256,-0.5,0.5,-0.5,2,2,1,2,491,1,1,491,1,0,1.6,0.8,-0.920738045374917,-0.920738045374917,750,1,0,congruent,0.1,2392.7587753693,1707.27587158484
42,104,2,257,-0.5,-0.5,0,1,NaN,1,1,401,1,1,401,1,0,1.4,0.8,-1.53452281472742,-1.53452281472742,750,0,0,neutral,0.1,3378.58313824843,803.035222428188
42,104,2,258,-0.5,-0.5,-0.5,4,4,1,4,565,1,1,565,1,0,1.2,1,-0.41607056835175,-0.41607056835175,750,1,0,congruent,0.1,8268.01463014929,2713.40995921228
42,104,2,259,0.5,0.5,0,2,NaN,1,2,341,1,1,341,1,0,1.2,NaN,-1.94371266096242,-1.94371266096242,750,0,0,neutral,1,1806.28745307935,2492.33608268755
42,104,2,260,0.5,-0.5,0.5,1,2,1,1,766,1,0,766,1,0,1.4,NaN,0.954715416535502,0.954715416535502,750,0,0,incongruent,1,4181.55220408995,1276.25547010993
42,104,2,261,0.5,0.5,-0.5,4,4,1,4,459,1,1,459,1,0,1.4,NaN,-1.13897263003358,-1.13897263003358,750,1,0,congruent,1,4151.39710673003,1496.5740419386
42,104,2,284,-0.5,0.5,0,2,NaN,0.6,2,465,1,1,465,1,0,0.2,0.6,-1.09805364541008,-1.09805364541008,750,0,0,neutral,0.1,2614.54186107024,1862.6229349602
42,104,2,285,-0.5,0.5,0.5,3,4,0.6,4,555,0,1,NaN,0,0,0.2,0.6,-0.484268876057583,NaN,750,1,0,incongruent,0,6083.72173254349,9408.14778220484
42,104,2,286,0.5,0.5,-0.5,2,2,0.4,2,624,1,1,624,1,0,0.2,NaN,-0.0137005528873325,-0.0137005528873325,750,1,0,congruent,1,2699.03805974716,1971.61351280338
42,104,2,287,0.5,-0.5,0,4,NaN,0.6,4,541,1,1,541,0,0,0.6,NaN,-0.57974650684575,-0.57974650684575,750,0,0,neutral,0,690.161438272198,1655.55286355783
42,104,2,288,-0.5,0.5,0.5,2,4,0.6,2,523,1,1,523,1,0,0.6,0.4,-0.70250346071625,-0.70250346071625,750,0,0,incongruent,0.1,2090.52773563465,1607.57497853054
42,104,2,290,0.5,0.5,0.5,2,3,0.6,2,452,1,1,452,1,0,1,NaN,-1.18671144542767,-1.18671144542767,750,0,0,incongruent,1,1704.97854450711,2789.55456307226
42,104,2,292,-0.5,0.5,-0.5,1,1,0.8,1,773,1,0,773,0,0,1.4,0.6,1.00245423192959,1.00245423192959,750,1,0,congruent,0,15876.5476862168,2951.44816271653
42,104,2,293,0.5,-0.5,0,3,NaN,0.6,3,795,1,0,795,0,0,1.4,NaN,1.15249050888242,1.15249050888242,750,0,0,neutral,0,928.308752730217,1189.51764072466
42,104,2,294,0.5,-0.5,-0.5,4,4,0.6,4,335,1,1,335,0,0,1.2,NaN,-1.98463164558592,-1.98463164558592,750,1,0,congruent,0,3562.5523299718,1675.97198266828
42,104,2,295,-0.5,0.5,0.5,2,3,0.6,2,368,1,1,368,1,0,0.8,0.4,-1.75957723015667,-1.75957723015667,750,0,0,incongruent,0.1,3389.9683106341,1054.6426917494
42,104,2,296,-0.5,-0.5,-0.5,4,4,0.8,4,489,1,1,489,1,0,0.6,0.2,-0.934377706916084,-0.934377706916084,750,1,0,congruent,0.1,5801.63881301894,4036.20860834525
42,104,2,297,-0.5,-0.5,0,3,NaN,0.8,3,763,1,0,763,1,0,0.4,0.2,0.934255924223752,0.934255924223752,750,0,0,neutral,0.1,3012.63076062782,2425.85429282039
42,104,2,298,-0.5,0.5,0.5,4,2,0.8,4,637,1,1,637,1,0,0.6,0.6,0.0749572471302509,0.0749572471302509,750,0,0,incongruent,0.1,5109.32991437394,1937.84541756936
42,104,2,299,0.5,-0.5,-0.5,1,1,0.8,1,602,1,1,602,0,0,0.8,NaN,-0.163736829840166,-0.163736829840166,750,1,0,congruent,0,3349.44090818763,2834.82350100752
42,104,2,300,-0.5,-0.5,0.5,2,4,0.8,2,321,1,1,321,1,0,0.8,0.4,-2.08010927637408,-2.08010927637408,750,0,0,incongruent,0.1,7068.99012424563,1876.13816640468
42,104,3,302,-0.5,0.5,-0.5,4,4,0.8,4,475,1,1,475,1,0,0.6,0.6,-1.02985533770425,-1.02985533770425,750,1,0,congruent,0.1,2219.66758585086,1642.25857472601
42,104,3,303,0.5,-0.5,-0.5,3,3,0.8,3,583,1,1,583,1,0,0.6,NaN,-0.293313614481249,-0.293313614481249,750,1,0,congruent,1,5851.92219781074,3524.80868497689
42,104,3,304,0.5,-0.5,0,2,NaN,0.8,2,749,1,1,749,1,0,0.8,NaN,0.838778293435585,0.838778293435585,750,0,0,neutral,1,5791.04806189883,1898.17345531557
42,104,3,306,0.5,0.5,0.5,3,4,0.6,3,742,1,1,742,1,0,1,NaN,0.791039478041502,0.791039478041502,750,0,0,incongruent,1,1051.93150776007,2096.51617818952
42,104,3,307,0.5,0.5,-0.5,2,2,0.8,2,534,1,1,534,1,0,1.4,NaN,-0.627485322239833,-0.627485322239833,750,1,0,congruent,1,4773.19263299078,3137.87452127951
42,104,3,308,-0.5,0.5,0.5,1,4,0.8,1,683,1,1,683,1,0,1.6,0.8,0.388669462577085,0.388669462577085,750,0,0,incongruent,0.1,1021.87422863851,1803.72975509468
42,104,3,309,0.5,-0.5,0.5,3,1,0.8,3,572,1,1,572,1,0,1.4,NaN,-0.368331752957666,-0.368331752957666,750,0,0,incongruent,1,3051.00039264313,3132.85425701243
42,104,3,310,-0.5,0.5,0.5,1,3,0.8,2,824,0,0,NaN,0,0,1.4,0.8,1.35026560122934,NaN,750,0,1,incongruent,0,4506.98577439026,2031.36042689543
42,104,3,311,0.5,0.5,0.5,2,1,0.6,2,408,1,1,408,1,0,1.4,NaN,-1.48678399933333,-1.48678399933333,750,0,0,incongruent,1,8115.4684753832,628.844224532764
42,104,3,312,0.5,-0.5,0,1,NaN,0.8,1,703,1,1,703,1,0,1.4,NaN,0.525066077988751,0.525066077988751,750,0,0,neutral,1,3384.93588945126,1905.30370939679
42,104,3,315,-0.5,0.5,-0.5,2,2,0.6,2,679,1,1,679,1,0,0.8,0.6,0.361390139494751,0.361390139494751,750,1,0,congruent,0.1,1744.30477629188,3050.78036917249
42,104,3,318,-0.5,0.5,-0.5,2,2,0.4,2,508,1,1,508,1,0,0.2,0.4,-0.804800922275,-0.804800922275,750,1,0,congruent,0.1,3670.10891414682,1189.24544968932
42,104,3,319,0.5,0.5,0.5,4,1,0.4,4,512,1,1,512,1,0,0.4,NaN,-0.777521599192667,-0.777521599192667,750,0,0,incongruent,1,6208.68412476606,1622.30039920624
42,104,3,320,-0.5,-0.5,0,3,NaN,0.6,3,651,1,1,651,1,0,0.8,0.6,0.170434877918418,0.170434877918418,750,0,0,neutral,0.1,1150.50814527554,1923.01924806885
42,104,3,321,0.5,-0.5,-0.5,1,1,0.6,1,534,1,1,534,1,0,0.8,NaN,-0.627485322239833,-0.627485322239833,750,1,0,congruent,1,2665.8495786478,2359.773258938
42,104,3,322,0.5,-0.5,-0.5,2,2,0.6,2,543,1,1,543,0,0,1.2,NaN,-0.566106845304583,-0.566106845304583,750,1,0,congruent,0,3410.73757457257,2014.61758194289
42,104,3,323,0.5,0.5,0,4,NaN,0.6,4,382,1,1,382,1,0,1.2,NaN,-1.6640995993685,-1.6640995993685,750,0,0,neutral,1,6263.46478929806,1929.6681751756
42,104,3,324,0.5,0.5,0.5,1,2,0.6,1,768,1,0,768,0,0,1.4,NaN,0.968355078076669,0.968355078076669,750,0,0,incongruent,0,2594.22923881946,2421.36119529273
42,104,3,325,0.5,0.5,0,3,NaN,0.6,3,621,1,1,621,1,0,1,NaN,-0.0341600451990825,-0.0341600451990825,750,0,0,neutral,1,6420.65043976875,2464.54330342635
42,104,3,326,0.5,-0.5,0.5,4,2,0.8,2,591,0,1,NaN,1,0,1.2,NaN,-0.238754968316583,NaN,750,1,0,incongruent,1,13342.2949603239,2648.6407809265
42,104,3,332,-0.5,-0.5,0.5,2,3,0.6,2,720,1,1,720,0,0,1.4,0.8,0.641003201088668,0.641003201088668,750,0,0,incongruent,0,4719.11615175335,8936.68884229184
42,104,3,337,0.5,-0.5,0.5,3,4,0.4,4,628,0,1,NaN,1,0,0.8,NaN,0.0135787701950009,NaN,750,1,0,incongruent,1,2067.65347593983,2807.29299946555
42,104,3,339,-0.5,-0.5,0,3,NaN,0.4,3,800,1,0,800,1,0,0.8,0.4,1.18658966273534,1.18658966273534,750,0,0,neutral,0.1,1987.38427599979,4756.10865185374
42,104,3,342,-0.5,0.5,-0.5,2,2,0.6,2,467,1,1,467,1,0,1.4,0.4,-1.08441398386892,-1.08441398386892,750,1,0,congruent,0.1,11596.0499814202,1803.36450599882
42,104,3,348,0.5,0.5,0,4,NaN,0.8,4,538,1,1,538,1,0,1.2,NaN,-0.6002059991575,-0.6002059991575,750,0,0,neutral,1,986.439804759208,2474.65121682629
42,104,3,352,-0.5,-0.5,0.5,1,3,0.6,3,853,0,0,NaN,0,0,1,0.8,1.54804069357625,NaN,750,1,0,incongruent,0,2476.34123435852,2407.04663126109
42,104,3,353,0.5,-0.5,0,2,NaN,0.6,2,647,1,1,647,0,0,0.8,NaN,0.143155554836084,0.143155554836084,750,0,0,neutral,0,2204.59666460748,1236.4630745955
42,104,3,359,-0.5,-0.5,0.5,2,1,0.4,2,623,1,1,623,0,0,0.4,0.6,-0.0205203836579158,-0.0205203836579158,750,0,0,incongruent,0,2310.16058353963,4778.81991524011
42,104,3,361,0.5,0.5,0.5,4,3,0.2,4,574,1,1,574,1,0,0.2,NaN,-0.3546920914165,-0.3546920914165,750,0,0,incongruent,1,2222.79477568339,925.781410289444
42,104,3,362,-0.5,-0.5,0.5,1,4,0.4,1,771,1,0,771,0,0,0.6,0.4,0.988814570388419,0.988814570388419,750,0,0,incongruent,0,9551.82764833718,2625.52133103409
42,104,3,363,0.5,0.5,0.5,2,1,0.4,2,786,1,0,786,0,0,0.4,NaN,1.09111203194717,1.09111203194717,750,0,0,incongruent,0,3497.8533221393,2726.31906059341
42,104,3,366,-0.5,-0.5,0.5,4,2,0.4,4,663,1,1,663,1,0,0.4,0.2,0.252272847165418,0.252272847165418,750,0,0,incongruent,0.1,900.799823391381,1630.81719407934
42,104,3,367,0.5,-0.5,0.5,2,3,0.4,2,572,1,1,572,0,0,0.2,NaN,-0.368331752957666,-0.368331752957666,750,0,0,incongruent,0,5049.53176844634,944.081234569801
42,104,3,369,-0.5,-0.5,-0.5,2,2,0.2,2,492,1,1,492,0,0,0.2,0.2,-0.913918214604334,-0.913918214604334,750,1,0,congruent,0,7059.35257192573,4057.14163713866
42,104,3,373,-0.5,0.5,-0.5,1,1,0.2,1,641,1,1,641,1,0,0,0.2,0.102236570212584,0.102236570212584,750,1,0,congruent,0.1,10158.3945573777,21992.8566336562
42,104,3,375,-0.5,-0.5,-0.5,2,2,0.4,2,929,1,0,929,1,0,0.4,0.2,2.06634783214059,2.06634783214059,750,1,0,congruent,0.1,1919.66273128462,4153.52118518107
42,104,3,377,-0.5,-0.5,0,2,NaN,0.4,3,799,0,0,NaN,0,0,1,0.4,1.17976983196475,NaN,750,0,1,neutral,0,2863.76939434036,6967.28250091378
42,104,3,385,0.5,-0.5,0.5,1,4,1,1,662,1,1,662,1,0,0.8,NaN,0.245453016394834,0.245453016394834,750,0,0,incongruent,1,5663.13250978266,3454.72700003482
42,104,3,386,0.5,-0.5,0,2,NaN,1,3,508,0,1,NaN,1,0,1.2,NaN,-0.804800922275,NaN,750,0,1,neutral,1,4876.02459262335,993.767892886486
42,104,3,389,0.5,0.5,-0.5,1,1,1,2,714,0,1,NaN,0,0,1.4,NaN,0.600084216465168,NaN,750,0,1,congruent,0,6988.79213613282,3485.44434547445
42,104,3,390,0.5,0.5,0,4,NaN,0.8,4,629,1,1,629,1,0,1.2,NaN,0.0203986009655842,0.0203986009655842,750,0,0,neutral,1,1293.00331501883,1212.70750939779
42,104,3,391,-0.5,-0.5,-0.5,1,1,0.8,2,620,0,1,NaN,1,0,1.2,0.8,-0.0409798759696659,NaN,750,0,1,congruent,0.1,7901.35860740219,1988.78458146656
42,104,3,392,-0.5,-0.5,-0.5,4,4,0.8,4,576,1,1,576,0,0,1,1,-0.341052429875333,-0.341052429875333,750,1,0,congruent,0,3359.79291315745,3862.74796411719
42,104,3,393,0.5,-0.5,0.5,3,2,0.8,3,798,1,0,798,1,0,0.8,NaN,1.17295000119417,1.17295000119417,750,0,0,incongruent,1,1722.26816158413,2754.89596572607
42,104,3,394,-0.5,0.5,0.5,2,1,0.8,2,383,1,1,383,1,0,1,0.8,-1.65727976859792,-1.65727976859792,750,0,0,incongruent,0.1,8564.47540106711,494.898892831606
42,104,3,396,0.5,-0.5,-0.5,4,4,0.6,4,470,1,1,470,0,0,0.8,NaN,-1.06395449155717,-1.06395449155717,750,1,0,congruent,0,3623.62133479024,5779.44110039327
42,104,3,399,0.5,0.5,-0.5,2,2,0.6,2,420,1,1,420,1,0,0.2,NaN,-1.40494603008633,-1.40494603008633,750,1,0,congruent,1,1979.98307162662,546.531255960229
42,104,3,400,-0.5,0.5,0,4,NaN,0.6,4,584,1,1,584,1,0,0.4,1,-0.286493783710666,-0.286493783710666,750,0,0,neutral,0.1,4312.37676327914,3159.3671121585
42,104,3,401,0.5,0.5,0.5,3,1,0.8,3,797,1,0,797,0,0,0.6,NaN,1.16613017042359,1.16613017042359,750,0,0,incongruent,0,1701.25590143989,4001.31586866523
42,104,3,402,-0.5,0.5,-0.5,4,4,0.6,4,532,1,1,532,1,0,0.6,1,-0.641124983781,-0.641124983781,750,1,0,congruent,0.1,6388.29458464101,3382.92780807969
42,104,3,403,0.5,-0.5,0.5,2,1,0.6,2,919,1,0,919,1,0,0.8,NaN,1.99814952443475,1.99814952443475,750,0,0,incongruent,1,5047.64471058812,3288.06975895457
42,104,3,404,-0.5,-0.5,0.5,1,4,0.6,3,698,0,1,NaN,1,0,1.2,0.4,0.490966924135835,NaN,750,0,1,incongruent,0.1,4268.06510431187,7104.00425936602
42,104,3,405,0.5,0.5,-0.5,3,3,0.6,3,720,1,1,720,1,0,1,NaN,0.641003201088668,0.641003201088668,750,1,0,congruent,1,4172.11833750446,4273.34036710682
42,104,3,406,0.5,-0.5,-0.5,1,1,0.8,1,513,1,1,513,1,0,1.2,NaN,-0.770701768422083,-0.770701768422083,750,1,0,congruent,1,2704.3370095485,3032.37808515139
42,104,3,407,-0.5,-0.5,0,3,NaN,0.8,3,351,1,1,351,1,0,1.6,0.4,-1.87551435325658,-1.87551435325658,750,0,0,neutral,0.1,6411.00063478916,31501.5922175578
42,104,3,408,0.5,-0.5,0.5,2,1,0.8,2,685,1,1,685,1,0,1.6,NaN,0.402309124118251,0.402309124118251,750,0,0,incongruent,1,8678.52647295326,3142.85062272444
42,104,3,409,-0.5,0.5,0,3,NaN,0.8,3,485,1,1,485,1,0,1.6,1,-0.961657029998417,-0.961657029998417,750,0,0,neutral,0.1,6973.9197583903,536.511473808356
42,104,3,410,-0.5,0.5,-0.5,4,4,0.8,4,453,1,1,453,1,0,1.6,1,-1.17989161465708,-1.17989161465708,750,1,0,congruent,0.1,3172.94657879976,6834.41806968808
42,104,3,413,-0.5,0.5,0,4,NaN,1,4,518,1,1,518,1,0,1.6,1,-0.736602614569167,-0.736602614569167,750,0,0,neutral,0.1,4529.80709183633,3129.13059445354
42,104,3,414,0.5,-0.5,0.5,1,3,1,1,946,1,0,946,1,0,1.4,NaN,2.1822849552405,2.1822849552405,750,0,0,incongruent,1,657.53620768919,2548.03325511593
42,104,3,415,0.5,0.5,0.5,3,1,1,3,400,1,1,400,1,0,1.6,NaN,-1.541342645498,-1.541342645498,750,0,0,incongruent,1,1946.23177765325,2627.85362661353
42,104,3,416,-0.5,-0.5,-0.5,4,4,1,4,462,1,1,462,1,0,1.8,0.4,-1.11851313772183,-1.11851313772183,750,1,0,congruent,0.1,2612.39708855405,1820.86390270095
42,104,3,417,-0.5,-0.5,0.5,1,3,1,1,405,1,1,405,1,0,1.6,0.6,-1.50724349164508,-1.50724349164508,750,0,0,incongruent,0.1,9971.12116396328,1365.24226709606
42,104,3,418,-0.5,-0.5,0.5,2,1,1,2,612,1,1,612,1,0,1.4,0.8,-0.0955385221343326,-0.0955385221343326,750,0,0,incongruent,0.1,3673.75347166446,1137.21939320393
42,104,3,419,0.5,-0.5,-0.5,4,4,1,4,572,1,1,572,1,0,1.4,NaN,-0.368331752957666,-0.368331752957666,750,1,0,congruent,1,2469.45563538237,2639.80539348622
42,104,3,420,-0.5,0.5,0.5,3,2,1,3,355,1,1,355,1,0,1.4,1,-1.84823503017425,-1.84823503017425,750,0,0,incongruent,0.1,6241.3557514497,3064.18963868291
42,104,3,421,0.5,-0.5,0.5,2,3,1,2,645,1,1,645,1,0,1.2,NaN,0.129515893294918,0.129515893294918,750,0,0,incongruent,1,2288.92181813271,2844.1363246453
42,104,3,422,-0.5,-0.5,0.5,1,2,1,1,766,1,0,766,1,0,1.4,1,0.954715416535502,0.954715416535502,750,0,0,incongruent,0.1,3706.85269410384,1016.97335649461
42,104,3,423,-0.5,-0.5,0.5,2,1,1,2,560,1,1,560,1,0,1.4,1,-0.450169722204666,-0.450169722204666,750,0,0,incongruent,0.1,2614.02629654412,2327.03837215464
42,104,3,424,0.5,0.5,-0.5,4,4,1,4,452,1,1,452,1,0,1.4,NaN,-1.18671144542767,-1.18671144542767,750,1,0,congruent,1,2457.78246669765,1253.516532397
42,104,3,426,0.5,-0.5,0.5,2,4,0.8,2,591,1,1,591,1,0,1.2,NaN,-0.238754968316583,-0.238754968316583,750,0,0,incongruent,1,9660.62380674736,3930.71978305515
42,104,3,429,0.5,-0.5,0,1,NaN,0.6,3,694,0,1,NaN,1,0,1.2,NaN,0.463687601053501,NaN,750,0,1,neutral,1,2309.44626844054,1607.42664971693
42,104,3,430,-0.5,0.5,0.5,2,1,0.6,2,485,1,1,485,1,0,1.2,0.8,-0.961657029998417,-0.961657029998417,750,0,0,incongruent,0.1,9761.21930581079,7345.13028238622
42,104,3,431,0.5,-0.5,0,1,NaN,0.6,1,849,1,0,849,1,0,1.4,NaN,1.52076137049392,1.52076137049392,750,0,0,neutral,1,3203.43751548069,2890.05181988136
42,104,3,432,0.5,0.5,0.5,2,1,0.6,2,773,1,0,773,0,0,1.4,NaN,1.00245423192959,1.00245423192959,750,0,0,incongruent,0,3950.82479926761,1891.90418191741
42,104,3,433,0.5,0.5,-0.5,4,4,0.4,4,459,1,1,459,1,0,1.4,NaN,-1.13897263003358,-1.13897263003358,750,1,0,congruent,1,1264.70669703387,554.168178090927
42,104,3,434,0.5,-0.5,0,3,NaN,0.4,2,719,0,1,NaN,1,0,1.4,NaN,0.634183370318085,NaN,750,0,1,neutral,1,2442.26939526572,2435.43225500796
42,104,3,435,-0.5,-0.5,-0.5,2,2,0.4,2,524,1,1,524,0,0,1.4,1,-0.695683629945667,-0.695683629945667,750,1,0,congruent,0,2548.20036068173,6261.92123772467
42,104,3,436,-0.5,0.5,-0.5,1,1,0.4,2,613,0,1,NaN,0,0,1.2,0.8,-0.0887186913637492,NaN,750,0,1,congruent,0,6579.77144557206,1039.11358127697
42,104,3,437,-0.5,0.5,0.5,4,2,0.4,3,540,0,1,NaN,0,0,0.8,0.6,-0.586566337616333,NaN,750,0,1,incongruent,0,3254.56410353736,667.31241250197
42,104,3,438,-0.5,0.5,-0.5,1,1,0.4,1,901,1,0,901,0,0,0.8,0.4,1.87539257056425,1.87539257056425,750,1,0,congruent,0,4325.46537411883,3477.93229611983
42,104,3,439,-0.5,0.5,-0.5,4,4,0.2,2,537,0,1,NaN,0,0,0.4,0.2,-0.607025829928083,NaN,750,0,1,congruent,0,6532.46560894164,919.936317794503
42,104,3,440,-0.5,-0.5,0,1,NaN,0.2,1,656,1,1,656,0,0,0,0.8,0.204534031771334,0.204534031771334,750,0,0,neutral,0,5143.96020616273,4702.5823521848
42,104,3,442,-0.5,-0.5,0,3,NaN,0.2,2,646,0,1,NaN,0,0,0,0.6,0.136335724065501,NaN,750,0,1,neutral,0,4941.14336892613,4664.98170418299
42,104,3,447,0.5,0.5,-0.5,1,1,0.2,2,973,0,0,NaN,0,0,0.4,NaN,2.36642038604625,NaN,750,0,1,congruent,0,4124.63308774426,6733.72955419669
42,104,3,449,0.5,0.5,-0.5,1,1,0.2,2,659,0,1,NaN,0,0,0.4,NaN,0.224993524083084,NaN,750,0,1,congruent,0,7827.09180568895,981.764394526284
42,104,4,451,0.5,0.5,-0.5,1,1,0,2,463,0,1,NaN,0,0,0,NaN,-1.11169330695125,NaN,750,0,1,congruent,0,2630.82747333611,1802.49361310701
42,104,4,453,0.5,-0.5,-0.5,1,1,0,2,747,0,1,NaN,0,0,0,NaN,0.825138631894418,NaN,750,0,1,congruent,0,5764.01178303959,2166.98214041872
42,104,4,454,0.5,0.5,0,3,NaN,0,4,665,0,1,NaN,0,0,0,NaN,0.265912508706585,NaN,750,0,1,neutral,0,4574.29879222284,1114.65210197941
42,104,4,455,-0.5,-0.5,0.5,4,3,0,4,548,1,1,548,0,0,0,0.4,-0.532007691451666,-0.532007691451666,750,0,0,incongruent,0,3580.97532557796,5013.81247479494
42,104,4,460,-0.5,-0.5,-0.5,3,3,0.2,3,614,1,1,614,0,0,0.4,0,-0.0818988605931659,-0.0818988605931659,750,1,0,congruent,0,3686.32092745944,1891.31639791144
42,104,4,461,-0.5,-0.5,0.5,1,2,0.2,2,663,0,1,NaN,0,0,0.4,0,0.252272847165418,NaN,750,1,0,incongruent,0,3083.01972560691,1010.78926546922
42,104,4,462,-0.5,0.5,0.5,4,3,0.2,4,422,1,1,422,1,0,0.4,0,-1.39130636854517,-1.39130636854517,750,0,0,incongruent,0.1,3123.06206300162,3106.60890351138
42,104,4,463,-0.5,0.5,0,1,NaN,0.4,2,636,0,1,NaN,0,0,0.6,0.2,0.0681374163596676,NaN,750,0,1,neutral,0,3854.2205939564,3115.04297911326
42,104,4,464,-0.5,0.5,0.5,4,3,0.4,3,602,0,1,NaN,0,0,0.2,0.2,-0.163736829840166,NaN,750,1,0,incongruent,0,5106.87749419576,2921.08532247799
42,104,4,465,-0.5,0.5,0.5,1,4,0.4,2,807,0,0,NaN,0,0,0.2,0.2,1.23432847812942,NaN,750,0,1,incongruent,0,18251.9217294909,7629.67621589335
42,104,4,466,0.5,0.5,-0.5,3,3,0.2,3,481,1,1,481,1,0,0.2,NaN,-0.98893635308075,-0.98893635308075,750,1,0,congruent,1,866.693867327892,1131.4942462574
42,104,4,467,-0.5,0.5,0,1,NaN,0.4,2,656,0,1,NaN,0,0,0.6,0.2,0.204534031771334,NaN,750,0,1,neutral,0,6947.10618697281,6261.37335882869
42,104,4,473,-0.5,0.5,0.5,3,2,0.2,3,812,1,0,812,0,0,0,0,1.26842763198234,1.26842763198234,750,0,0,incongruent,0,1094.12334609206,3169.65398756758
42,104,4,474,-0.5,-0.5,-0.5,4,4,0.2,3,730,0,1,NaN,0,0,0,0,0.709201508794502,NaN,750,0,1,congruent,0,4162.98013796707,4394.54862133181
42,104,4,475,-0.5,-0.5,0,1,NaN,0.2,3,664,0,1,NaN,1,0,0,0,0.259092677936001,NaN,750,0,1,neutral,0.1,4126.60469405156,5092.22102590241
42,104,4,476,-0.5,0.5,-0.5,4,4,0.2,4,546,1,1,546,1,0,0.2,0,-0.545647352992833,-0.545647352992833,750,1,0,congruent,0.1,2479.47094163729,3602.91550244554
42,104,4,478,0.5,0.5,-0.5,1,1,0.4,1,670,1,1,670,1,0,0.6,NaN,0.300011662559501,0.300011662559501,750,1,0,congruent,1,3313.87275397388,3954.44660096302
42,104,4,479,0.5,-0.5,0,2,NaN,0.6,2,635,1,1,635,1,0,1,NaN,0.0613175855890843,0.0613175855890843,750,0,0,neutral,1,9411.23733084105,2156.98391666187
42,104,4,480,-0.5,-0.5,-0.5,3,3,0.6,4,811,0,0,NaN,0,0,1.4,0.2,1.26160780121175,NaN,750,0,1,congruent,0,2373.43435650334,4573.98260971862
42,104,4,481,-0.5,0.5,0,4,NaN,0.6,4,486,1,1,486,1,0,1.2,0.4,-0.954837199227834,-0.954837199227834,750,0,0,neutral,0.1,1275.71872089311,2169.52646983529
42,104,4,483,-0.5,0.5,-0.5,2,2,0.8,2,691,1,1,691,1,0,1.2,0.6,0.443228108741751,0.443228108741751,750,1,0,congruent,0.1,1388.40351259429,3020.43574048555
42,104,4,484,-0.5,-0.5,0,3,NaN,1,3,573,1,1,573,1,0,1,0.4,-0.361511922187083,-0.361511922187083,750,0,0,neutral,0.1,1103.3856552861,9467.20925623888
42,104,4,487,-0.5,0.5,-0.5,1,1,0.8,1,951,1,0,951,0,0,0.8,0.8,2.21638410909342,2.21638410909342,750,1,0,congruent,0,12842.0043495648,5878.87338189169
42,104,4,488,-0.5,-0.5,-0.5,2,2,0.6,2,444,1,1,444,0,0,0.6,0.8,-1.24127009159233,-1.24127009159233,750,1,0,congruent,0,2563.84835756955,2057.79681644907
42,104,4,489,-0.5,0.5,-0.5,1,1,0.6,1,778,1,0,778,0,0,0.4,0.6,1.0365533857825,1.0365533857825,750,1,0,congruent,0,1411.15243762194,1763.69180594132
42,104,4,490,-0.5,0.5,0.5,2,3,0.4,3,511,0,1,NaN,0,0,0.2,0.4,-0.78434142996325,NaN,750,1,0,incongruent,0,6461.50932167043,1520.52619136937
42,104,4,491,0.5,0.5,0.5,4,1,0.2,4,533,1,1,533,1,0,0,NaN,-0.634305153010417,-0.634305153010417,750,0,0,incongruent,1,5644.89418787256,3075.80823259661
42,104,4,496,-0.5,0.5,0,3,NaN,0.2,3,576,1,1,576,1,0,0.4,0,-0.341052429875333,-0.341052429875333,750,0,0,neutral,0.1,3402.62868374332,1388.55583383508
42,104,4,497,0.5,0.5,0.5,4,2,0.4,4,491,1,1,491,1,0,0.2,NaN,-0.920738045374917,-0.920738045374917,750,0,0,incongruent,1,4933.87334668065,2909.63265111836
42,104,4,498,0.5,0.5,0.5,1,4,0.6,1,602,1,1,602,1,0,0.6,NaN,-0.163736829840166,-0.163736829840166,750,0,0,incongruent,1,3113.31233670941,4137.12005934436
42,104,4,499,-0.5,0.5,0.5,3,2,0.6,3,685,1,1,685,1,0,1,0.2,0.402309124118251,0.402309124118251,750,0,0,incongruent,0.1,6214.51314453516,2149.52451995338
42,104,4,500,-0.5,0.5,0.5,4,3,0.8,4,447,1,1,447,1,0,1.2,0.4,-1.22081059928058,-1.22081059928058,750,0,0,incongruent,0.1,3435.90452298521,743.375575983965
42,104,4,502,0.5,-0.5,-0.5,4,4,1,4,554,1,1,554,1,0,1.4,NaN,-0.491088706828166,-0.491088706828166,750,1,0,congruent,1,1283.19155032157,1735.5083875771
42,104,4,504,0.5,-0.5,0.5,2,1,1,2,863,1,0,863,1,0,1.4,NaN,1.61623900128209,1.61623900128209,750,0,0,incongruent,1,2709.79211180382,1572.77567873886
42,104,4,505,0.5,-0.5,0,4,NaN,1,4,567,1,1,567,1,0,1.6,NaN,-0.402430906810583,-0.402430906810583,750,0,0,neutral,1,2228.10011006372,1444.90464315688
42,104,4,507,0.5,-0.5,-0.5,1,1,1,2,791,0,0,NaN,1,0,2,NaN,1.12521118580009,NaN,750,0,1,congruent,1,4889.41699111526,2052.4011170592
42,104,4,508,-0.5,-0.5,0,4,NaN,1,4,686,1,1,686,1,0,2,0.6,0.409128954888835,0.409128954888835,750,0,0,neutral,0.1,1011.50161304837,2316.57664828886
42,104,4,511,-0.5,-0.5,0,3,NaN,0.8,3,581,1,1,581,1,0,1.4,0.6,-0.306953276022416,-0.306953276022416,750,0,0,neutral,0.1,2447.60606956192,622.813258325613
42,104,4,512,-0.5,0.5,-0.5,1,1,0.8,1,596,1,1,596,1,0,1.2,0.6,-0.204655814463666,-0.204655814463666,750,1,0,congruent,0.1,2175.49118201753,5467.30260935272
42,104,4,513,0.5,0.5,-0.5,3,3,0.8,3,655,1,1,655,1,0,1,NaN,0.197714201000751,0.197714201000751,750,1,0,congruent,1,1756.94989186893,1270.37716508803
42,104,4,514,-0.5,0.5,0.5,4,1,0.8,4,618,1,1,618,1,0,1.2,0.8,-0.0546195375108325,-0.0546195375108325,750,0,0,incongruent,0.1,3847.99821286177,973.995132830263
42,104,4,515,0.5,-0.5,0,2,NaN,0.8,3,618,0,1,NaN,1,0,1.4,NaN,-0.0546195375108325,NaN,750,0,1,neutral,1,8037.67900567941,1216.86223685072
42,104,4,518,-0.5,-0.5,0.5,3,4,0.8,3,858,1,0,858,1,0,1.4,0.6,1.58213984742917,1.58213984742917,750,0,0,incongruent,0.1,4265.07142574498,3535.07707896062
42,104,4,520,0.5,0.5,0.5,2,3,1,2,506,1,1,506,1,0,1.4,NaN,-0.818440583816167,-0.818440583816167,750,0,0,incongruent,1,3112.11872592592,1399.48305495739
42,104,4,524,0.5,0.5,-0.5,4,4,0.6,4,421,1,1,421,1,0,1,NaN,-1.39812619931575,-1.39812619931575,750,1,0,congruent,1,2661.38614524659,1147.99513774248
42,104,4,526,-0.5,-0.5,-0.5,4,4,0.6,3,592,0,1,NaN,1,0,1,0.8,-0.231935137545999,NaN,750,0,1,congruent,0.1,4169.53948373111,2481.89579882088
42,104,4,527,0.5,-0.5,0,2,NaN,0.6,2,682,1,1,682,1,0,1.2,NaN,0.381849631806501,0.381849631806501,750,0,0,neutral,1,2026.43827014249,2170.26827843616
42,104,4,528,-0.5,0.5,-0.5,3,3,0.6,3,752,1,0,752,0,0,1.6,0.6,0.859237785747335,0.859237785747335,750,1,0,congruent,0,2308.26643479389,1340.46258032544
42,104,4,530,0.5,-0.5,-0.5,3,3,0.4,3,995,1,0,995,1,0,1,NaN,2.51645666299909,2.51645666299909,750,1,0,congruent,1,6037.02502047229,2494.0034628505
42,104,4,531,-0.5,-0.5,-0.5,4,4,0.4,4,850,1,0,850,1,0,1,0.6,1.5275812012645,1.5275812012645,750,1,0,congruent,0.1,2762.79494138836,1842.37643471859
42,104,4,532,0.5,-0.5,-0.5,2,2,0.4,2,607,1,1,607,1,0,1,NaN,-0.129637675987249,-0.129637675987249,750,1,0,congruent,1,5257.92926616634,1656.29649869028
42,104,4,533,0.5,0.5,0.5,1,4,0.4,1,459,1,1,459,1,0,1,NaN,-1.13897263003358,-1.13897263003358,750,0,0,incongruent,1,3131.55924042728,2709.2419167507
42,104,4,534,0.5,-0.5,-0.5,2,2,0.4,2,542,1,1,542,0,0,1.4,NaN,-0.572926676075166,-0.572926676075166,750,1,0,congruent,0,3298.83880432825,2351.95928610953
42,104,4,535,-0.5,0.5,0,1,NaN,0.4,2,788,0,0,NaN,0,0,1.4,0.4,1.10475169348834,NaN,750,0,1,neutral,0,6008.18481675378,1927.24473696001
42,104,4,537,0.5,0.5,0,1,NaN,0.4,1,398,1,1,398,1,0,0.8,NaN,-1.55498230703917,-1.55498230703917,750,0,0,neutral,1,5584.04808967529,14243.1904598486
42,104,4,538,0.5,0.5,0.5,4,3,0.6,4,547,1,1,547,1,0,0.8,NaN,-0.53882752222225,-0.53882752222225,750,0,0,incongruent,1,3901.47838774005,2003.20229680736
42,104,4,539,0.5,-0.5,0.5,2,4,0.6,2,842,1,0,842,1,0,0.8,NaN,1.47302255509984,1.47302255509984,750,0,0,incongruent,1,8979.59984479222,5670.56634843583
42,104,4,540,-0.5,-0.5,0.5,3,2,0.6,3,703,1,1,703,1,0,1.2,0.6,0.525066077988751,0.525066077988751,750,0,0,incongruent,0.1,9961.50108172226,5122.34523729544
42,104,4,541,-0.5,0.5,0,4,NaN,0.6,4,434,1,1,434,1,0,1.4,0.2,-1.30946839929817,-1.30946839929817,750,0,0,neutral,0.1,1900.17977770327,3215.5241764033
42,104,4,542,0.5,-0.5,-0.5,3,3,0.8,3,665,1,1,665,1,0,1.6,NaN,0.265912508706585,0.265912508706585,750,1,0,congruent,1,1915.01469553367,2973.82705713003
42,104,4,543,0.5,0.5,0,2,NaN,0.8,2,488,1,1,488,1,0,1.6,NaN,-0.941197537686667,-0.941197537686667,750,0,0,neutral,1,1003.47068932092,1169.5235085187
42,104,4,544,-0.5,0.5,0.5,1,3,0.8,3,815,0,0,NaN,0,0,1.6,0.2,1.28888712429409,NaN,750,1,0,incongruent,0,3535.36340759881,2277.61065186531
42,104,4,545,0.5,0.5,-0.5,4,4,0.8,4,479,1,1,479,1,0,1.2,NaN,-1.00257601462192,-1.00257601462192,750,1,0,congruent,1,5446.21539968289,2728.43111134657
42,104,4,546,-0.5,-0.5,0.5,1,2,0.8,2,773,0,0,NaN,1,0,1.4,0.6,1.00245423192959,NaN,750,1,0,incongruent,0.1,1457.36578209886,3482.54019369091
42,104,4,548,-0.5,-0.5,0.5,4,1,0.8,4,771,1,0,771,0,0,1.2,0.8,0.988814570388419,0.988814570388419,750,0,0,incongruent,0,1270.85456324515,1766.72199802138
42,104,4,549,0.5,-0.5,0.5,1,4,0.8,3,821,0,0,NaN,1,0,0.8,NaN,1.32980610891759,NaN,750,0,1,incongruent,1,1681.57000518371,3201.65532304149
42,104,4,550,-0.5,-0.5,-0.5,3,3,0.8,2,592,0,1,NaN,0,0,1.2,0.6,-0.231935137545999,NaN,750,0,1,congruent,0,3473.85767684037,3854.10046940587
42,104,4,553,-0.5,0.5,0.5,4,3,0.8,4,480,1,1,480,1,0,0.8,0.4,-0.995756183851334,-0.995756183851334,750,0,0,incongruent,0.1,5587.96838244241,1774.37380471092
42,104,4,554,-0.5,-0.5,-0.5,1,1,0.8,2,604,0,1,NaN,1,0,1,0.6,-0.150097168298999,NaN,750,0,1,congruent,0.1,3779.11564409071,562.551866575678
42,104,4,556,0.5,-0.5,-0.5,1,1,0.8,2,570,0,1,NaN,1,0,1,NaN,-0.381971414498833,NaN,750,0,1,congruent,1,1504.4643794499,1212.14476718358
42,104,4,557,0.5,0.5,0.5,2,4,0.8,2,463,1,1,463,1,0,1.2,NaN,-1.11169330695125,-1.11169330695125,750,0,0,incongruent,1,1298.45195071178,2082.15156668637
42,104,4,558,-0.5,0.5,0.5,4,1,0.8,4,526,1,1,526,1,0,1.4,0.6,-0.6820439684045,-0.6820439684045,750,0,0,incongruent,0.1,1849.72439754544,1940.54688256824
42,104,4,562,0.5,-0.5,-0.5,2,2,0.8,2,831,1,0,831,1,0,1.2,NaN,1.39800441662342,1.39800441662342,750,1,0,congruent,1,1750.63547320647,1555.0465149578
42,104,4,563,-0.5,-0.5,-0.5,1,1,0.8,1,943,1,0,943,1,0,1.2,0.8,2.16182546292875,2.16182546292875,750,1,0,congruent,0.1,1884.11020481668,2880.69231723439
42,104,4,567,0.5,0.5,-0.5,1,1,0.8,1,428,1,1,428,1,0,1.6,NaN,-1.35038738392167,-1.35038738392167,750,1,0,congruent,1,5687.50561400039,2972.12509504743
42,104,4,568,-0.5,0.5,0,2,NaN,0.8,2,587,1,1,587,1,0,1.6,0.8,-0.266034291398916,-0.266034291398916,750,0,0,neutral,0.1,3410.87502492001,4031.33058334212
42,104,4,569,0.5,0.5,0.5,1,2,0.8,1,787,1,0,787,0,0,1.6,NaN,1.09793186271775,1.09793186271775,750,0,0,incongruent,0,1035.02487174181,1824.67625178077
42,104,4,570,-0.5,-0.5,0,2,NaN,0.6,3,725,0,1,NaN,1,0,1.2,1,0.675102354941585,NaN,750,0,1,neutral,0.1,6706.97457459158,2294.93248569842
42,104,4,571,-0.5,0.5,-0.5,1,1,0.6,1,595,1,1,595,1,0,1,0.8,-0.211475645234249,-0.211475645234249,750,1,0,congruent,0.1,15409.0148839288,1755.07763185553
42,104,4,572,0.5,0.5,0,3,NaN,0.8,3,505,1,1,505,1,0,1,NaN,-0.82526041458675,-0.82526041458675,750,0,0,neutral,1,6640.45202618456,3317.48110828238
42,104,4,573,-0.5,0.5,-0.5,4,4,0.8,4,538,1,1,538,1,0,1,0.8,-0.6002059991575,-0.6002059991575,750,1,0,congruent,0.1,2921.01582367842,3259.83646690966
42,104,4,574,-0.5,0.5,-0.5,3,3,0.8,3,534,1,1,534,1,0,1,0.8,-0.627485322239833,-0.627485322239833,750,1,0,congruent,0.1,1366.82450085006,1282.97615585523
42,104,4,575,-0.5,0.5,0.5,4,1,0.8,4,447,1,1,447,1,0,1.2,1,-1.22081059928058,-1.22081059928058,750,0,0,incongruent,0.1,1613.61530672584,1797.25145389756
42,104,4,577,-0.5,0.5,0,1,NaN,1,4,520,0,1,NaN,0,0,1.4,1,-0.722962953028,NaN,750,0,1,neutral,0,2668.80625071923,5698.76674323957
42,104,4,578,0.5,-0.5,0.5,2,1,0.8,3,617,0,1,NaN,1,0,1,NaN,-0.0614393682814159,NaN,750,0,1,incongruent,1,15120.9402331838,4834.92459533466
42,104,4,579,-0.5,0.5,0,1,NaN,0.8,1,636,1,1,636,1,0,1.2,0.8,0.0681374163596676,0.0681374163596676,750,0,0,neutral,0.1,2432.28840802604,4745.39597958457
42,104,4,580,-0.5,-0.5,0.5,4,1,0.8,4,722,1,1,722,1,0,1.2,1,0.654642862629835,0.654642862629835,750,0,0,incongruent,0.1,3498.2678189684,3490.91928891777
42,104,4,581,0.5,0.5,0,3,NaN,0.8,2,481,0,1,NaN,0,0,1.2,NaN,-0.98893635308075,NaN,750,0,1,neutral,0,2487.65358479282,2888.56266677562
42,104,4,583,-0.5,0.5,-0.5,1,1,0.6,1,685,1,1,685,1,0,1.2,0.8,0.402309124118251,0.402309124118251,750,1,0,congruent,0.1,4515.31321338061,1638.54848591113
42,104,4,587,-0.5,0.5,-0.5,1,1,0.6,1,477,1,1,477,1,0,1,0.6,-1.01621567616308,-1.01621567616308,750,1,0,congruent,0.1,6067.88900283609,19733.3385947275
42,104,4,589,-0.5,-0.5,0.5,2,4,0.6,2,632,1,1,632,0,0,1,0.8,0.0408580932773342,0.0408580932773342,750,0,0,incongruent,0,3723.87730607562,2245.77012499484
42,104,4,591,0.5,-0.5,-0.5,4,4,0.6,4,671,1,1,671,0,0,0.6,NaN,0.306831493330085,0.306831493330085,750,1,0,congruent,0,4992.02765110591,2315.40252655634
42,104,4,593,0.5,0.5,-0.5,4,4,0.6,4,445,1,1,445,1,0,0.4,NaN,-1.23445026082175,-1.23445026082175,750,1,0,congruent,1,1269.12342834036,3894.59134524188
42,104,4,594,0.5,0.5,0.5,3,2,0.6,3,560,1,1,560,1,0,0.4,NaN,-0.450169722204666,-0.450169722204666,750,0,0,incongruent,1,3578.39590181583,4191.24036567038
42,104,4,596,0.5,0.5,-0.5,4,4,0.6,4,475,1,1,475,1,0,0.8,NaN,-1.02985533770425,-1.02985533770425,750,1,0,congruent,1,3415.15942734911,1935.53813282896
42,104,4,597,0.5,0.5,0.5,1,3,0.6,1,727,1,1,727,1,0,1.2,NaN,0.688742016482752,0.688742016482752,750,0,0,incongruent,1,8152.02767643307,5127.70888398838
42,104,4,598,-0.5,-0.5,-0.5,2,2,0.8,2,734,1,1,734,1,0,1.6,0.4,0.736480831876835,0.736480831876835,750,1,0,congruent,0.1,2853.08136252268,1276.15514955765
42,104,4,599,0.5,-0.5,0,4,NaN,0.8,4,486,1,1,486,1,0,1.4,NaN,-0.954837199227834,-0.954837199227834,750,0,0,neutral,1,1139.59210224321,1108.6078329764
