subid,vers,block,trial,rewlvl,efflvl,congruency,targetresp,distractorresp,rollingefflvl,resp,rt,acc,fast,accrt,isrewarded,ismiss,runavgrrgen,runavgrrcond,zrt,acczrt,rtthreshold,isdisterror,isranderror,congruence,feedback,fcz_resp_theta,fcz_resp_theta_baseline
43,104,1,1,-0.5,-0.5,-0.5,1,1,0,2,581,0,1,NaN,0,0,0,0,0.0761733078919311,NaN,750,0,1,congruent,0,880.867468125005,1262.06759237399
43,104,1,2,0.5,-0.5,-0.5,2,2,0,4,504,0,1,NaN,0,0,0,NaN,-0.421372749149572,NaN,750,0,1,congruent,0,700.60900577911,266.124732358491
43,104,1,3,0.5,-0.5,0,3,NaN,0,4,697,0,1,NaN,0,0,0,NaN,0.825723212006404,NaN,750,0,1,neutral,0,727.417414222399,2637.21506197033
43,104,1,4,-0.5,-0.5,-0.5,2,2,0,1,847,0,0,NaN,0,0,0,0,1.79496877767167,NaN,750,0,1,congruent,0,1909.80534318789,870.228924826941
43,104,1,5,0.5,0.5,-0.5,4,4,0,1,571,0,1,NaN,0,0,0,NaN,0.01155693684758,NaN,750,0,1,congruent,0,440.966768178431,1483.94587853747
43,104,1,6,0.5,-0.5,0.5,2,3,0,4,510,0,1,NaN,0,0,0,NaN,-0.382602926522962,NaN,750,0,1,incongruent,0,2097.85423593333,428.275089093316
43,104,1,7,0.5,-0.5,0,1,NaN,0,1,609,1,1,609,0,0,0,NaN,0.257099146816114,0.257099146816114,750,0,0,neutral,0,868.577925240602,2173.60265350318
43,104,1,10,-0.5,0.5,0.5,4,3,0,1,470,0,1,NaN,0,0,0,0,-0.641068410700366,NaN,750,0,1,incongruent,0,1116.88401585067,904.122962522809
43,104,1,11,0.5,-0.5,-0.5,1,1,0,1,403,1,1,403,0,0,0,NaN,-1.07399809669752,-1.07399809669752,750,1,0,congruent,0,5614.48665650732,1467.52626154306
43,104,1,12,-0.5,-0.5,0,2,NaN,0,4,864,0,0,NaN,0,0,0,0,1.90481660844707,NaN,750,0,1,neutral,0,898.952080886146,3898.25094585723
43,104,1,14,-0.5,-0.5,0.5,2,3,0,4,498,0,1,NaN,0,0,0,0,-0.460142571776183,NaN,750,0,1,incongruent,0,2530.71736453846,1114.01856203291
43,104,1,16,-0.5,0.5,-0.5,2,2,0,4,656,0,1,NaN,0,0,0,0,0.560796090724564,NaN,750,0,1,congruent,0,1132.23375417635,2419.26687333252
43,104,1,17,0.5,0.5,0,1,NaN,0,1,576,1,1,576,1,0,0,NaN,0.0438651223697556,0.0438651223697556,750,0,0,neutral,1,549.223451859131,1717.16413161627
43,104,1,18,-0.5,0.5,-0.5,2,2,0.2,4,639,0,1,NaN,0,0,0.4,0,0.450948259949167,NaN,750,0,1,congruent,0,1353.2384936304,316.728976484326
43,104,1,19,0.5,-0.5,0,1,NaN,0.2,2,609,0,1,NaN,0,0,0.4,NaN,0.257099146816114,NaN,750,0,1,neutral,0,999.817031424997,1781.09564723639
43,104,1,20,0.5,0.5,-0.5,3,3,0.2,4,618,0,1,NaN,0,0,0.4,NaN,0.31525388075603,NaN,750,0,1,congruent,0,1146.13320964219,585.380993769732
43,104,1,21,-0.5,0.5,-0.5,1,1,0.2,2,951,0,0,NaN,0,0,0.4,0,2.46697903653292,NaN,750,0,1,congruent,0,935.414770704692,1740.2474911404
43,104,1,23,0.5,0.5,-0.5,3,3,0.2,4,640,0,1,NaN,0,0,0,NaN,0.457409897053602,NaN,750,0,1,congruent,0,1058.62810484198,1435.30952779218
43,104,1,27,0.5,-0.5,-0.5,3,3,0,4,527,0,1,NaN,0,0,0,NaN,-0.272755095747565,NaN,750,0,1,congruent,0,1185.39615117828,1884.41611672387
43,104,1,29,0.5,0.5,0,3,NaN,0,4,569,0,1,NaN,0,0,0,NaN,-0.00136633736129018,NaN,750,0,1,neutral,0,1274.0630370382,1157.70255363415
43,104,1,31,0.5,0.5,-0.5,2,2,0,4,484,0,1,NaN,0,0,0,NaN,-0.550605491238274,NaN,750,0,1,congruent,0,298.769143309807,1779.60948099516
43,104,1,33,0.5,0.5,0.5,1,3,0,4,551,0,1,NaN,0,0,0,NaN,-0.117675805241122,NaN,750,0,1,incongruent,0,1036.33450200768,1415.73429123709
43,104,1,34,-0.5,-0.5,0,4,NaN,0,1,951,0,0,NaN,0,0,0,0,2.46697903653292,NaN,750,0,1,neutral,0,1107.02823549909,1124.14141433154
43,104,1,35,-0.5,-0.5,-0.5,3,3,0,4,733,0,1,NaN,0,0,0,0,1.05834214776607,NaN,750,0,1,congruent,0,566.978565433365,1220.56850705008
43,104,1,37,0.5,-0.5,0,2,NaN,0,4,633,0,1,NaN,0,0,0,NaN,0.412178437322557,NaN,750,0,1,neutral,0,1567.65257975785,1438.76709204287
43,104,1,39,-0.5,-0.5,0.5,2,1,0,2,597,1,1,597,0,0,0,0,0.179559501562893,0.179559501562893,750,0,0,incongruent,0,758.631251057872,2365.19615545983
43,104,1,40,-0.5,0.5,0,3,NaN,0,2,376,0,1,NaN,0,0,0,0,-1.24846229851727,NaN,750,0,1,neutral,0,1913.09399994146,620.509914354629
43,104,1,41,0.5,-0.5,-0.5,2,2,0,2,989,1,0,989,0,0,0,NaN,2.71252124650145,2.71252124650145,750,1,0,congruent,0,1190.27340858335,668.054630136455
43,104,1,42,-0.5,0.5,-0.5,3,3,0,4,442,0,1,NaN,0,0,0,0,-0.821994249624549,NaN,750,0,1,congruent,0,1059.42378939641,625.935025688019
43,104,1,43,-0.5,-0.5,0,1,NaN,0,1,293,1,1,293,0,0,0,0,-1.78477817818538,-1.78477817818538,750,0,0,neutral,0,1381.04464997371,293.582527477273
43,104,1,45,-0.5,0.5,0,1,NaN,0,2,564,0,1,NaN,0,0,0,0,-0.0336745228834657,NaN,750,0,1,neutral,0,2425.30009594837,1290.59148325921
43,104,1,46,0.5,0.5,-0.5,3,3,0,2,761,0,0,NaN,0,0,0,NaN,1.23926798669025,NaN,750,0,1,congruent,0,1181.87505202222,1093.31905827056
43,104,1,48,0.5,-0.5,-0.5,2,2,0,2,485,1,1,485,0,0,0,NaN,-0.544143854133839,-0.544143854133839,750,1,0,congruent,0,429.726304127055,301.609619276247
43,104,1,50,-0.5,-0.5,-0.5,2,2,0,2,480,1,1,480,0,0,0,0,-0.576452039656015,-0.576452039656015,750,1,0,congruent,0,622.795757483554,1182.87262115096
43,104,1,52,0.5,0.5,0,4,NaN,0,1,618,0,1,NaN,0,0,0,NaN,0.31525388075603,NaN,750,0,1,neutral,0,928.404927854961,2635.00520898601
43,104,1,53,0.5,-0.5,-0.5,2,2,0,2,612,1,1,612,0,0,0,NaN,0.276484058129419,0.276484058129419,750,1,0,congruent,0,582.911318849352,732.516196584447
43,104,1,54,-0.5,-0.5,0,1,NaN,0,2,549,0,1,NaN,0,0,0,0,-0.130599079449992,NaN,750,0,1,neutral,0,1481.55526289838,1527.29758539948
43,104,1,58,-0.5,0.5,-0.5,1,1,0,1,462,1,1,462,1,0,0,0,-0.692761507535847,-0.692761507535847,750,1,0,congruent,0.1,2887.59757238293,519.605874624006
43,104,1,60,-0.5,-0.5,0,3,NaN,0.2,4,720,0,1,NaN,0,0,0.2,0,0.974340865408411,NaN,750,0,1,neutral,0,801.401658743364,1400.24192033722
43,104,1,63,0.5,-0.5,0,1,NaN,0.2,1,569,1,1,569,0,0,0.2,NaN,-0.00136633736129018,-0.00136633736129018,750,0,0,neutral,0,1655.49014314294,1418.04615970645
43,104,1,64,0.5,-0.5,-0.5,2,2,0.2,2,949,1,0,949,0,0,0,NaN,2.45405576232405,2.45405576232405,750,1,0,congruent,0,815.151409545569,347.374624903635
43,104,1,66,-0.5,-0.5,-0.5,4,4,0.2,1,823,0,0,NaN,0,0,0.2,0.2,1.63988948716523,NaN,750,0,1,congruent,0,1413.91784287643,1386.40065641117
43,104,1,67,-0.5,0.5,-0.5,2,2,0.2,4,746,0,1,NaN,0,0,0.2,0.2,1.14234343012372,NaN,750,0,1,congruent,0,241.574482011257,253.473890859026
43,104,1,68,-0.5,-0.5,-0.5,3,3,0.2,4,861,0,0,NaN,0,0,0.2,0.2,1.88543169713376,NaN,750,0,1,congruent,0,168.128764629439,2279.27158421933
43,104,1,69,0.5,-0.5,0,2,NaN,0.2,4,666,0,1,NaN,1,0,0.2,NaN,0.625412461768915,NaN,750,0,1,neutral,1,1886.94063688308,2171.44479404694
43,104,1,71,-0.5,-0.5,-0.5,2,2,0.2,4,668,0,1,NaN,0,0,0.4,0.2,0.638335735977785,NaN,750,0,1,congruent,0,1168.66432972445,1103.44846131792
43,104,1,73,0.5,-0.5,0.5,3,1,0.2,1,726,0,1,NaN,0,0,0.4,NaN,1.01311068803502,NaN,750,1,0,incongruent,0,645.714284131839,908.882467349306
43,104,1,74,-0.5,-0.5,0,2,NaN,0.2,4,776,0,0,NaN,0,0,0.4,0.2,1.33619254325678,NaN,750,0,1,neutral,0,1915.24163890073,982.302292083026
43,104,1,75,0.5,0.5,-0.5,3,3,0.2,4,776,0,0,NaN,0,0,0,NaN,1.33619254325678,NaN,750,0,1,congruent,0,1249.65178420695,925.449535494233
43,104,1,76,0.5,0.5,-0.5,4,4,0.2,2,677,0,1,NaN,0,0,0,NaN,0.696490469917701,NaN,750,0,1,congruent,0,1408.61949842176,803.504383755677
43,104,1,77,-0.5,0.5,0.5,2,1,0,2,925,1,0,925,0,0,0,0.2,2.29897647181761,2.29897647181761,750,0,0,incongruent,0,1723.20148500108,1491.02571711524
43,104,1,79,-0.5,0.5,0,1,NaN,0,1,596,1,1,596,1,0,0,0.2,0.173097864458458,0.173097864458458,750,0,0,neutral,0.1,937.050881808146,649.211161335862
43,104,1,80,-0.5,0.5,0.5,3,2,0.2,4,603,0,1,NaN,0,0,0.2,0.4,0.218329324189503,NaN,750,0,1,incongruent,0,836.554904599492,791.330529043394
43,104,1,83,0.5,0.5,-0.5,2,2,0.2,2,608,1,1,608,1,0,0.6,NaN,0.250637509711679,0.250637509711679,750,1,0,congruent,1,673.640763433035,2416.8905010178
43,104,1,85,-0.5,0.5,-0.5,3,3,0.4,4,485,0,1,NaN,0,0,0.8,0.2,-0.544143854133839,NaN,750,0,1,congruent,0,1068.1292168902,342.772613220959
43,104,1,86,-0.5,0.5,-0.5,1,1,0.4,1,435,1,1,435,1,0,0.8,0.2,-0.867225709355595,-0.867225709355595,750,1,0,congruent,0.1,775.02262985246,758.670234951139
43,104,1,88,-0.5,0.5,0.5,1,4,0.4,1,710,1,1,710,1,0,0.6,0.4,0.90972449436406,0.90972449436406,750,0,0,incongruent,0.1,1818.660687411,1117.47399760594
43,104,1,89,0.5,0.5,0,2,NaN,0.6,2,454,1,1,454,1,0,0.4,NaN,-0.744454604371327,-0.744454604371327,750,0,0,neutral,1,1831.81984398777,1764.43279449708
43,104,1,91,-0.5,-0.5,0,1,NaN,0.6,1,825,1,0,825,1,0,1.2,0,1.6528127613741,1.6528127613741,750,0,0,neutral,0.1,558.839921244773,446.485376381571
43,104,1,92,0.5,-0.5,-0.5,2,2,0.6,2,530,1,1,530,1,0,1.2,NaN,-0.253370184434259,-0.253370184434259,750,1,0,congruent,1,312.8582631727,563.031122700855
43,104,1,93,-0.5,-0.5,-0.5,1,1,0.6,1,675,1,1,675,0,0,1.6,0.2,0.683567195708831,0.683567195708831,750,1,0,congruent,0,521.220011542458,1274.44016404046
43,104,1,94,0.5,-0.5,-0.5,2,2,0.6,1,702,0,1,NaN,0,0,1.4,NaN,0.858031397528579,NaN,750,0,1,congruent,0,1508.17806804487,1590.47370098613
43,104,1,95,0.5,0.5,0.5,1,3,0.6,4,749,0,1,NaN,0,0,1,NaN,1.16172834143703,NaN,750,0,1,incongruent,0,2698.20731247076,496.743437250117
43,104,1,96,0.5,0.5,-0.5,2,2,0.6,2,663,1,1,663,1,0,0.6,NaN,0.60602755045561,0.60602755045561,750,1,0,congruent,1,494.753281377766,2366.65767509632
43,104,1,98,0.5,0.5,0.5,2,1,0.6,1,623,0,1,NaN,0,0,0.4,NaN,0.347562066278206,NaN,750,1,0,incongruent,0,620.608084390027,560.3419499186
43,104,1,99,-0.5,0.5,-0.5,3,3,0.6,4,717,0,1,NaN,0,0,0.4,0.4,0.954955954095106,NaN,750,0,1,congruent,0,479.243205642034,1401.73092251336
43,104,1,101,0.5,-0.5,0.5,2,1,0.4,2,749,1,1,749,0,0,0.4,NaN,1.16172834143703,1.16172834143703,750,0,0,incongruent,0,1725.14558396347,1027.35396926463
43,104,1,102,-0.5,-0.5,0,3,NaN,0.4,4,432,0,1,NaN,1,0,0,0.2,-0.8866106206689,NaN,750,0,1,neutral,0.1,1529.10112768747,592.74620438855
43,104,1,103,0.5,-0.5,-0.5,1,1,0.4,1,668,1,1,668,0,0,0.2,NaN,0.638335735977785,0.638335735977785,750,1,0,congruent,0,713.434446845597,2217.42600012522
43,104,1,106,-0.5,0.5,0.5,4,1,0.2,1,761,0,0,NaN,0,0,0.2,0.4,1.23926798669025,NaN,750,1,0,incongruent,0,1116.24964792298,1030.68052902205
43,104,1,109,-0.5,0.5,0.5,3,2,0.2,2,568,0,1,NaN,0,0,0,0.4,-0.00782797446572529,NaN,750,1,0,incongruent,0,218.939723509617,483.654306372605
43,104,1,110,0.5,-0.5,0.5,4,3,0,4,735,1,1,735,0,0,0,NaN,1.07126542197494,1.07126542197494,750,0,0,incongruent,0,253.193885377156,353.885682589092
43,104,1,112,0.5,0.5,-0.5,3,3,0,4,853,0,0,NaN,0,0,0,NaN,1.83373860029828,NaN,750,0,1,congruent,0,468.136668953694,1290.52450021615
43,104,1,113,-0.5,-0.5,0,2,NaN,0,2,835,1,0,835,0,0,0,0.2,1.71742913241845,1.71742913241845,750,0,0,neutral,0,894.702487617355,850.77562985676
43,104,1,115,-0.5,0.5,0,3,NaN,0,4,619,0,1,NaN,0,0,0,0.4,0.321715517860465,NaN,750,0,1,neutral,0,588.449946374374,285.302563562897
43,104,1,116,0.5,0.5,0.5,2,3,0,2,856,1,0,856,0,0,0,NaN,1.85312351161159,1.85312351161159,750,0,0,incongruent,0,740.733064840799,556.957820556652
43,104,1,118,-0.5,-0.5,0.5,3,1,0,1,649,0,1,NaN,0,0,0,0.2,0.515564630993518,NaN,750,1,0,incongruent,0,1350.01592431976,205.067189687449
43,104,1,120,-0.5,0.5,-0.5,2,2,0,2,531,1,1,531,1,0,0,0,-0.246908547329824,-0.246908547329824,750,1,0,congruent,0.1,1460.05940413955,2279.17690907667
43,104,1,121,0.5,0.5,0,3,NaN,0.2,4,458,0,1,NaN,0,0,0.2,NaN,-0.718608055953587,NaN,750,0,1,neutral,0,2209.56027453303,897.182284486743
43,104,1,123,0.5,0.5,-0.5,3,3,0.2,4,445,0,1,NaN,0,0,0.2,NaN,-0.802609338311243,NaN,750,0,1,congruent,0,2104.42968792618,2167.15510039044
43,104,1,124,-0.5,0.5,0,4,NaN,0.2,4,629,1,1,629,1,0,0.2,0.2,0.386331888904816,0.386331888904816,750,0,0,neutral,0.1,650.860764949157,1930.41846392719
43,104,1,125,0.5,0.5,0.5,3,4,0.4,4,658,0,1,NaN,0,0,0.4,NaN,0.573719364933434,NaN,750,1,0,incongruent,0,869.443631996399,1874.74307786889
43,104,1,126,0.5,0.5,-0.5,2,2,0.2,2,432,1,1,432,1,0,0.2,NaN,-0.8866106206689,-0.8866106206689,750,1,0,congruent,1,513.710155464721,642.204198242075
43,104,1,127,0.5,0.5,0.5,3,4,0.4,4,877,0,0,NaN,0,0,0.6,NaN,1.98881789080472,NaN,750,1,0,incongruent,0,795.88728662336,2318.60660196652
43,104,1,128,-0.5,0.5,0,2,NaN,0.4,2,644,1,1,644,1,0,0.6,0.4,0.483256445471343,0.483256445471343,750,0,0,neutral,0.1,955.745296219445,1799.88356412846
43,104,1,130,0.5,-0.5,0,2,NaN,0.6,4,557,0,1,NaN,1,0,1,NaN,-0.0789059826145115,NaN,750,0,1,neutral,1,2459.30527738549,3388.68440269951
43,104,1,131,0.5,-0.5,-0.5,3,3,0.6,4,787,0,0,NaN,1,0,1.4,NaN,1.40727055140556,NaN,750,0,1,congruent,1,472.695910137086,1077.17454346027
43,104,1,132,0.5,-0.5,0,2,NaN,0.6,2,518,1,1,518,1,0,1.4,NaN,-0.330909829687481,-0.330909829687481,750,0,0,neutral,1,338.081228511078,2054.69316785203
43,104,1,136,0.5,0.5,-0.5,3,3,0.4,4,638,0,1,NaN,0,0,1.2,NaN,0.444486622844732,NaN,750,0,1,congruent,0,674.990148087498,688.313001776498
43,104,1,137,0.5,0.5,0.5,2,4,0.4,2,687,1,1,687,1,0,0.8,NaN,0.761106840962052,0.761106840962052,750,0,0,incongruent,1,1672.21072445791,1515.39057518353
43,104,1,139,0.5,0.5,-0.5,1,1,0.4,1,578,1,1,578,1,0,0.8,NaN,0.0567883965786258,0.0567883965786258,750,1,0,congruent,1,429.88443736689,629.568977807988
43,104,1,141,0.5,0.5,0.5,3,1,0.6,4,578,0,1,NaN,0,0,0.8,NaN,0.0567883965786258,NaN,750,0,1,incongruent,0,361.094485120009,460.589045627276
43,104,1,142,0.5,-0.5,0,1,NaN,0.4,2,531,0,1,NaN,0,0,0.8,NaN,-0.246908547329824,NaN,750,0,1,neutral,0,1952.28740587308,913.892914884165
43,104,1,143,0.5,0.5,-0.5,3,3,0.4,4,536,0,1,NaN,0,0,0.4,NaN,-0.214600361807649,NaN,750,0,1,congruent,0,861.517725382441,1631.50735245731
43,104,1,144,-0.5,-0.5,-0.5,1,1,0.4,1,722,1,1,722,0,0,0.4,0,0.987264139617281,0.987264139617281,750,1,0,congruent,0,421.460549244296,1774.9090112191
43,104,1,145,-0.5,0.5,0.5,3,2,0.4,4,647,0,1,NaN,0,0,0,0.6,0.502641356784648,NaN,750,0,1,incongruent,0,2416.40826926298,668.788145562997
43,104,1,146,-0.5,0.5,0,2,NaN,0.4,2,632,1,1,632,1,0,0,0.6,0.405716800218122,0.405716800218122,750,0,0,neutral,0.1,513.523351789694,469.258063087383
43,104,1,147,0.5,0.5,-0.5,3,3,0.4,4,484,0,1,NaN,0,0,0.2,NaN,-0.550605491238274,NaN,750,0,1,congruent,0,245.161607850102,2905.88980196069
43,104,1,148,0.5,0.5,0,4,NaN,0.2,1,754,0,0,NaN,0,0,0.2,NaN,1.1940365269592,NaN,750,0,1,neutral,0,811.449996244394,1089.12610499506
43,104,1,150,0.5,0.5,0,3,NaN,0.2,4,590,0,1,NaN,0,0,0.4,NaN,0.134328041831847,NaN,750,0,1,neutral,0,255.05191755448,484.115141783344
43,104,2,151,0.5,-0.5,0.5,2,1,0.2,2,883,1,0,883,0,0,0.4,NaN,2.02758771343133,2.02758771343133,750,0,0,incongruent,0,465.876461255803,404.809323170171
43,104,2,152,0.5,0.5,0,3,NaN,0.2,4,607,0,1,NaN,0,0,0.2,NaN,0.244175872607244,NaN,750,0,1,neutral,0,313.745241070503,1018.72414597756
43,104,2,154,-0.5,0.5,0,4,NaN,0,4,712,1,1,712,1,0,0.2,0.6,0.92264776857293,0.92264776857293,750,0,0,neutral,0.1,870.776242725449,1727.33046898195
43,104,2,155,0.5,-0.5,0.5,2,4,0.2,2,887,1,0,887,0,0,0.2,NaN,2.05343426184907,2.05343426184907,750,0,0,incongruent,0,447.264042769439,3514.73744973922
43,104,2,156,-0.5,0.5,0.5,3,2,0.2,4,417,0,1,NaN,0,0,0.2,0.6,-0.983535177235426,NaN,750,0,1,incongruent,0,2158.22934184162,871.063847961411
43,104,2,159,-0.5,0.5,0.5,2,1,0.2,2,728,1,1,728,1,0,0.2,0.4,1.02603396224389,1.02603396224389,750,0,0,incongruent,0.1,411.519893375821,641.786290039553
43,104,2,161,0.5,-0.5,0.5,2,1,0.4,2,540,1,1,540,0,0,0.2,NaN,-0.188753813389908,-0.188753813389908,750,0,0,incongruent,0,662.437769234407,1032.48194521763
43,104,2,162,0.5,0.5,-0.5,3,3,0.4,4,506,0,1,NaN,0,0,0.2,NaN,-0.408449474940702,NaN,750,0,1,congruent,0,1629.60219422672,2904.76914184509
43,104,2,164,-0.5,0.5,-0.5,4,4,0.2,1,662,0,1,NaN,0,0,0.2,0.4,0.599565913351175,NaN,750,0,1,congruent,0,1014.3955226027,339.887511527274
43,104,2,165,-0.5,0.5,0,3,NaN,0.2,4,530,0,1,NaN,0,0,0,0.4,-0.253370184434259,NaN,750,0,1,neutral,0,759.069236818017,996.275545918985
43,104,2,167,-0.5,-0.5,0.5,3,2,0.2,2,927,0,0,NaN,1,0,0,0.2,2.31189974602648,NaN,750,1,0,incongruent,0.1,775.713813644325,1984.00977641934
43,104,2,169,0.5,0.5,-0.5,1,1,0.2,1,688,1,1,688,1,0,0.2,NaN,0.767568478066488,0.767568478066488,750,1,0,congruent,1,494.21006516324,705.444467518132
43,104,2,170,-0.5,-0.5,0.5,2,3,0.2,4,744,0,1,NaN,0,0,0.6,0.2,1.12942015591485,NaN,750,0,1,incongruent,0,1095.58841171072,514.351308137095
43,104,2,171,0.5,-0.5,-0.5,1,1,0.2,1,674,1,1,674,0,0,0.6,NaN,0.677105558604396,0.677105558604396,750,1,0,congruent,0,255.122449553355,1091.01370865002
43,104,2,173,0.5,-0.5,0,2,NaN,0.2,2,528,1,1,528,0,0,0.4,NaN,-0.26629345864313,-0.26629345864313,750,0,0,neutral,0,839.226420659672,959.093384117252
43,104,2,175,0.5,0.5,-0.5,2,2,0.2,2,565,1,1,565,1,0,0,NaN,-0.0272128857790306,-0.0272128857790306,750,1,0,congruent,1,498.850921331447,506.538118993248
43,104,2,176,-0.5,0.5,0,4,NaN,0.4,1,672,0,1,NaN,0,0,0.4,0.2,0.664182284395526,NaN,750,0,1,neutral,0,1045.86995909921,274.193084304086
43,104,2,177,0.5,-0.5,-0.5,2,2,0.4,4,611,0,1,NaN,0,0,0.4,NaN,0.270022421024984,NaN,750,0,1,congruent,0,1678.30611157322,2055.85062828402
43,104,2,178,-0.5,0.5,0,1,NaN,0.4,1,917,1,0,917,0,0,0.4,0.2,2.24728337498213,2.24728337498213,750,0,0,neutral,0,1735.61568469648,2436.70538514716
43,104,2,179,0.5,0.5,0.5,4,3,0.4,4,594,1,1,594,1,0,0.4,NaN,0.160174590249587,0.160174590249587,750,0,0,incongruent,1,746.655890231766,491.680523019532
43,104,2,180,-0.5,-0.5,0.5,3,2,0.4,4,908,0,0,NaN,0,0,0.8,0.2,2.18912864104221,NaN,750,0,1,incongruent,0,720.26461597687,759.537167551832
43,104,2,184,0.5,0.5,-0.5,2,2,0.2,2,492,1,1,492,1,0,0.8,NaN,-0.498912394402793,-0.498912394402793,750,1,0,congruent,1,1045.13582613437,1198.64963194627
43,104,2,186,0.5,-0.5,0,1,NaN,0.4,1,724,1,1,724,1,0,0.8,NaN,1.00018741382615,1.00018741382615,750,0,0,neutral,1,646.639457896465,918.065760576123
43,104,2,188,0.5,-0.5,-0.5,2,2,0.4,2,589,1,1,589,0,0,1,NaN,0.127866404727412,0.127866404727412,750,1,0,congruent,0,724.137471234527,1178.76632375744
43,104,2,189,-0.5,-0.5,-0.5,3,3,0.4,4,616,0,1,NaN,1,0,1,0.2,0.30233060654716,NaN,750,0,1,congruent,0.1,750.312162860603,266.863847455187
43,104,2,190,0.5,-0.5,0.5,2,1,0.4,1,603,0,1,NaN,0,0,0.8,NaN,0.218329324189503,NaN,750,1,0,incongruent,0,1535.90188128633,1695.03491634821
43,104,2,191,-0.5,-0.5,0,1,NaN,0.4,1,913,1,0,913,0,0,0.8,0.4,2.22143682656439,2.22143682656439,750,0,0,neutral,0,649.423642679567,2684.21699712456
43,104,2,193,0.5,0.5,0,1,NaN,0.4,1,518,1,1,518,1,0,0.2,NaN,-0.330909829687481,-0.330909829687481,750,0,0,neutral,1,781.796683287316,1427.14375264483
43,104,2,196,0.5,0.5,0,3,NaN,0.4,4,578,0,1,NaN,0,0,0.4,NaN,0.0567883965786258,NaN,750,0,1,neutral,0,482.769329318556,1352.89315475762
43,104,2,197,0.5,0.5,-0.5,1,1,0.2,1,622,1,1,622,1,0,0.4,NaN,0.34110042917377,0.34110042917377,750,1,0,congruent,1,1229.55928917209,398.245753343349
43,104,2,198,-0.5,-0.5,-0.5,2,2,0.4,2,620,1,1,620,0,0,0.8,0.4,0.3281771549649,0.3281771549649,750,1,0,congruent,0,438.036840327863,1826.58537854092
43,104,2,199,0.5,-0.5,0.5,3,4,0.4,4,758,0,0,NaN,1,0,0.4,NaN,1.21988307537694,NaN,750,1,0,incongruent,1,324.868913241112,1295.95734596787
43,104,2,202,0.5,0.5,0.5,3,4,0.2,4,345,0,1,NaN,0,0,0.8,NaN,-1.44877304875475,NaN,750,1,0,incongruent,0,874.539175030975,424.655418063555
43,104,2,205,0.5,-0.5,0.5,3,2,0,3,733,1,1,733,0,0,0,NaN,1.05834214776607,1.05834214776607,750,0,0,incongruent,0,195.929186915431,1627.13054686767
43,104,2,206,-0.5,-0.5,-0.5,1,1,0,1,647,1,1,647,0,0,0,0.4,0.502641356784648,0.502641356784648,750,1,0,congruent,0,904.010550991405,622.494065637442
43,104,2,207,-0.5,0.5,0.5,3,4,0,3,440,1,1,440,1,0,0,0,-0.834917523833419,-0.834917523833419,750,0,0,incongruent,0.1,819.828227625689,1100.83925867662
43,104,2,208,-0.5,0.5,0,1,NaN,0.2,1,576,1,1,576,1,0,0.2,0.2,0.0438651223697556,0.0438651223697556,750,0,0,neutral,0.1,1364.04788417255,3233.42593895603
43,104,2,210,-0.5,0.5,0.5,1,3,0.4,1,576,1,1,576,1,0,0.4,0.4,0.0438651223697556,0.0438651223697556,750,0,0,incongruent,0.1,204.460789838281,803.150864513871
43,104,2,211,0.5,-0.5,0.5,3,4,0.6,3,632,1,1,632,1,0,0.6,NaN,0.405716800218122,0.405716800218122,750,0,0,incongruent,1,277.502372804687,1348.36161464701
43,104,2,212,-0.5,-0.5,-0.5,2,2,0.6,2,676,1,1,676,0,0,1,0.4,0.690028832813266,0.690028832813266,750,1,0,congruent,0,880.533220513101,1254.43225316611
43,104,2,213,0.5,0.5,0.5,3,1,0.6,3,389,1,1,389,1,0,0.8,NaN,-1.16446101615961,-1.16446101615961,750,0,0,incongruent,1,646.126591767868,1066.43205851102
43,104,2,214,-0.5,-0.5,-0.5,4,4,0.8,4,386,1,1,386,1,0,1,0.2,-1.18384592747291,-1.18384592747291,750,1,0,congruent,0.1,790.289145226816,2432.58440605251
43,104,2,215,-0.5,0.5,-0.5,3,3,0.8,3,304,1,1,304,1,0,1.2,0.6,-1.71370017003659,-1.71370017003659,750,1,0,congruent,0.1,1021.24365237994,662.482221627889
43,104,2,216,0.5,0.5,0.5,4,1,1,1,738,0,1,NaN,0,0,1.2,NaN,1.09065033328824,NaN,750,1,0,incongruent,0,437.01974518175,631.356105412809
43,104,2,218,0.5,-0.5,0.5,4,2,0.8,4,797,1,0,797,1,0,1.2,NaN,1.47188692244991,1.47188692244991,750,0,0,incongruent,1,1804.00872388417,2177.3694636444
43,104,2,219,-0.5,-0.5,-0.5,1,1,0.8,3,381,0,1,NaN,1,0,1.2,0.2,-1.21615411299509,NaN,750,0,1,congruent,0.1,1502.92314347461,522.340374479238
43,104,2,220,0.5,0.5,-0.5,3,3,0.8,3,549,1,1,549,1,0,1.2,NaN,-0.130599079449992,-0.130599079449992,750,1,0,congruent,1,198.930712504574,2871.60398200843
43,104,2,221,0.5,0.5,-0.5,4,4,0.8,4,791,1,0,791,0,0,1.4,NaN,1.4331170998233,1.4331170998233,750,1,0,congruent,0,484.391577885574,268.345223642753
43,104,2,222,0.5,-0.5,0,2,NaN,0.6,2,550,1,1,550,1,0,1.4,NaN,-0.124137442345557,-0.124137442345557,750,0,0,neutral,1,2037.28525034919,977.443577628204
43,104,2,224,-0.5,0.5,-0.5,1,1,0.4,1,695,1,1,695,1,0,1,0.8,0.812799937797533,0.812799937797533,750,1,0,congruent,0.1,252.688094123449,1189.52149731726
43,104,2,226,-0.5,-0.5,-0.5,1,1,0.4,4,907,0,0,NaN,1,0,0.8,0.6,2.18266700393778,NaN,750,0,1,congruent,0.1,424.946149127538,714.150739944991
43,104,2,227,0.5,0.5,-0.5,4,4,0.4,4,641,1,1,641,1,0,1,NaN,0.463871534158038,0.463871534158038,750,1,0,congruent,1,581.960024905573,3285.40753602033
43,104,2,228,0.5,-0.5,-0.5,2,2,0.6,2,515,1,1,515,0,0,1,NaN,-0.350294741000786,-0.350294741000786,750,1,0,congruent,0,1134.0559767041,698.127453591155
43,104,2,229,-0.5,-0.5,0,4,NaN,0.6,4,422,1,1,422,0,0,1,0.8,-0.951226991713251,-0.951226991713251,750,0,0,neutral,0,956.723789225027,1116.97824917966
43,104,2,230,0.5,0.5,0.5,2,1,0.6,1,585,0,1,NaN,0,0,0.8,NaN,0.102019856309672,NaN,750,1,0,incongruent,0,1829.87798328325,99.9688774165303
43,104,2,232,0.5,0.5,0,1,NaN,0.4,1,580,1,1,580,1,0,0.4,NaN,0.069711670787496,0.069711670787496,750,0,0,neutral,1,586.379286645285,1264.83265236877
43,104,2,233,0.5,0.5,-0.5,4,4,0.6,4,532,1,1,532,1,0,0.4,NaN,-0.240446910225389,-0.240446910225389,750,1,0,congruent,1,604.909681414815,994.078831763501
43,104,2,235,0.5,-0.5,0,1,NaN,0.6,4,812,0,0,NaN,0,0,0.8,NaN,1.56881147901644,NaN,750,0,1,neutral,0,1831.73645141847,4150.73878211936
43,104,2,236,-0.5,-0.5,0.5,3,4,0.6,3,701,1,1,701,0,0,0.8,0.6,0.851569760424144,0.851569760424144,750,0,0,incongruent,0,432.663403524105,1420.35814739588
43,104,2,237,0.5,-0.5,-0.5,1,1,0.6,1,478,1,1,478,1,0,0.8,NaN,-0.589375313864885,-0.589375313864885,750,1,0,congruent,1,2591.42580922219,2608.04431569478
43,104,2,238,-0.5,0.5,0,4,NaN,0.6,4,575,1,1,575,1,0,0.8,0.8,0.0374034852653205,0.0374034852653205,750,0,0,neutral,0.1,969.29269243305,604.047370843161
43,104,2,239,0.5,0.5,0.5,2,3,0.6,2,360,1,1,360,1,0,0.6,NaN,-1.35184849218823,-1.35184849218823,750,0,0,incongruent,1,813.578369915471,1096.34589324097
43,104,2,240,0.5,-0.5,-0.5,1,1,0.8,4,792,0,0,NaN,1,0,1,NaN,1.43957873692774,NaN,750,0,1,congruent,1,385.795473767868,580.435998845186
43,104,2,241,0.5,-0.5,-0.5,4,4,0.8,4,618,1,1,618,1,0,1.4,NaN,0.31525388075603,0.31525388075603,750,1,0,congruent,1,1747.56266762098,567.536716391225
43,104,2,242,-0.5,-0.5,-0.5,1,1,0.8,1,462,1,1,462,0,0,1.8,0.4,-0.692761507535847,-0.692761507535847,750,1,0,congruent,0,913.552641521342,2489.44212433767
43,104,2,243,-0.5,-0.5,0,4,NaN,0.8,4,434,1,1,434,0,0,1.4,0.2,-0.87368734646003,-0.87368734646003,750,0,0,neutral,0,717.819538087512,243.559657951168
43,104,2,244,-0.5,0.5,0.5,2,4,0.8,2,828,1,0,828,0,0,1.2,0.8,1.6721976726874,1.6721976726874,750,0,0,incongruent,0,1753.81561921225,1433.46405093521
43,104,2,245,0.5,-0.5,-0.5,1,1,0.6,1,530,1,1,530,1,0,0.8,NaN,-0.253370184434259,-0.253370184434259,750,1,0,congruent,1,574.887089198143,550.915967948448
43,104,2,246,0.5,-0.5,0.5,3,2,0.6,3,590,1,1,590,1,0,0.8,NaN,0.134328041831847,0.134328041831847,750,0,0,incongruent,1,606.623195375571,892.366315738148
43,104,2,247,0.5,0.5,0.5,2,1,0.6,2,791,1,0,791,0,0,0.8,NaN,1.4331170998233,1.4331170998233,750,0,0,incongruent,0,1391.40766678874,639.239668220844
43,104,2,248,-0.5,-0.5,0,1,NaN,0.4,1,703,1,1,703,1,0,0.8,0,0.864493034633014,0.864493034633014,750,0,0,neutral,0.1,800.663964660104,611.625981425488
43,104,2,249,0.5,-0.5,0.5,2,1,0.4,2,563,1,1,563,1,0,1,NaN,-0.0401361599879008,-0.0401361599879008,750,0,0,incongruent,1,560.313762487231,521.062936902279
43,104,2,250,-0.5,-0.5,-0.5,3,3,0.4,2,533,0,1,NaN,1,0,1.4,0.2,-0.233985273120954,NaN,750,0,1,congruent,0.1,811.622204194832,1869.68894071174
43,104,2,251,0.5,0.5,-0.5,1,1,0.4,1,553,1,1,553,1,0,1.2,NaN,-0.104752531032252,-0.104752531032252,750,1,0,congruent,1,1072.96275745524,1632.85649470699
43,104,2,253,0.5,-0.5,0.5,1,4,0.6,1,475,1,1,475,0,0,1.2,NaN,-0.60876022517819,-0.60876022517819,750,0,0,incongruent,0,1130.36400363679,1561.16781343349
43,104,2,254,0.5,-0.5,-0.5,2,2,0.6,3,690,0,1,NaN,1,0,1,NaN,0.780491752275358,NaN,750,0,1,congruent,1,1616.35922366071,2162.29961410391
43,104,2,255,0.5,0.5,-0.5,3,3,0.6,3,586,1,1,586,1,0,1,NaN,0.108481493414107,0.108481493414107,750,1,0,congruent,1,545.454719084154,391.162148407234
43,104,2,256,-0.5,0.5,0,2,NaN,0.6,2,757,1,0,757,0,0,1.2,0.6,1.21342143827251,1.21342143827251,750,0,0,neutral,0,471.977157923707,965.550509022895
43,104,2,257,-0.5,-0.5,-0.5,3,3,0.4,3,543,1,1,543,1,0,0.8,0.4,-0.169368902076603,-0.169368902076603,750,1,0,congruent,0.1,1933.90559773505,1438.28929648581
43,104,2,258,-0.5,0.5,0,2,NaN,0.4,2,558,1,1,558,1,0,1,0.4,-0.0724443455100764,-0.0724443455100764,750,0,0,neutral,0.1,568.336561298476,1822.55622560656
43,104,2,259,-0.5,-0.5,0.5,1,2,0.6,1,793,1,0,793,1,0,1.2,0.6,1.44604037403217,1.44604037403217,750,0,0,incongruent,0.1,436.128899682449,724.774075496125
43,104,2,260,-0.5,0.5,-0.5,4,4,0.6,4,556,1,1,556,1,0,1,0.4,-0.0853676197189466,-0.0853676197189466,750,1,0,congruent,0.1,1576.06929485786,958.4032422748
43,104,2,261,0.5,0.5,-0.5,2,2,0.8,2,412,1,1,412,1,0,0.8,NaN,-1.0158433627576,-1.0158433627576,750,1,0,congruent,1,1646.22725765601,1439.76614824383
43,104,2,262,0.5,0.5,-0.5,3,3,0.8,3,493,1,1,493,1,0,1.2,NaN,-0.492450757298358,-0.492450757298358,750,1,0,congruent,1,689.897862901443,1669.60118976777
43,104,2,263,-0.5,0.5,0,1,NaN,0.8,1,566,1,1,566,1,0,1.4,0.6,-0.0207512486745955,-0.0207512486745955,750,0,0,neutral,0.1,1226.45895638049,2470.74031801296
43,104,2,265,-0.5,0.5,0,1,NaN,1,1,628,1,1,628,1,0,1.6,0.6,0.379870251800381,0.379870251800381,750,0,0,neutral,0.1,617.279399531339,2038.37037721454
43,104,2,266,0.5,0.5,0.5,3,2,1,3,355,1,1,355,1,0,1.6,NaN,-1.3841566777104,-1.3841566777104,750,0,0,incongruent,1,3447.02189878121,3492.84622609014
43,104,2,267,0.5,0.5,-0.5,1,1,1,1,468,1,1,468,1,0,1.6,NaN,-0.653991684909236,-0.653991684909236,750,1,0,congruent,1,1292.89761936853,908.622080546211
43,104,2,268,0.5,0.5,0,2,NaN,1,2,493,1,1,493,1,0,1.6,NaN,-0.492450757298358,-0.492450757298358,750,0,0,neutral,1,730.953085863905,865.178436754289
43,104,2,269,0.5,0.5,-0.5,4,4,1,4,668,1,1,668,1,0,1.8,NaN,0.638335735977785,0.638335735977785,750,1,0,congruent,1,872.87848752786,513.836247282804
43,104,2,270,-0.5,0.5,0,2,NaN,1,2,367,1,1,367,1,0,1.8,0.8,-1.30661703245718,-1.30661703245718,750,0,0,neutral,0.1,1437.92229366755,579.056074348232
43,104,2,271,-0.5,0.5,0.5,1,4,1,4,511,0,1,NaN,0,0,1.8,1,-0.376141289418526,NaN,750,1,0,incongruent,0,646.996961649733,618.701836668672
43,104,2,273,-0.5,0.5,-0.5,1,1,0.8,1,506,1,1,506,1,0,1,0.8,-0.408449474940702,-0.408449474940702,750,1,0,congruent,0.1,1039.42147916361,2199.10420032529
43,104,2,274,-0.5,-0.5,0,4,NaN,0.8,4,369,1,1,369,1,0,0.8,0.8,-1.29369375824831,-1.29369375824831,750,0,0,neutral,0.1,315.939955334669,536.003765360688
43,104,2,275,-0.5,-0.5,-0.5,2,2,0.8,2,509,1,1,509,0,0,0.6,0.8,-0.389064563627397,-0.389064563627397,750,1,0,congruent,0,801.740906490262,990.323352317877
43,104,2,276,-0.5,-0.5,0.5,3,1,0.8,3,299,1,1,299,0,0,0.4,0.6,-1.74600835555877,-1.74600835555877,750,0,0,incongruent,0,376.882707296644,1437.56434855014
43,104,2,277,0.5,-0.5,-0.5,2,2,0.8,2,488,1,1,488,0,0,0.4,NaN,-0.524758942820534,-0.524758942820534,750,1,0,congruent,0,342.695225714852,397.115481553488
43,104,2,278,-0.5,0.5,0.5,3,1,0.8,3,742,1,1,742,1,0,0.4,0.8,1.11649688170598,1.11649688170598,750,0,0,incongruent,0.1,413.522833419854,1551.47109511993
43,104,2,279,-0.5,0.5,-0.5,4,4,0.8,4,524,1,1,524,1,0,0.4,0.8,-0.29214000706087,-0.29214000706087,750,1,0,congruent,0.1,3437.2885760974,859.081149212438
43,104,2,280,0.5,0.5,-0.5,3,3,0.8,3,610,1,1,610,1,0,0.4,NaN,0.263560783920549,0.263560783920549,750,1,0,congruent,1,1213.64436007652,940.279662446324
43,104,2,281,0.5,0.5,0.5,4,1,0.8,1,628,0,1,NaN,0,0,0.8,NaN,0.379870251800381,NaN,750,1,0,incongruent,0,1485.82757119211,772.307847139001
43,104,2,283,0.5,0.5,0.5,1,3,0.8,1,695,1,1,695,1,0,1,NaN,0.812799937797533,0.812799937797533,750,0,0,incongruent,1,365.911633906544,287.948773986194
43,104,2,284,-0.5,-0.5,0,2,NaN,0.8,2,1000,1,0,1000,0,0,1.2,0.4,2.78359925465024,2.78359925465024,750,0,0,neutral,0,2371.55057026893,795.206206817609
43,104,2,285,-0.5,-0.5,0.5,3,4,0.8,3,291,1,1,291,1,0,1,0.4,-1.79770145239425,-1.79770145239425,750,0,0,incongruent,0.1,895.195449503611,246.640399375672
43,104,2,286,-0.5,0.5,0,1,NaN,0.8,1,657,1,1,657,1,0,0.8,0.8,0.567257727828999,0.567257727828999,750,0,0,neutral,0.1,933.219324644343,2547.5362054735
43,104,2,287,-0.5,0.5,-0.5,4,4,0.8,4,617,1,1,617,1,0,1,0.8,0.308792243651595,0.308792243651595,750,1,0,congruent,0.1,799.106991489566,1871.63113802636
43,104,2,288,0.5,0.5,-0.5,2,2,0.8,2,399,1,1,399,1,0,1,NaN,-1.09984464511526,-1.09984464511526,750,1,0,congruent,1,2149.70414379113,1024.40226496691
43,104,2,289,0.5,-0.5,0,1,NaN,0.8,1,767,1,0,767,1,0,1,NaN,1.27803780931686,1.27803780931686,750,0,0,neutral,1,789.810730366143,6193.18658319466
43,104,2,290,0.5,-0.5,0.5,3,4,0.8,3,254,1,1,254,1,0,1.4,NaN,-2.03678202525835,-2.03678202525835,750,0,0,incongruent,1,909.231832944983,325.83723554908
43,104,2,291,0.5,-0.5,0.5,1,2,0.8,4,614,0,1,NaN,1,0,1.6,NaN,0.28940733233829,NaN,750,0,1,incongruent,1,702.621876539157,1637.36380541238
43,104,2,292,-0.5,0.5,-0.5,3,3,0.8,3,471,1,1,471,1,0,1.8,1,-0.634606773595931,-0.634606773595931,750,1,0,congruent,0.1,1969.27594402412,7211.97805583569
43,104,2,293,0.5,0.5,-0.5,4,4,1,1,463,0,1,NaN,0,0,1.8,NaN,-0.686299870431411,NaN,750,0,1,congruent,0,1028.58028835565,1185.09556371987
43,104,2,294,-0.5,-0.5,-0.5,1,1,0.8,4,371,0,1,NaN,1,0,1.4,0.4,-1.28077048403944,NaN,750,0,1,congruent,0.1,1543.40035238185,680.521177133852
43,104,2,295,0.5,0.5,0.5,2,4,0.8,2,678,1,1,678,1,0,1.2,NaN,0.702952107022137,0.702952107022137,750,0,0,incongruent,1,1367.75868509946,667.969927368268
43,104,2,296,0.5,0.5,0,3,NaN,0.8,3,369,1,1,369,1,0,1.2,NaN,-1.29369375824831,-1.29369375824831,750,0,0,neutral,1,520.671991769656,541.126101053584
43,104,2,297,0.5,0.5,-0.5,1,1,0.8,1,625,1,1,625,1,0,1.2,NaN,0.360485340487076,0.360485340487076,750,1,0,congruent,1,1051.89583971929,1071.0458003061
43,104,2,298,-0.5,-0.5,0,2,NaN,0.8,2,651,1,1,651,1,0,1.4,0.6,0.528487905202389,0.528487905202389,750,0,0,neutral,0.1,554.942920826392,1138.76394163788
43,104,2,300,0.5,0.5,-0.5,3,3,0.8,3,340,1,1,340,1,0,1.6,NaN,-1.48108123427693,-1.48108123427693,750,1,0,congruent,1,414.268471801801,289.672109961565
43,104,3,301,0.5,-0.5,0,1,NaN,0.8,1,580,1,1,580,0,0,1.6,NaN,0.069711670787496,0.069711670787496,750,0,0,neutral,0,881.392295219223,986.48545893063
43,104,3,302,-0.5,-0.5,-0.5,3,3,0.8,3,348,1,1,348,1,0,1.2,0.8,-1.42938813744145,-1.42938813744145,750,1,0,congruent,0.1,693.650735623596,1088.7833684002
43,104,3,303,0.5,-0.5,-0.5,1,1,0.8,1,633,1,1,633,1,0,1,NaN,0.412178437322557,0.412178437322557,750,1,0,congruent,1,392.225549433698,909.331772135357
43,104,3,304,0.5,0.5,-0.5,2,2,0.8,3,672,0,1,NaN,0,0,1.2,NaN,0.664182284395526,NaN,750,0,1,congruent,0,467.228486460718,2997.59060496489
43,104,3,305,0.5,0.5,-0.5,1,1,0.8,4,475,0,1,NaN,0,0,1,NaN,-0.60876022517819,NaN,750,0,1,congruent,0,369.414162457971,900.79810533981
43,104,3,306,0.5,-0.5,0.5,3,2,0.6,3,557,1,1,557,1,0,0.6,NaN,-0.0789059826145115,-0.0789059826145115,750,0,0,incongruent,1,1049.85596080943,537.682860248159
43,104,3,307,-0.5,-0.5,0,2,NaN,0.6,4,713,0,1,NaN,1,0,1,1,0.929109405677365,NaN,750,0,1,neutral,0.1,1582.35171207743,2768.14643212658
43,104,3,308,-0.5,-0.5,0.5,4,2,0.6,3,600,0,1,NaN,0,0,1,1,0.198944412876198,NaN,750,0,1,incongruent,0,490.541041575282,2563.98864205511
43,104,3,309,0.5,-0.5,0,3,NaN,0.6,3,323,1,1,323,0,0,0.6,NaN,-1.59092906505233,-1.59092906505233,750,0,0,neutral,0,2140.05351918939,1287.01649206959
43,104,3,310,-0.5,0.5,0.5,1,4,0.6,1,385,1,1,385,1,0,0.6,1,-1.19030756457735,-1.19030756457735,750,0,0,incongruent,0.1,4231.8897755219,1970.60551768914
43,104,3,311,0.5,0.5,-0.5,2,2,0.6,2,517,1,1,517,1,0,0.8,NaN,-0.337371466791916,-0.337371466791916,750,1,0,congruent,1,1473.19484730998,754.763382583904
43,104,3,312,0.5,-0.5,0.5,3,4,0.6,3,309,1,1,309,1,0,0.8,NaN,-1.68139198451442,-1.68139198451442,750,0,0,incongruent,1,991.504060346598,408.849287754694
43,104,3,313,-0.5,-0.5,-0.5,2,2,0.6,2,716,1,1,716,0,0,1,0.8,0.948494316990671,0.948494316990671,750,1,0,congruent,0,1025.25043217988,1034.84099750154
43,104,3,314,0.5,-0.5,0,1,NaN,0.6,1,619,1,1,619,0,0,1,NaN,0.321715517860465,0.321715517860465,750,0,0,neutral,0,1060.15406809559,1414.18604102459
43,104,3,315,0.5,0.5,0.5,3,4,0.6,3,930,1,0,930,0,0,1,NaN,2.33128465733978,2.33128465733978,750,0,0,incongruent,0,429.353988615732,1087.27767833329
43,104,3,316,0.5,-0.5,0,1,NaN,0.4,1,562,1,1,562,0,0,0.8,NaN,-0.0465977970923359,-0.0465977970923359,750,0,0,neutral,0,794.589592213735,1325.4621673933
43,104,3,318,-0.5,-0.5,-0.5,4,4,0.4,4,687,1,1,687,1,0,0,0.6,0.761106840962052,0.761106840962052,750,1,0,congruent,0.1,802.280170094976,679.229063873446
43,104,3,320,0.5,0.5,0.5,4,2,0.4,4,714,1,1,714,1,0,0.2,NaN,0.9355710427818,0.9355710427818,750,0,0,incongruent,1,1339.23192657649,365.697798488588
43,104,3,321,0.5,-0.5,0.5,2,3,0.6,3,501,0,1,NaN,1,0,0.6,NaN,-0.440757660462877,NaN,750,1,0,incongruent,1,3577.8132149273,579.100459110585
43,104,3,323,-0.5,0.5,-0.5,4,4,0.6,4,720,1,1,720,1,0,1,1,0.974340865408411,0.974340865408411,750,1,0,congruent,0.1,1593.43911932445,540.304524873755
43,104,3,324,0.5,-0.5,0.5,1,3,0.8,3,504,0,1,NaN,1,0,1,NaN,-0.421372749149572,NaN,750,1,0,incongruent,1,2348.36139813035,1526.93412713793
43,104,3,325,-0.5,0.5,0.5,3,4,0.8,3,808,1,0,808,0,0,1.4,1,1.5429649305987,1.5429649305987,750,0,0,incongruent,0,1643.5899205792,324.017264003888
43,104,3,326,-0.5,-0.5,0,2,NaN,0.6,2,578,1,1,578,1,0,1,0.4,0.0567883965786258,0.0567883965786258,750,0,0,neutral,0.1,1184.36023664326,1328.46368080416
43,104,3,327,-0.5,-0.5,-0.5,1,1,0.6,1,633,1,1,633,1,0,0.8,0.4,0.412178437322557,0.412178437322557,750,1,0,congruent,0.1,980.019721912745,1769.34082921387
43,104,3,328,-0.5,-0.5,-0.5,2,2,0.6,2,466,1,1,466,1,0,1,0.6,-0.666914959118106,-0.666914959118106,750,1,0,congruent,0.1,650.736688715381,625.176935988484
43,104,3,329,0.5,0.5,0.5,3,1,0.6,3,283,1,1,283,1,0,1,NaN,-1.84939454922973,-1.84939454922973,750,0,0,incongruent,1,2310.58091982273,996.712781642062
43,104,3,330,0.5,0.5,0,4,NaN,0.6,4,644,1,1,644,1,0,1,NaN,0.483256445471343,0.483256445471343,750,0,0,neutral,1,1952.6504578739,4156.27738351416
43,104,3,331,-0.5,-0.5,0.5,3,1,0.8,3,433,1,1,433,0,0,1.4,0.8,-0.880148983564465,-0.880148983564465,750,0,0,incongruent,0,6165.90903631246,812.652113024003
43,104,3,332,-0.5,-0.5,0,2,NaN,0.8,2,561,1,1,561,1,0,1.2,0.6,-0.053059434196771,-0.053059434196771,750,0,0,neutral,0.1,391.475404472713,1444.6097354055
43,104,3,333,0.5,0.5,-0.5,3,3,0.8,3,485,1,1,485,1,0,1.2,NaN,-0.544143854133839,-0.544143854133839,750,1,0,congruent,1,568.262855608209,692.182668753588
43,104,3,334,-0.5,-0.5,0.5,4,2,0.8,4,605,1,1,605,1,0,1.4,0.8,0.231252598398374,0.231252598398374,750,0,0,incongruent,0.1,1773.25737447772,1199.91042779753
43,104,3,335,-0.5,0.5,0.5,2,1,0.8,2,363,1,1,363,1,0,1.2,0.8,-1.33246358087492,-1.33246358087492,750,0,0,incongruent,0.1,1073.32495926677,480.653051597532
43,104,3,336,0.5,-0.5,0.5,4,3,0.8,1,869,0,0,NaN,1,0,1,NaN,1.93712479396924,NaN,750,0,1,incongruent,1,983.826384124352,3635.39166266192
43,104,3,337,-0.5,0.5,0,2,NaN,0.8,2,551,1,1,551,1,0,1.4,0.8,-0.117675805241122,-0.117675805241122,750,0,0,neutral,0.1,1110.28522527582,1049.18337457305
43,104,3,338,0.5,-0.5,0.5,1,2,1,3,601,0,1,NaN,1,0,1.4,NaN,0.205406049980633,NaN,750,0,1,incongruent,1,2342.94074708497,1963.49451321002
43,104,3,339,0.5,-0.5,-0.5,3,3,1,3,457,1,1,457,1,0,1.4,NaN,-0.725069693058022,-0.725069693058022,750,1,0,congruent,1,1996.91315119716,652.753721441655
43,104,3,340,0.5,0.5,0,1,NaN,1,1,613,1,1,613,1,0,1.6,NaN,0.282945695233855,0.282945695233855,750,0,0,neutral,1,1053.97882575679,1440.28594251572
43,104,3,341,0.5,0.5,0.5,2,1,1,2,336,1,1,336,1,0,1.8,NaN,-1.50692778269467,-1.50692778269467,750,0,0,incongruent,1,4114.40469216059,1096.2851683079
43,104,3,342,0.5,-0.5,0,3,NaN,1,3,365,1,1,365,1,0,1.8,NaN,-1.31954030666605,-1.31954030666605,750,0,0,neutral,1,448.95437627656,921.483891790902
43,104,3,343,-0.5,0.5,-0.5,1,1,1,1,549,1,1,549,1,0,2,0.8,-0.130599079449992,-0.130599079449992,750,1,0,congruent,0.1,174.870284992589,1095.76046464609
43,104,3,344,0.5,-0.5,0,4,NaN,1,4,430,1,1,430,1,0,1.8,NaN,-0.89953389487777,-0.89953389487777,750,0,0,neutral,1,755.55274543918,1502.56271643895
43,104,3,345,-0.5,0.5,0.5,3,4,1,3,691,1,1,691,1,0,1.8,0.8,0.786953389379793,0.786953389379793,750,0,0,incongruent,0.1,886.302913018882,1781.58205226011
43,104,3,346,-0.5,-0.5,0.5,4,1,1,1,462,0,1,NaN,1,0,1.6,0.8,-0.692761507535847,NaN,750,1,0,incongruent,0.1,2096.7018262278,550.48342465949
43,104,3,347,0.5,-0.5,0.5,1,3,1,3,655,0,1,NaN,1,0,1.4,NaN,0.554334453620129,NaN,750,1,0,incongruent,1,1768.80482669109,1877.89765893254
43,104,3,348,-0.5,-0.5,0.5,3,1,1,3,412,1,1,412,1,0,1.4,0.8,-1.0158433627576,-1.0158433627576,750,0,0,incongruent,0.1,1103.06130541874,291.082045246041
43,104,3,349,0.5,-0.5,-0.5,4,4,1,4,568,1,1,568,1,0,1.4,NaN,-0.00782797446572529,-0.00782797446572529,750,1,0,congruent,1,470.266939498206,1935.00037600237
43,104,3,351,0.5,-0.5,-0.5,2,2,1,2,519,1,1,519,1,0,1.6,NaN,-0.324448192583046,-0.324448192583046,750,1,0,congruent,1,961.9248236579,902.38363764885
43,104,3,352,-0.5,0.5,0.5,1,3,1,4,609,0,1,NaN,0,0,1.8,0.8,0.257099146816114,NaN,750,0,1,incongruent,0,1510.82398630876,5026.66899922166
43,104,3,353,-0.5,-0.5,0.5,3,4,0.8,3,325,1,1,325,1,0,1.4,0.8,-1.57800579084346,-1.57800579084346,750,0,0,incongruent,0.1,2050.04546487426,375.77104276989
43,104,3,354,0.5,-0.5,0,1,NaN,0.8,1,391,1,1,391,1,0,1.4,NaN,-1.15153774195074,-1.15153774195074,750,0,0,neutral,1,1184.67056965941,347.269574139215
43,104,3,356,0.5,0.5,-0.5,1,1,0.8,4,521,0,1,NaN,0,0,1.4,NaN,-0.311524918374175,NaN,750,0,1,congruent,0,846.719479568709,1511.07737482
43,104,3,359,-0.5,0.5,0,4,NaN,0.6,4,567,1,1,567,1,0,1.6,0.8,-0.0142896115701604,-0.0142896115701604,750,0,0,neutral,0.1,1068.67974049963,1208.02127990565
43,104,3,360,0.5,0.5,-0.5,2,2,0.6,2,468,1,1,468,1,0,1.4,NaN,-0.653991684909236,-0.653991684909236,750,1,0,congruent,1,608.019003177594,336.931138911422
43,104,3,361,-0.5,0.5,0.5,3,4,0.6,3,490,1,1,490,1,0,1.4,0.8,-0.511835668611664,-0.511835668611664,750,0,0,incongruent,0.1,1457.48536468483,1009.8068057015
43,104,3,362,0.5,-0.5,0.5,1,3,0.8,3,752,0,0,NaN,1,0,1.6,NaN,1.18111325275033,NaN,750,1,0,incongruent,1,1095.89573748248,2193.97765977609
43,104,3,363,-0.5,-0.5,0.5,2,1,0.8,2,843,1,0,843,1,0,1.6,1,1.76912222925393,1.76912222925393,750,0,0,incongruent,0.1,308.626619294484,1096.4461018548
43,104,3,364,0.5,-0.5,-0.5,3,3,0.8,4,539,0,1,NaN,1,0,1.4,NaN,-0.195215450494343,NaN,750,0,1,congruent,1,2660.16766516418,886.692256759533
43,104,3,365,-0.5,-0.5,0.5,1,2,0.8,3,675,0,1,NaN,1,0,1.6,1,0.683567195708831,NaN,750,0,1,incongruent,0.1,404.37673630036,732.839976970996
43,104,3,366,0.5,0.5,-0.5,4,4,0.8,4,538,1,1,538,1,0,1.4,NaN,-0.201677087598779,-0.201677087598779,750,1,0,congruent,1,1154.56787137202,966.128903496735
43,104,3,367,0.5,0.5,0,2,NaN,1,2,559,1,1,559,1,0,1.6,NaN,-0.0659827084056413,-0.0659827084056413,750,0,0,neutral,1,1457.20217247328,297.680544519316
43,104,3,368,-0.5,0.5,-0.5,1,1,1,1,589,1,1,589,1,0,1.6,0.8,0.127866404727412,0.127866404727412,750,1,0,congruent,0.1,735.02170915963,2797.37754661228
43,104,3,369,0.5,0.5,0.5,2,4,1,2,450,1,1,450,1,0,1.6,NaN,-0.770301152789068,-0.770301152789068,750,0,0,incongruent,1,764.103461403751,360.867125314
43,104,3,370,0.5,-0.5,0,4,NaN,1,4,614,1,1,614,1,0,1.6,NaN,0.28940733233829,0.28940733233829,750,0,0,neutral,1,1581.84187090678,1271.68007325542
43,104,3,372,0.5,0.5,0,3,NaN,1,3,317,1,1,317,1,0,1.6,NaN,-1.62969888767894,-1.62969888767894,750,0,0,neutral,1,999.419870698789,1267.64410400673
43,104,3,373,-0.5,-0.5,-0.5,4,4,1,4,651,1,1,651,1,0,1.6,1,0.528487905202389,0.528487905202389,750,1,0,congruent,0.1,241.010297425203,473.416363812606
43,104,3,375,-0.5,-0.5,0.5,2,4,0.8,2,834,1,0,834,1,0,1.2,1,1.71096749531401,1.71096749531401,750,0,0,incongruent,0.1,420.834155071666,223.243458659562
43,104,3,376,-0.5,0.5,0.5,4,2,0.8,1,625,0,1,NaN,0,0,1,0.8,0.360485340487076,NaN,750,0,1,incongruent,0,685.368626930708,352.185414507734
43,104,3,377,0.5,0.5,0.5,3,4,0.6,4,339,0,1,NaN,0,0,0.8,NaN,-1.48754287138136,NaN,750,1,0,incongruent,0,122.444776859817,1495.19730847765
43,104,3,378,0.5,-0.5,-0.5,1,1,0.4,1,599,1,1,599,1,0,0.4,NaN,0.192482775771763,0.192482775771763,750,1,0,congruent,1,770.453597651983,1217.99192073875
43,104,3,379,0.5,0.5,-0.5,3,3,0.4,4,454,0,1,NaN,0,0,0.6,NaN,-0.744454604371327,NaN,750,0,1,congruent,0,220.390164319311,869.70125982402
43,104,3,381,-0.5,0.5,0,1,NaN,0,1,400,1,1,400,1,0,0.4,0.6,-1.09338300801082,-1.09338300801082,750,0,0,neutral,0.1,707.621257362453,32.2639903660536
43,104,3,382,0.5,0.5,-0.5,2,2,0.2,2,829,1,0,829,0,0,0.6,NaN,1.67865930979184,1.67865930979184,750,1,0,congruent,0,474.270636954055,1699.62621111537
43,104,3,383,0.5,0.5,0.5,1,4,0.2,1,618,1,1,618,1,0,0.6,NaN,0.31525388075603,0.31525388075603,750,0,0,incongruent,1,1001.88523567849,872.632167892093
43,104,3,384,0.5,0.5,0,3,NaN,0.4,2,788,0,0,NaN,0,0,0.6,NaN,1.41373218851,NaN,750,0,1,neutral,0,594.019540091978,4353.54885789906
43,104,3,386,0.5,0.5,0.5,2,3,0.4,2,406,1,1,406,1,0,0.6,NaN,-1.05461318538421,-1.05461318538421,750,0,0,incongruent,1,671.45421565944,649.483864895037
43,104,3,387,-0.5,0.5,0,1,NaN,0.6,1,481,1,1,481,1,0,0.8,0.8,-0.56999040255158,-0.56999040255158,750,0,0,neutral,0.1,466.304457261914,851.941684395923
43,104,3,389,-0.5,-0.5,0,2,NaN,0.6,2,520,1,1,520,1,0,0.6,0.8,-0.31798655547861,-0.31798655547861,750,0,0,neutral,0.1,657.051768099772,1627.68098439284
43,104,3,390,-0.5,0.5,0.5,1,2,0.6,1,711,1,1,711,1,0,0.8,0.6,0.916186131468495,0.916186131468495,750,0,0,incongruent,0.1,575.741997028975,979.260196084685
43,104,3,392,0.5,-0.5,0,1,NaN,0.6,1,550,1,1,550,1,0,0.6,NaN,-0.124137442345557,-0.124137442345557,750,0,0,neutral,1,387.81434179303,601.256684643913
43,104,3,393,-0.5,-0.5,-0.5,3,3,0.6,4,530,0,1,NaN,0,0,0.8,0.6,-0.253370184434259,NaN,750,0,1,congruent,0,1717.89842296319,779.086299132003
43,104,3,394,0.5,0.5,0,1,NaN,0.6,2,774,0,0,NaN,0,0,0.8,NaN,1.32326926904791,NaN,750,0,1,neutral,0,370.857366363137,174.472502890989
43,104,3,395,-0.5,-0.5,-0.5,3,3,0.6,4,629,0,1,NaN,1,0,0.6,0.4,0.386331888904816,NaN,750,0,1,congruent,0.1,2478.59240133303,766.700527036287
43,104,3,396,0.5,0.5,0,2,NaN,0.6,2,529,1,1,529,1,0,0.6,NaN,-0.259831821538694,-0.259831821538694,750,0,0,neutral,1,1702.08501343248,1082.78532741805
43,104,3,397,0.5,0.5,0.5,1,4,0.6,1,762,1,0,762,0,0,1,NaN,1.24572962379469,1.24572962379469,750,0,0,incongruent,0,297.207934351729,2010.90938435782
43,104,3,399,0.5,-0.5,0.5,2,3,0.4,2,550,1,1,550,0,0,0.8,NaN,-0.124137442345557,-0.124137442345557,750,0,0,incongruent,0,1683.22692143878,1935.41648105147
43,104,3,401,0.5,0.5,-0.5,1,1,0.4,1,555,1,1,555,1,0,0.6,NaN,-0.0918292568233817,-0.0918292568233817,750,1,0,congruent,1,2379.74282160827,2110.31731452607
43,104,3,403,0.5,0.5,-0.5,2,2,0.4,2,513,1,1,513,1,0,0.6,NaN,-0.363218015209656,-0.363218015209656,750,1,0,congruent,1,2170.61120578122,1202.39887418843
43,104,3,405,-0.5,-0.5,0.5,2,4,0.4,1,483,0,1,NaN,0,0,0.8,0.6,-0.557067128342709,NaN,750,0,1,incongruent,0,477.820195128963,1344.48501703673
43,104,3,407,0.5,0.5,0.5,1,3,0.4,1,681,1,1,681,1,0,0.4,NaN,0.722337018335442,0.722337018335442,750,0,0,incongruent,1,1328.7993693382,721.543514099394
43,104,3,408,-0.5,-0.5,-0.5,2,2,0.4,2,540,1,1,540,0,0,0.8,0.4,-0.188753813389908,-0.188753813389908,750,1,0,congruent,0,1099.62986502497,1671.32016403007
43,104,3,409,0.5,0.5,0,1,NaN,0.4,1,538,1,1,538,1,0,0.4,NaN,-0.201677087598779,-0.201677087598779,750,0,0,neutral,1,1921.49624672137,971.283609139239
43,104,3,411,-0.5,0.5,0.5,2,1,0.6,2,705,1,1,705,1,0,1,0.2,0.877416308841884,0.877416308841884,750,0,0,incongruent,0.1,271.646496279601,1146.36885795911
43,104,3,412,0.5,0.5,0.5,3,2,0.6,4,316,0,1,NaN,0,0,1.2,NaN,-1.63616052478337,NaN,750,0,1,incongruent,0,1195.14512551172,1478.86374234497
43,104,3,413,-0.5,-0.5,0.5,2,4,0.6,2,619,1,1,619,0,0,0.8,0.6,0.321715517860465,0.321715517860465,750,0,0,incongruent,0,1513.66328762455,657.833652536146
43,104,3,414,-0.5,0.5,0.5,3,1,0.6,4,689,0,1,NaN,0,0,0.8,0.2,0.774030115170923,NaN,750,0,1,incongruent,0,1524.49396899985,775.378286045195
43,104,3,416,0.5,-0.5,0,2,NaN,0.6,2,449,1,1,449,0,0,0.6,NaN,-0.776762789893503,-0.776762789893503,750,0,0,neutral,0,513.529153852899,301.392802918221
43,104,3,417,-0.5,-0.5,-0.5,1,1,0.6,1,478,1,1,478,0,0,0.4,0.4,-0.589375313864885,-0.589375313864885,750,1,0,congruent,0,744.460570196601,2404.44270666315
43,104,3,418,0.5,-0.5,0,3,NaN,0.6,4,520,0,1,NaN,1,0,0.4,NaN,-0.31798655547861,NaN,750,0,1,neutral,1,1019.31116182495,1187.32277297482
43,104,3,420,0.5,0.5,0,1,NaN,0.6,1,536,1,1,536,1,0,0.8,NaN,-0.214600361807649,-0.214600361807649,750,0,0,neutral,1,1013.06141576989,810.822738167305
43,104,3,421,-0.5,0.5,-0.5,2,2,0.6,2,468,1,1,468,1,0,0.8,0.2,-0.653991684909236,-0.653991684909236,750,1,0,congruent,0.1,1069.47251262204,360.369280480286
43,104,3,422,0.5,-0.5,0,4,NaN,0.6,1,525,0,1,NaN,0,0,1,NaN,-0.285678369956435,NaN,750,0,1,neutral,0,2054.8405153694,859.074315674495
43,104,3,423,0.5,0.5,0.5,3,4,0.6,4,372,0,1,NaN,0,0,1,NaN,-1.27430884693501,NaN,750,1,0,incongruent,0,2023.57690804528,1778.04746718809
43,104,3,424,0.5,0.5,0.5,1,3,0.4,1,663,1,1,663,1,0,0.6,NaN,0.60602755045561,0.60602755045561,750,0,0,incongruent,1,1561.64184758498,359.547629786049
43,104,3,425,0.5,0.5,0,2,NaN,0.6,2,559,1,1,559,1,0,1,NaN,-0.0659827084056413,-0.0659827084056413,750,0,0,neutral,1,733.52850513383,651.186069324336
43,104,3,429,0.5,-0.5,0,2,NaN,0.6,2,564,1,1,564,0,0,1,NaN,-0.0336745228834657,-0.0336745228834657,750,0,0,neutral,0,402.158617975276,772.947948906008
43,104,3,430,-0.5,0.5,-0.5,3,3,0.6,4,537,0,1,NaN,0,0,0.6,0.4,-0.208138724703214,NaN,750,0,1,congruent,0,2373.36461493095,1630.46773661168
43,104,3,431,0.5,-0.5,-0.5,2,2,0.4,2,499,1,1,499,1,0,0.2,NaN,-0.453680934671748,-0.453680934671748,750,1,0,congruent,1,988.15256427806,964.851506563703
43,104,3,432,0.5,-0.5,0.5,4,3,0.4,1,912,0,0,NaN,0,0,0.6,NaN,2.21497518945995,NaN,750,0,1,incongruent,0,878.274175493106,788.440529807992
43,104,3,433,-0.5,0.5,0.5,3,1,0.4,4,730,0,1,NaN,0,0,0.4,0.4,1.03895723645276,NaN,750,0,1,incongruent,0,4170.5749848061,639.084083800838
43,104,3,435,0.5,-0.5,-0.5,1,1,0.4,1,559,1,1,559,0,0,0.4,NaN,-0.0659827084056413,-0.0659827084056413,750,1,0,congruent,0,687.844120382699,2092.80164012701
43,104,3,436,-0.5,-0.5,0.5,2,3,0.4,2,722,1,1,722,1,0,0.4,0.2,0.987264139617281,0.987264139617281,750,0,0,incongruent,0.1,683.800445172921,780.648453002521
43,104,3,437,0.5,0.5,-0.5,1,1,0.4,1,616,1,1,616,1,0,0.2,NaN,0.30233060654716,0.30233060654716,750,1,0,congruent,1,475.445667090746,1476.56815296289
43,104,3,438,0.5,-0.5,0.5,2,3,0.4,2,931,1,0,931,0,0,0.6,NaN,2.33774629444422,2.33774629444422,750,0,0,incongruent,0,323.186079786425,2052.57084039838
43,104,3,439,-0.5,-0.5,0,3,NaN,0.4,4,281,0,1,NaN,1,0,0.6,0.4,-1.8623178234386,NaN,750,0,1,neutral,0.1,3030.91394087448,1671.18232755429
43,104,3,441,-0.5,-0.5,0,3,NaN,0.4,4,645,0,1,NaN,0,0,1.2,0.6,0.489718082575778,NaN,750,0,1,neutral,0,1462.11661240076,471.370073839718
43,104,3,442,-0.5,0.5,-0.5,2,2,0.4,2,381,1,1,381,1,0,1,0.4,-1.21615411299509,-1.21615411299509,750,1,0,congruent,0.1,1674.03948998465,1528.59065099688
43,104,3,444,-0.5,0.5,0,2,NaN,0.4,2,452,1,1,452,1,0,0.8,0.4,-0.757377878580198,-0.757377878580198,750,0,0,neutral,0.1,986.012911411887,794.429812120653
43,104,3,446,-0.5,0.5,0,3,NaN,0.6,4,524,0,1,NaN,0,0,0.4,0.6,-0.29214000706087,NaN,750,0,1,neutral,0,3515.80544165292,836.53665852151
43,104,3,448,0.5,0.5,-0.5,2,2,0.6,2,802,1,0,802,0,0,0.2,NaN,1.50419510797209,1.50419510797209,750,1,0,congruent,0,311.587185081704,681.15797154407
43,104,3,450,0.5,0.5,-0.5,1,1,0.2,1,291,1,1,291,1,0,0,NaN,-1.79770145239425,-1.79770145239425,750,1,0,congruent,1,1404.14663047623,1618.07711475243
43,104,4,452,0.5,-0.5,0,3,NaN,0.2,4,331,0,1,NaN,0,0,0.4,NaN,-1.53923596821685,NaN,750,0,1,neutral,0,872.147568003314,858.468103080526
43,104,4,453,0.5,0.5,-0.5,1,1,0.2,1,440,1,1,440,1,0,0.4,NaN,-0.834917523833419,-0.834917523833419,750,1,0,congruent,1,532.406240998965,743.634938703897
43,104,4,454,0.5,0.5,-0.5,2,2,0.4,2,444,1,1,444,1,0,0.8,NaN,-0.809070975415679,-0.809070975415679,750,1,0,congruent,1,1732.54525414527,1204.00553304792
43,104,4,455,0.5,0.5,-0.5,3,3,0.6,4,277,0,1,NaN,0,0,1.2,NaN,-1.88816437185634,NaN,750,0,1,congruent,0,1158.19701122248,294.54073697604
43,104,4,457,0.5,0.5,-0.5,2,2,0.6,2,524,1,1,524,1,0,0.8,NaN,-0.29214000706087,-0.29214000706087,750,1,0,congruent,1,1156.61184401565,604.667754996556
43,104,4,458,-0.5,-0.5,-0.5,3,3,0.6,4,480,0,1,NaN,1,0,1.2,0.4,-0.576452039656015,NaN,750,0,1,congruent,0.1,961.429356385359,835.093907128052
43,104,4,459,-0.5,0.5,0,1,NaN,0.6,1,458,1,1,458,1,0,1,0.2,-0.718608055953587,-0.718608055953587,750,0,0,neutral,0.1,667.248465009256,932.513254543934
43,104,4,460,0.5,0.5,0.5,2,3,0.6,2,396,1,1,396,1,0,0.8,NaN,-1.11922955642856,-1.11922955642856,750,0,0,incongruent,1,1463.98244413815,882.262276498475
43,104,4,461,-0.5,0.5,0,3,NaN,0.6,4,357,0,1,NaN,0,0,1.2,0.2,-1.37123340350153,NaN,750,0,1,neutral,0,1739.37227786194,1368.90700495054
43,104,4,462,0.5,-0.5,-0.5,2,2,0.6,1,508,0,1,NaN,0,0,1.2,NaN,-0.395526200731832,NaN,750,0,1,congruent,0,1439.24209994912,722.328562347872
43,104,4,464,-0.5,0.5,0,3,NaN,0.6,4,362,0,1,NaN,0,0,0.6,0.2,-1.33892521797936,NaN,750,0,1,neutral,0,598.472366214995,1275.47669680701
43,104,4,465,-0.5,0.5,-0.5,2,2,0.6,2,305,1,1,305,1,0,0.4,0.2,-1.70723853293216,-1.70723853293216,750,1,0,congruent,0.1,415.265838882072,2295.56062567699
43,104,4,466,-0.5,0.5,0,1,NaN,0.6,1,516,1,1,516,1,0,0.2,0.4,-0.343833103896351,-0.343833103896351,750,0,0,neutral,0.1,512.890729097952,1097.27401118169
43,104,4,467,0.5,0.5,-0.5,2,2,0.6,2,481,1,1,481,1,0,0.4,NaN,-0.56999040255158,-0.56999040255158,750,1,0,congruent,1,1549.16562292746,913.571412555605
43,104,4,469,-0.5,-0.5,0,3,NaN,0.6,4,438,0,1,NaN,0,0,0.8,0.4,-0.847840798042289,NaN,750,0,1,neutral,0,975.830198789399,284.544604959327
43,104,4,470,0.5,-0.5,-0.5,2,2,0.6,2,259,1,1,259,0,0,0.8,NaN,-2.00447383973617,-2.00447383973617,750,1,0,congruent,0,540.68733672837,1914.59676984049
43,104,4,472,0.5,-0.5,0,3,NaN,0.6,4,340,0,1,NaN,1,0,0.4,NaN,-1.48108123427693,NaN,750,0,1,neutral,1,2352.22789753232,1414.16649895792
43,104,4,474,0.5,0.5,0.5,3,1,0.4,4,734,0,1,NaN,0,0,0.4,NaN,1.0648037848705,NaN,750,0,1,incongruent,0,1929.60387848763,1295.57706123006
43,104,4,475,0.5,0.5,0,2,NaN,0.2,2,313,1,1,313,1,0,0.4,NaN,-1.65554543609668,-1.65554543609668,750,0,0,neutral,1,677.224025036494,727.994295156073
43,104,4,477,0.5,-0.5,-0.5,2,2,0.2,2,492,1,1,492,0,0,0.8,NaN,-0.498912394402793,-0.498912394402793,750,1,0,congruent,0,892.80963395063,1345.33289007462
43,104,4,478,-0.5,0.5,0.5,3,1,0.2,4,952,0,0,NaN,0,0,0.4,0.4,2.47344067363736,NaN,750,0,1,incongruent,0,574.463330474771,506.597385828807
43,104,4,479,0.5,0.5,-0.5,2,2,0.2,2,530,1,1,530,1,0,0.4,NaN,-0.253370184434259,-0.253370184434259,750,1,0,congruent,1,1162.79817814363,1684.39421099267
43,104,4,480,-0.5,0.5,-0.5,3,3,0.4,4,378,0,1,NaN,0,0,0.8,0.4,-1.2355390243084,NaN,750,0,1,congruent,0,841.316971473621,283.057011434018
43,104,4,482,-0.5,0.5,-0.5,2,2,0.2,2,590,1,1,590,1,0,0.4,0.4,0.134328041831847,0.134328041831847,750,1,0,congruent,0.1,1401.20469121249,1479.01737885792
43,104,4,483,0.5,-0.5,-0.5,1,1,0.4,1,308,1,1,308,1,0,0.6,NaN,-1.68785362161885,-1.68785362161885,750,1,0,congruent,1,4944.25915297261,687.59705220864
43,104,4,485,0.5,0.5,0.5,1,3,0.4,1,789,1,0,789,0,0,0.6,NaN,1.42019382561443,1.42019382561443,750,0,0,incongruent,0,835.31481021862,3054.3626718687
43,104,4,487,0.5,0.5,0,1,NaN,0.2,1,625,1,1,625,1,0,0.6,NaN,0.360485340487076,0.360485340487076,750,0,0,neutral,1,816.61838475064,1689.60656046447
43,104,4,488,-0.5,0.5,0.5,2,1,0.4,2,384,1,1,384,1,0,0.8,0.2,-1.19676920168179,-1.19676920168179,750,0,0,incongruent,0.1,1184.67493249018,345.706811878676
43,104,4,490,0.5,0.5,0,3,NaN,0.4,4,304,0,1,NaN,0,0,0.6,NaN,-1.71370017003659,NaN,750,0,1,neutral,0,1074.21483934171,1223.1895581369
43,104,4,491,0.5,-0.5,-0.5,1,1,0.4,1,274,1,1,274,0,0,0.6,NaN,-1.90754928316965,-1.90754928316965,750,1,0,congruent,0,1216.54190916264,677.454438193378
43,104,4,492,-0.5,-0.5,0.5,2,3,0.4,2,618,1,1,618,1,0,0.6,0.2,0.31525388075603,0.31525388075603,750,0,0,incongruent,0.1,389.507640607106,208.915970235893
43,104,4,494,0.5,-0.5,-0.5,1,1,0.4,1,547,1,1,547,0,0,0.2,NaN,-0.143522353658863,-0.143522353658863,750,1,0,congruent,0,1024.43519399229,1232.16578184563
43,104,4,496,0.5,0.5,-0.5,2,2,0.4,2,495,1,1,495,1,0,0.2,NaN,-0.479527483089488,-0.479527483089488,750,1,0,congruent,1,940.601094933258,1573.3222200797
43,104,4,497,0.5,-0.5,0.5,1,3,0.4,2,621,0,1,NaN,0,0,0.6,NaN,0.334638792069335,NaN,750,0,1,incongruent,0,2425.09807621382,1025.05336595297
43,104,4,498,0.5,0.5,0.5,3,2,0.4,2,514,0,1,NaN,0,0,0.4,NaN,-0.356756378105221,NaN,750,1,0,incongruent,0,1232.11314967769,1127.2643101118
43,104,4,500,-0.5,-0.5,0,3,NaN,0.2,4,463,0,1,NaN,0,0,0.4,0.4,-0.686299870431411,NaN,750,0,1,neutral,0,1580.98995949915,541.216717674566
43,104,4,501,-0.5,-0.5,0.5,1,3,0.2,1,296,1,1,296,0,0,0.4,0.2,-1.76539326687207,-1.76539326687207,750,0,0,incongruent,0,348.23731497373,138.436477899071
43,104,4,502,0.5,0.5,-0.5,2,2,0.2,2,493,1,1,493,1,0,0,NaN,-0.492450757298358,-0.492450757298358,750,1,0,congruent,1,2511.87704160723,881.233314106775
43,104,4,503,-0.5,0.5,-0.5,3,3,0.4,4,623,0,1,NaN,0,0,0.4,0.4,0.347562066278206,NaN,750,0,1,congruent,0,2585.77608766167,1663.70469150949
43,104,4,504,-0.5,-0.5,0.5,1,2,0.4,1,745,1,1,745,0,0,0.4,0.2,1.13588179301929,1.13588179301929,750,0,0,incongruent,0,493.708613405649,2070.1856126793
43,104,4,505,0.5,-0.5,-0.5,3,3,0.4,4,428,0,1,NaN,0,0,0.4,NaN,-0.91245716908664,NaN,750,0,1,congruent,0,500.717526657677,310.000799579032
43,104,4,506,0.5,0.5,0,4,NaN,0.4,4,860,1,0,860,0,0,0.4,NaN,1.87897006002933,1.87897006002933,750,0,0,neutral,0,326.169120223286,1653.93390284256
43,104,4,507,0.5,0.5,0.5,2,4,0.4,2,745,1,1,745,1,0,0.4,NaN,1.13588179301929,1.13588179301929,750,0,0,incongruent,1,535.706882094086,781.299981943402
43,104,4,508,-0.5,0.5,-0.5,1,1,0.4,1,531,1,1,531,1,0,0.4,0.2,-0.246908547329824,-0.246908547329824,750,1,0,congruent,0.1,1444.45655773229,1223.43031195019
43,104,4,509,-0.5,0.5,-0.5,3,3,0.6,4,451,0,1,NaN,0,0,0.6,0.4,-0.763839515684633,NaN,750,0,1,congruent,0,578.57519472468,261.814283609327
43,104,4,510,-0.5,0.5,0.5,1,4,0.4,1,893,1,0,893,0,0,0.6,0.2,2.09220408447568,2.09220408447568,750,0,0,incongruent,0,741.091412364398,2448.27514812183
43,104,4,511,0.5,-0.5,-0.5,3,3,0.4,4,454,0,1,NaN,0,0,0.6,NaN,-0.744454604371327,NaN,750,0,1,congruent,0,346.482695395324,1669.79410366313
43,104,4,512,-0.5,-0.5,0,2,NaN,0.4,2,551,1,1,551,0,0,0.6,0,-0.117675805241122,-0.117675805241122,750,0,0,neutral,0,1401.3240531997,2882.9850129842
43,104,4,514,-0.5,0.5,0,2,NaN,0.4,2,561,1,1,561,1,0,0.4,0.2,-0.053059434196771,-0.053059434196771,750,0,0,neutral,0.1,1936.23080089538,417.153108935708
43,104,4,515,0.5,0.5,-0.5,1,1,0.6,1,433,1,1,433,1,0,0.6,NaN,-0.880148983564465,-0.880148983564465,750,1,0,congruent,1,720.180072978507,1463.11740545954
43,104,4,516,-0.5,0.5,0.5,3,2,0.6,4,504,0,1,NaN,0,0,1,0.4,-0.421372749149572,NaN,750,0,1,incongruent,0,1483.41625410366,890.650073071065
43,104,4,518,-0.5,0.5,-0.5,1,1,0.4,1,278,1,1,278,1,0,1,0.4,-1.88170273475191,-1.88170273475191,750,1,0,congruent,0.1,1264.91355322959,1445.55113413769
43,104,4,519,0.5,0.5,-0.5,2,2,0.6,2,445,1,1,445,1,0,0.8,NaN,-0.802609338311243,-0.802609338311243,750,1,0,congruent,1,338.542801359488,953.907976908512
43,104,4,520,0.5,-0.5,0.5,3,4,0.6,4,302,0,1,NaN,1,0,1,NaN,-1.72662344424546,NaN,750,1,0,incongruent,1,795.374633870172,892.316959588995
43,104,4,521,0.5,-0.5,0.5,2,3,0.6,2,574,1,1,574,0,0,1,NaN,0.0309418481608854,0.0309418481608854,750,0,0,incongruent,0,628.99238285124,790.528919638683
43,104,4,524,-0.5,-0.5,-0.5,1,1,0.6,1,488,1,1,488,0,0,1.2,0,-0.524758942820534,-0.524758942820534,750,1,0,congruent,0,2049.33911854038,1044.71132543865
43,104,4,528,0.5,0.5,0,1,NaN,0.4,1,490,1,1,490,1,0,0.4,NaN,-0.511835668611664,-0.511835668611664,750,0,0,neutral,1,889.969420289132,402.647131022663
43,104,4,529,-0.5,0.5,0.5,3,2,0.6,4,276,0,1,NaN,0,0,0.8,0.4,-1.89462600896078,NaN,750,0,1,incongruent,0,1185.97969277891,1285.6858882288
43,104,4,531,-0.5,-0.5,-0.5,2,2,0.4,2,485,1,1,485,0,0,0.8,0,-0.544143854133839,-0.544143854133839,750,1,0,congruent,0,853.156877270506,847.927121170346
43,104,4,532,-0.5,0.5,-0.5,3,3,0.4,4,387,0,1,NaN,0,0,0.8,0.4,-1.17738429036848,NaN,750,0,1,congruent,0,1045.65142453944,797.798219964646
43,104,4,534,0.5,0.5,-0.5,2,2,0.2,2,412,1,1,412,1,0,0,NaN,-1.0158433627576,-1.0158433627576,750,1,0,congruent,1,528.371072166718,679.264607664413
43,104,4,536,-0.5,-0.5,0,2,NaN,0.4,2,550,1,1,550,0,0,0.4,0,-0.124137442345557,-0.124137442345557,750,0,0,neutral,0,1920.14899576145,1521.99042640646
43,104,4,538,0.5,-0.5,0,2,NaN,0.4,2,379,1,1,379,0,0,0.4,NaN,-1.22907738720396,-1.22907738720396,750,0,0,neutral,0,1789.62939726123,3125.01152924943
43,104,4,541,0.5,-0.5,-0.5,2,2,0.2,2,366,1,1,366,0,0,0.4,NaN,-1.31307866956162,-1.31307866956162,750,1,0,congruent,0,853.202926807699,830.602123522065
43,104,4,542,0.5,0.5,-0.5,1,1,0.2,1,486,1,1,486,1,0,0.4,NaN,-0.537682217029404,-0.537682217029404,750,1,0,congruent,1,954.174284667521,1045.79847036437
43,104,4,543,0.5,0.5,-0.5,3,3,0.4,4,694,0,1,NaN,0,0,0.8,NaN,0.806338300693098,NaN,750,0,1,congruent,0,970.739776775153,899.459919804258
43,104,4,545,0.5,0.5,-0.5,3,3,0.2,4,496,0,1,NaN,0,0,0.8,NaN,-0.473065845985053,NaN,750,0,1,congruent,0,1305.53021948155,732.506592409199
43,104,4,547,0.5,-0.5,0.5,2,3,0.2,4,490,0,1,NaN,0,0,0.4,NaN,-0.511835668611664,NaN,750,0,1,incongruent,0,1612.96251922248,776.341827596714
43,104,4,548,0.5,-0.5,0,3,NaN,0.2,4,481,0,1,NaN,0,0,0,NaN,-0.56999040255158,NaN,750,0,1,neutral,0,934.043017893354,843.954813315833
43,104,4,549,0.5,-0.5,0.5,1,2,0.2,1,335,1,1,335,1,0,0,NaN,-1.51338941979911,-1.51338941979911,750,0,0,incongruent,1,408.463933631437,3537.31330568969
43,104,4,550,-0.5,-0.5,-0.5,3,3,0.2,4,517,0,1,NaN,0,0,0.4,0,-0.337371466791916,NaN,750,0,1,congruent,0,2549.92884363408,552.383846737613
43,104,4,551,-0.5,0.5,0.5,1,2,0.2,1,266,1,1,266,1,0,0.4,0,-1.95924238000513,-1.95924238000513,750,0,0,incongruent,0.1,957.328066569193,791.743864178801
43,104,4,552,-0.5,-0.5,0.5,4,1,0.2,1,574,0,1,NaN,1,0,0.6,0,0.0309418481608854,NaN,750,1,0,incongruent,0.1,983.30714631381,609.731012620582
43,104,4,553,-0.5,-0.5,0,3,NaN,0.2,4,377,0,1,NaN,0,0,0.8,0.2,-1.24200066141283,NaN,750,0,1,neutral,0,1515.19496285163,492.603395058934
43,104,4,554,-0.5,-0.5,-0.5,2,2,0.2,2,506,1,1,506,0,0,0.8,0.2,-0.408449474940702,-0.408449474940702,750,1,0,congruent,0,992.123533320846,455.828062782688
43,104,4,555,-0.5,0.5,0,4,NaN,0.2,4,463,1,1,463,1,0,0.4,0.2,-0.686299870431411,-0.686299870431411,750,0,0,neutral,0.1,3044.76911557289,1349.83372666386
43,104,4,556,0.5,0.5,0.5,1,2,0.4,1,560,1,1,560,1,0,0.6,NaN,-0.0595210713012061,-0.0595210713012061,750,0,0,incongruent,1,497.445958397628,572.362564240842
43,104,4,558,0.5,0.5,0.5,2,3,0.6,2,574,1,1,574,1,0,1,NaN,0.0309418481608854,0.0309418481608854,750,0,0,incongruent,1,1535.20136506156,527.056286639904
43,104,4,559,0.5,-0.5,0,3,NaN,0.8,4,466,0,1,NaN,1,0,1.4,NaN,-0.666914959118106,NaN,750,0,1,neutral,1,517.690668948907,559.333582337373
43,104,4,561,-0.5,-0.5,-0.5,2,2,0.8,2,505,1,1,505,1,0,1.6,0.2,-0.414911112045137,-0.414911112045137,750,1,0,congruent,0.1,157.80283865186,1106.76640203602
43,104,4,562,0.5,-0.5,0.5,1,4,0.8,1,488,1,1,488,1,0,1.4,NaN,-0.524758942820534,-0.524758942820534,750,0,0,incongruent,1,2251.16162810222,1046.89808273246
43,104,4,563,-0.5,0.5,0.5,2,1,0.8,2,540,1,1,540,1,0,1.4,0.4,-0.188753813389908,-0.188753813389908,750,0,0,incongruent,0.1,1385.66584991945,655.141463334336
43,104,4,565,0.5,0.5,-0.5,2,2,0.8,2,583,1,1,583,1,0,1,NaN,0.0890965821008013,0.0890965821008013,750,1,0,congruent,1,1237.47917707817,566.741761607499
43,104,4,569,0.5,-0.5,0.5,1,2,0.4,1,582,1,1,582,0,0,0.6,NaN,0.0826349449963662,0.0826349449963662,750,0,0,incongruent,0,420.744745240496,536.918315496099
43,104,4,570,0.5,0.5,-0.5,3,3,0.4,4,317,0,1,NaN,0,0,0.4,NaN,-1.62969888767894,NaN,750,0,1,congruent,0,411.616611666728,1039.65664881749
43,104,4,571,-0.5,0.5,0,1,NaN,0.4,1,655,1,1,655,1,0,0,0.6,0.554334453620129,0.554334453620129,750,0,0,neutral,0.1,989.144639400926,1649.3112624642
43,104,4,573,0.5,0.5,0,1,NaN,0.4,1,547,1,1,547,1,0,0.4,NaN,-0.143522353658863,-0.143522353658863,750,0,0,neutral,1,629.846732296148,989.133434688601
43,104,4,574,-0.5,0.5,0.5,3,2,0.4,4,599,0,1,NaN,0,0,0.8,0.8,0.192482775771763,NaN,750,0,1,incongruent,0,719.012020711424,1799.17412290733
43,104,4,575,0.5,0.5,0,2,NaN,0.4,2,592,1,1,592,1,0,0.8,NaN,0.147251316040717,0.147251316040717,750,0,0,neutral,1,908.944596721435,743.385458940302
43,104,4,577,0.5,0.5,0,1,NaN,0.6,1,664,1,1,664,1,0,1,NaN,0.612489187560045,0.612489187560045,750,0,0,neutral,1,1333.99564088091,962.838441605199
43,104,4,578,0.5,-0.5,-0.5,2,2,0.6,2,354,1,1,354,1,0,1.2,NaN,-1.39061831481484,-1.39061831481484,750,1,0,congruent,1,598.788145679855,643.568631980243
43,104,4,580,0.5,-0.5,-0.5,2,2,0.4,2,321,1,1,321,0,0,1.2,NaN,-1.6038523392612,-1.6038523392612,750,1,0,congruent,0,527.696142662666,727.245040261657
43,104,4,582,0.5,-0.5,-0.5,3,3,0.4,4,623,0,1,NaN,0,0,0.8,NaN,0.347562066278206,NaN,750,0,1,congruent,0,3179.02565104585,918.007042115751
43,104,4,583,-0.5,0.5,0.5,1,4,0.4,1,453,1,1,453,1,0,0.4,0.4,-0.750916241475763,-0.750916241475763,750,0,0,incongruent,0.1,2583.40366833885,1303.63764597546
43,104,4,584,0.5,0.5,0,4,NaN,0.4,4,397,1,1,397,1,0,0.2,NaN,-1.11276791932413,-1.11276791932413,750,0,0,neutral,1,2881.44841615561,175.651806629044
43,104,4,585,0.5,0.5,0.5,2,4,0.6,2,653,1,1,653,1,0,0.6,NaN,0.541411179411259,0.541411179411259,750,0,0,incongruent,1,2806.21244227592,911.587815064356
43,104,4,586,0.5,-0.5,0,1,NaN,0.6,1,516,1,1,516,0,0,1,NaN,-0.343833103896351,-0.343833103896351,750,0,0,neutral,0,1238.61202517499,807.561860128149
43,104,4,587,0.5,0.5,0.5,3,2,0.6,4,428,0,1,NaN,0,0,1,NaN,-0.91245716908664,NaN,750,0,1,incongruent,0,842.990704745868,1114.40799234937
43,104,4,588,-0.5,0.5,-0.5,1,1,0.6,1,310,1,1,310,1,0,1,0.4,-1.67493034740998,-1.67493034740998,750,1,0,congruent,0.1,1020.03872305791,1263.59376899839
43,104,4,589,-0.5,0.5,0,3,NaN,0.8,4,481,0,1,NaN,0,0,1,0.6,-0.56999040255158,NaN,750,0,1,neutral,0,370.021649188616,1295.67537893916
43,104,4,591,0.5,-0.5,0.5,1,3,0.6,2,650,0,1,NaN,1,0,0.6,NaN,0.522026268097953,NaN,750,0,1,incongruent,1,583.103622855868,1083.67244078068
43,104,4,593,0.5,0.5,0,1,NaN,0.4,1,504,1,1,504,1,0,1,NaN,-0.421372749149572,-0.421372749149572,750,0,0,neutral,1,1050.01658061728,1618.18422969213
43,104,4,595,-0.5,-0.5,-0.5,2,2,0.4,1,450,0,1,NaN,1,0,1.4,0.8,-0.770301152789068,NaN,750,0,1,congruent,0.1,2415.86854764066,444.10512914642
43,104,4,596,0.5,-0.5,0,3,NaN,0.4,4,450,0,1,NaN,1,0,1.2,NaN,-0.770301152789068,NaN,750,0,1,neutral,1,3931.00819437714,798.997640884988
43,104,4,597,0.5,-0.5,-0.5,2,2,0.4,2,509,1,1,509,0,0,1.2,NaN,-0.389064563627397,-0.389064563627397,750,1,0,congruent,0,1468.56873589313,305.276947790356
43,104,4,599,-0.5,-0.5,0.5,3,1,0.4,4,699,0,1,NaN,0,0,0.8,0.8,0.838646486215274,NaN,750,0,1,incongruent,0,512.423464645683,815.788471820279
