subid,vers,block,trial,rewlvl,efflvl,congruency,targetresp,distractorresp,rollingefflvl,resp,rt,acc,fast,accrt,isrewarded,ismiss,runavgrrgen,runavgrrcond,zrt,acczrt,rtthreshold,isdisterror,isranderror,congruence,feedback,fcz_resp_theta,fcz_resp_theta_baseline
44,104,1,1,0.5,-0.5,0.5,3,2,0.4,4,927,0,0,NaN,0,0,0,NaN,1.30674482759923,NaN,750,0,1,incongruent,0,3609.77845843209,3971.10997734554
44,104,1,2,-0.5,-0.5,-0.5,4,4,0.4,4,762,1,0,762,0,0,0,0,-0.0373054713326846,-0.0373054713326846,750,1,0,congruent,0,2744.6784232814,2880.2147380167
44,104,1,3,-0.5,-0.5,-0.5,2,2,0.4,2,832,1,0,832,1,0,0,0,0.532897685789948,0.532897685789948,750,1,0,congruent,0.1,7444.42936994276,3148.80943456322
44,104,1,4,-0.5,0.5,-0.5,4,4,0.4,4,839,1,0,839,0,0,0.2,0,0.589918001502211,0.589918001502211,750,1,0,congruent,0,2150.12160197065,14699.6384098358
44,104,1,6,0.5,0.5,-0.5,4,4,0.4,4,695,1,1,695,1,0,0.2,NaN,-0.583071350292918,-0.583071350292918,750,1,0,congruent,1,4135.14203806847,1573.48607209138
44,104,1,7,-0.5,0.5,0.5,2,3,0.6,2,858,1,0,858,0,0,0.6,0,0.744687429864068,0.744687429864068,750,0,0,incongruent,0,5389.17868912773,2651.5298401376
44,104,1,8,-0.5,0.5,0.5,1,4,0.4,1,677,1,1,677,1,0,0.6,0,-0.72969501926731,-0.72969501926731,750,0,0,incongruent,0.1,1863.86622232626,1611.45808981925
44,104,1,10,0.5,-0.5,-0.5,1,1,0.4,1,489,1,1,489,0,0,0.6,NaN,-2.26109778411095,-2.26109778411095,750,1,0,congruent,0,3683.19074942557,2058.87109813305
44,104,1,11,0.5,-0.5,-0.5,2,2,0.4,2,527,1,1,527,1,0,0.6,NaN,-1.95155892738724,-1.95155892738724,750,1,0,congruent,1,6847.75585381718,1680.84328134672
44,104,1,12,-0.5,-0.5,-0.5,3,3,0.4,3,687,1,1,687,0,0,0.6,0.2,-0.648237425392648,-0.648237425392648,750,1,0,congruent,0,11886.7232452364,386.866717559023
44,104,1,13,-0.5,-0.5,0.5,1,2,0.4,1,603,1,1,603,0,0,0.6,0.2,-1.33248121393981,-1.33248121393981,750,0,0,incongruent,0,3196.80419768067,2218.83807064172
44,104,1,14,0.5,-0.5,-0.5,3,3,0.4,3,662,1,1,662,0,0,0.4,NaN,-0.851881410079302,-0.851881410079302,750,1,0,congruent,0,2267.46804730575,6678.11663742156
44,104,1,15,-0.5,0.5,0.5,1,2,0.4,1,607,1,1,607,1,0,0.4,0.2,-1.29989817638994,-1.29989817638994,750,0,0,incongruent,0.1,1740.66262104964,3708.53560456186
44,104,1,16,0.5,-0.5,0.5,2,3,0.6,2,910,1,0,910,0,0,0.6,NaN,1.16826691801231,1.16826691801231,750,0,0,incongruent,0,7203.10508458236,1532.17254193427
44,104,1,17,-0.5,0.5,-0.5,4,4,0.6,4,733,1,1,733,1,0,0.2,0.4,-0.273532493569204,-0.273532493569204,750,1,0,congruent,0.1,1386.05628537596,4904.69975760515
44,104,1,19,0.5,0.5,0.5,1,4,0.6,1,546,1,1,546,1,0,0.4,NaN,-1.79678949902538,-1.79678949902538,750,0,0,incongruent,1,7484.38780456022,5024.63419845828
44,104,1,20,-0.5,-0.5,-0.5,3,3,0.6,3,638,1,1,638,1,0,0.8,0.2,-1.04737963537849,-1.04737963537849,750,1,0,congruent,0.1,1961.59050670195,3338.29920662077
44,104,1,21,-0.5,0.5,0,4,NaN,0.6,4,548,1,1,548,1,0,0.8,0.6,-1.78049798025045,-1.78049798025045,750,0,0,neutral,0.1,6737.83194385108,5600.59584507579
44,104,1,22,-0.5,0.5,-0.5,2,2,0.8,2,941,1,0,941,0,0,1,0.6,1.42078545902376,1.42078545902376,750,1,0,congruent,0,2676.98986831185,2161.75212137732
44,104,1,24,-0.5,0.5,-0.5,4,4,0.6,4,814,1,0,814,0,0,0.8,0.6,0.386274016815557,0.386274016815557,750,1,0,congruent,0,3003.88907996963,2406.30808268365
44,104,1,25,0.5,0.5,0,1,NaN,0.4,1,483,1,1,483,1,0,0.4,NaN,-2.30997234043575,-2.30997234043575,750,0,0,neutral,1,6104.79573305819,962.121300084683
44,104,1,27,0.5,0.5,0.5,3,2,0.6,3,860,1,0,860,0,0,0.4,NaN,0.760978948639001,0.760978948639001,750,0,0,incongruent,0,3404.00429456656,1386.13905701925
44,104,1,28,0.5,0.5,0.5,1,4,0.4,1,746,1,1,746,1,0,0.4,NaN,-0.167637621532143,-0.167637621532143,750,0,0,incongruent,1,1772.806069745,6824.78412778848
44,104,1,29,-0.5,-0.5,0.5,4,2,0.4,4,707,1,1,707,0,0,0.8,0.4,-0.485322237643324,-0.485322237643324,750,0,0,incongruent,0,4683.90844180872,3925.90765360374
44,104,1,30,-0.5,0.5,-0.5,1,1,0.4,1,582,1,1,582,1,0,0.8,0.4,-1.5035421610766,-1.5035421610766,750,1,0,congruent,0.1,5624.98405034219,948.565700154488
44,104,1,31,0.5,-0.5,0,4,NaN,0.6,4,730,1,1,730,1,0,0.6,NaN,-0.297969771731602,-0.297969771731602,750,0,0,neutral,1,2779.75954072408,3058.85145975689
44,104,1,32,-0.5,-0.5,-0.5,1,1,0.6,1,644,1,1,644,1,0,1,0.4,-0.998505079053693,-0.998505079053693,750,1,0,congruent,0.1,1095.65303278237,1679.16220078816
44,104,1,33,-0.5,0.5,-0.5,3,3,0.6,3,824,1,0,824,0,0,1.2,0.4,0.467731610690218,0.467731610690218,750,1,0,congruent,0,1056.18135701348,1747.8072213638
44,104,1,34,0.5,-0.5,-0.5,1,1,0.6,1,524,1,1,524,1,0,0.8,NaN,-1.97599620554963,-1.97599620554963,750,1,0,congruent,1,2061.29838869806,4841.94614644201
44,104,1,35,0.5,-0.5,0,4,NaN,0.6,3,703,0,1,NaN,0,0,1.2,NaN,-0.517905275193189,NaN,750,0,1,neutral,0,3108.42107163287,2757.89120007458
44,104,1,36,0.5,-0.5,0.5,2,3,0.6,1,741,0,1,NaN,1,0,1,NaN,-0.208366418469474,NaN,750,0,1,incongruent,1,6744.15459640876,8355.1078806263
44,104,1,37,-0.5,0.5,-0.5,4,4,0.6,4,792,1,0,792,0,0,1,0.4,0.207067310291301,0.207067310291301,750,1,0,congruent,0,3431.9995510973,4088.77418218141
44,104,1,39,0.5,-0.5,0,1,NaN,0.4,3,739,0,1,NaN,0,0,0.8,NaN,-0.224657937244407,NaN,750,0,1,neutral,0,7047.88165347977,1659.35250997459
44,104,1,40,-0.5,-0.5,-0.5,4,4,0.4,3,713,0,1,NaN,1,0,0.4,0.4,-0.436447681318527,NaN,750,0,1,congruent,0.1,2858.02229768616,1679.28127785792
44,104,1,41,0.5,0.5,0.5,2,3,0.4,1,831,0,0,NaN,0,0,0.6,NaN,0.524751926402482,NaN,750,0,1,incongruent,0,7815.97974134715,969.939072520888
44,104,1,42,-0.5,-0.5,-0.5,1,1,0.2,1,788,1,0,788,0,0,0.2,0.6,0.174484272741436,0.174484272741436,750,1,0,congruent,0,6448.03926657851,3912.68240664076
44,104,1,44,-0.5,-0.5,-0.5,1,1,0,1,842,1,0,842,0,0,0.2,0.6,0.61435527966461,0.61435527966461,750,1,0,congruent,0,2316.79866585606,1433.79827051453
44,104,1,45,0.5,-0.5,0,4,NaN,0,4,704,1,1,704,0,0,0.2,NaN,-0.509759515805723,-0.509759515805723,750,0,0,neutral,0,4514.72136090234,5823.29239755419
44,104,1,46,0.5,-0.5,-0.5,2,2,0,1,741,0,1,NaN,0,0,0,NaN,-0.208366418469474,NaN,750,0,1,congruent,0,4651.98722675468,3112.61887257225
44,104,1,47,0.5,0.5,0.5,1,4,0,1,809,1,0,809,0,0,0,NaN,0.345545219878226,0.345545219878226,750,0,0,incongruent,0,9596.22418242482,8255.00081759123
44,104,1,49,-0.5,0.5,0.5,4,2,0,4,716,1,1,716,1,0,0,0,-0.412010403156129,-0.412010403156129,750,0,0,incongruent,0.1,4485.88776483319,1150.34950326162
44,104,1,51,0.5,-0.5,-0.5,4,4,0.2,4,598,1,1,598,0,0,0.2,NaN,-1.37321001087714,-1.37321001087714,750,1,0,congruent,0,3994.66244947474,5682.44125634948
44,104,1,52,-0.5,-0.5,0.5,1,2,0.2,1,820,1,0,820,0,0,0.2,0.4,0.435148573140354,0.435148573140354,750,0,0,incongruent,0,1406.51603669748,1565.25180945882
44,104,1,53,-0.5,0.5,0.5,4,1,0.2,4,885,1,0,885,0,0,0.2,0.2,0.964622933325655,0.964622933325655,750,0,0,incongruent,0,3359.94193690564,1726.1242238792
44,104,1,55,0.5,0.5,0,4,NaN,0.2,4,725,1,1,725,1,0,0,NaN,-0.338698568668933,-0.338698568668933,750,0,0,neutral,1,2023.63268392592,1323.83074113008
44,104,1,56,-0.5,-0.5,-0.5,3,3,0.4,3,912,1,0,912,0,0,0.4,0.4,1.18455843678724,1.18455843678724,750,1,0,congruent,0,1925.4816445537,2381.77832447746
44,104,1,57,0.5,0.5,-0.5,4,4,0.4,4,701,1,1,701,1,0,0.4,NaN,-0.534196793968121,-0.534196793968121,750,1,0,congruent,1,1682.04647628207,5718.24790209161
44,104,1,58,0.5,-0.5,0,3,NaN,0.6,3,943,1,0,943,0,0,0.8,NaN,1.43707697779869,1.43707697779869,750,0,0,neutral,0,4317.0371631383,803.840648190068
44,104,1,59,-0.5,-0.5,-0.5,2,2,0.6,1,927,0,0,NaN,0,0,0.8,0.2,1.30674482759923,NaN,750,0,1,congruent,0,9552.93437247222,1219.75055574988
44,104,1,60,-0.5,0.5,0,1,NaN,0.6,1,838,1,0,838,0,0,0.8,0.2,0.581772242114745,0.581772242114745,750,0,0,neutral,0,6369.28319090168,1467.02839186543
44,104,1,61,-0.5,-0.5,0.5,3,1,0.6,3,992,1,0,992,0,0,0.4,0,1.83621918778454,1.83621918778454,750,0,0,incongruent,0,4535.0611544062,1890.64071798224
44,104,1,62,0.5,-0.5,0.5,1,2,0.6,1,821,1,0,821,0,0,0.4,NaN,0.44329433252782,0.44329433252782,750,0,0,incongruent,0,6314.63642461613,3509.18493713851
44,104,1,63,-0.5,-0.5,-0.5,3,3,0.6,3,948,1,0,948,1,0,0,0,1.47780577473602,1.47780577473602,750,1,0,congruent,0.1,3755.79483914655,1797.12618712198
44,104,1,67,0.5,-0.5,0.5,1,3,0.6,1,686,1,1,686,0,0,0.6,NaN,-0.656383184780114,-0.656383184780114,750,0,0,incongruent,0,2889.22387997944,4587.49706371086
44,104,1,68,-0.5,-0.5,-0.5,2,2,0.6,3,975,0,0,NaN,0,0,0.6,0.4,1.69774127819761,NaN,750,0,1,congruent,0,5060.81466062119,4915.11737822459
44,104,1,69,-0.5,0.5,0,1,NaN,0.6,1,710,1,1,710,1,0,0.4,0.4,-0.460884959480926,-0.460884959480926,750,0,0,neutral,0.1,3187.51730268209,2495.29877348952
44,104,1,70,0.5,0.5,-0.5,3,3,0.8,3,857,1,0,857,0,0,0.4,NaN,0.736541670476602,0.736541670476602,750,1,0,congruent,0,2317.0189428512,5438.36338076795
44,104,1,71,-0.5,-0.5,-0.5,1,1,0.6,1,799,1,0,799,1,0,0.4,0.4,0.264087626003564,0.264087626003564,750,1,0,congruent,0.1,10805.6310418336,6503.36063176572
44,104,1,72,0.5,0.5,-0.5,4,4,0.6,4,931,1,0,931,0,0,0.4,NaN,1.3393278651491,1.3393278651491,750,1,0,congruent,0,1725.29959930436,9201.60058130453
44,104,1,74,-0.5,-0.5,0,4,NaN,0.4,4,730,1,1,730,1,0,0.6,0.8,-0.297969771731602,-0.297969771731602,750,0,0,neutral,0.1,5922.14514827488,7107.46887984812
44,104,1,76,-0.5,-0.5,0,1,NaN,0.4,1,905,1,0,905,0,0,0.6,0.8,1.12753812107498,1.12753812107498,750,0,0,neutral,0,1370.42476454774,1515.10212240909
44,104,1,77,0.5,0.5,-0.5,2,2,0.4,2,742,1,1,742,1,0,0.4,NaN,-0.200220659082008,-0.200220659082008,750,1,0,congruent,1,9993.4860473091,1609.02094009333
44,104,1,78,-0.5,-0.5,0,1,NaN,0.4,1,598,1,1,598,0,0,0.8,0.6,-1.37321001087714,-1.37321001087714,750,0,0,neutral,0,3190.11387522945,2950.78127945077
44,104,1,79,0.5,-0.5,-0.5,4,4,0.4,4,871,1,0,871,1,0,0.6,NaN,0.850582301901129,0.850582301901129,750,1,0,congruent,1,3178.25577114058,767.411910631767
44,104,1,80,0.5,0.5,0,2,NaN,0.4,2,875,1,0,875,0,0,0.8,NaN,0.883165339450993,0.883165339450993,750,0,0,neutral,0,2968.00447043037,2021.40238575129
44,104,1,81,-0.5,0.5,0.5,4,1,0.2,3,977,0,0,NaN,0,0,0.8,0.6,1.71403279697254,NaN,750,0,1,incongruent,0,2662.54731326426,1872.5093862365
44,104,1,82,0.5,0.5,-0.5,3,3,0.2,3,901,1,0,901,0,0,0.8,NaN,1.09495508352511,1.09495508352511,750,1,0,congruent,0,1227.54033860588,961.852098426796
44,104,1,83,0.5,-0.5,0,1,NaN,0.2,1,961,1,0,961,1,0,0.4,NaN,1.58370064677308,1.58370064677308,750,0,0,neutral,1,7538.88194660995,2643.52429746971
44,104,1,86,-0.5,0.5,0,2,NaN,0,2,835,1,0,835,0,0,0.4,0.4,0.557334963952346,0.557334963952346,750,0,0,neutral,0,8257.15606835412,7397.40934303645
44,104,1,87,0.5,0.5,-0.5,1,1,0,1,781,1,0,781,0,0,0.4,NaN,0.117463957029173,0.117463957029173,750,1,0,congruent,0,2614.68705556335,3818.51702826887
44,104,1,88,0.5,0.5,-0.5,4,4,0,3,897,0,0,NaN,0,0,0.4,NaN,1.06237204597525,NaN,750,0,1,congruent,0,2526.37171984423,1887.15675231433
44,104,1,89,0.5,-0.5,0,1,NaN,0,1,834,1,0,834,0,0,0,NaN,0.54918920456488,0.54918920456488,750,0,0,neutral,0,1764.03460099734,3826.42882911608
44,104,1,92,-0.5,0.5,-0.5,3,3,0,3,886,1,0,886,0,0,0,0.2,0.972768692713121,0.972768692713121,750,1,0,congruent,0,1002.75861501543,942.938785557809
44,104,1,98,0.5,0.5,0,1,NaN,0,1,592,1,1,592,1,0,0,NaN,-1.42208456720193,-1.42208456720193,750,0,0,neutral,1,2778.36852551889,2355.5962613349
44,104,1,99,-0.5,0.5,-0.5,2,2,0.2,2,704,1,1,704,1,0,0.4,0,-0.509759515805723,-0.509759515805723,750,1,0,congruent,0.1,3523.94397289748,1360.24517877518
44,104,1,100,-0.5,0.5,0,1,NaN,0.4,1,785,1,0,785,0,0,0.6,0.2,0.150046994579038,0.150046994579038,750,0,0,neutral,0,3371.37262940698,1775.01272349387
44,104,1,102,-0.5,-0.5,0.5,3,1,0.4,4,863,0,0,NaN,1,0,0.6,0.2,0.785416226801399,NaN,750,0,1,incongruent,0.1,5243.33613156442,2714.20831642673
44,104,1,103,0.5,0.5,-0.5,4,4,0.4,4,654,1,1,654,1,0,0.8,NaN,-0.917047485179032,-0.917047485179032,750,1,0,congruent,1,2084.0842086772,563.958947735236
44,104,1,104,0.5,0.5,0,2,NaN,0.6,1,640,0,1,NaN,0,0,0.8,NaN,-1.03108811660356,NaN,750,0,1,neutral,0,3392.37499120708,2434.51212153079
44,104,1,106,0.5,0.5,0.5,1,2,0.4,1,655,1,1,655,1,0,1,NaN,-0.908901725791565,-0.908901725791565,750,0,0,incongruent,1,3039.35185979245,3590.65067005466
44,104,1,107,0.5,0.5,0.5,3,1,0.4,3,790,1,0,790,0,0,1.4,NaN,0.190775791516368,0.190775791516368,750,0,0,incongruent,0,2376.44289649487,4672.82008966581
44,104,1,109,0.5,0.5,-0.5,3,3,0.4,3,772,1,0,772,0,0,0.8,NaN,0.0441521225419772,0.0441521225419772,750,1,0,congruent,0,3504.06225583063,1921.38700994307
44,104,1,110,0.5,0.5,-0.5,1,1,0.4,1,623,1,1,623,1,0,0.8,NaN,-1.16956602619048,-1.16956602619048,750,1,0,congruent,1,805.843124717331,3724.19603064721
44,104,1,111,-0.5,0.5,0,2,NaN,0.4,2,893,1,0,893,0,0,0.8,0.2,1.02978900842538,1.02978900842538,750,0,0,neutral,0,7139.10544199137,1716.79473831234
44,104,1,112,0.5,-0.5,-0.5,1,1,0.4,1,919,1,0,919,1,0,0.4,NaN,1.24157875249951,1.24157875249951,750,1,0,congruent,1,4013.96421822727,1789.3788658531
44,104,1,114,0.5,0.5,0,4,NaN,0.4,4,861,1,0,861,0,0,1,NaN,0.769124708026467,0.769124708026467,750,0,0,neutral,0,2695.32933419141,1948.11273020754
44,104,1,116,-0.5,-0.5,0.5,2,3,0.2,1,823,0,0,NaN,1,0,0.6,0.4,0.459585851302752,NaN,750,0,1,incongruent,0.1,10316.1554815097,3520.90323365583
44,104,1,117,-0.5,-0.5,0.5,3,2,0.2,3,983,1,0,983,0,0,0.8,0.6,1.76290735329734,1.76290735329734,750,0,0,incongruent,0,2174.6761852717,943.881299784671
44,104,1,119,0.5,0.5,-0.5,2,2,0.2,2,971,1,0,971,0,0,0.4,NaN,1.66515824064775,1.66515824064775,750,1,0,congruent,0,2395.49758970265,1370.28588279499
44,104,1,120,-0.5,0.5,0,4,NaN,0.2,3,808,0,0,NaN,0,0,0.4,0.2,0.33739946049076,NaN,750,0,1,neutral,0,1904.97613911632,2516.76169016173
44,104,1,121,0.5,-0.5,-0.5,2,2,0.2,2,684,1,1,684,0,0,0.4,NaN,-0.672674703555046,-0.672674703555046,750,1,0,congruent,0,2663.81275702038,2040.43032684248
44,104,1,123,0.5,0.5,-0.5,4,4,0,4,816,1,0,816,0,0,0.2,NaN,0.402565535590489,0.402565535590489,750,1,0,congruent,0,2344.28848079386,811.697151428025
44,104,1,127,0.5,0.5,-0.5,1,1,0,1,652,1,1,652,1,0,0,NaN,-0.933339003953964,-0.933339003953964,750,1,0,congruent,1,1641.47970754209,2418.31570894357
44,104,1,128,0.5,0.5,-0.5,4,4,0.2,3,782,0,0,NaN,0,0,0.4,NaN,0.125609716416639,NaN,750,0,1,congruent,0,3451.5002583712,1836.3585530877
44,104,1,129,0.5,0.5,0,1,NaN,0.2,1,717,1,1,717,1,0,0.4,NaN,-0.403864643768663,-0.403864643768663,750,0,0,neutral,1,3461.35342922161,1497.51825175841
44,104,1,130,0.5,-0.5,-0.5,2,2,0.4,2,657,1,1,657,1,0,0.8,NaN,-0.892610207016633,-0.892610207016633,750,1,0,congruent,1,1264.09204898037,1846.63583995463
44,104,1,131,-0.5,0.5,-0.5,1,1,0.4,1,587,1,1,587,1,0,1.2,0,-1.46281336413927,-1.46281336413927,750,1,0,congruent,0.1,7430.12117383355,1791.01436385265
44,104,1,132,0.5,0.5,-0.5,4,4,0.6,4,781,1,0,781,0,0,1.4,NaN,0.117463957029173,0.117463957029173,750,1,0,congruent,0,1550.59454385311,3348.06996537425
44,104,1,133,0.5,0.5,0.5,1,3,0.6,1,707,1,1,707,1,0,1,NaN,-0.485322237643324,-0.485322237643324,750,0,0,incongruent,1,1305.09351566845,4468.15615413838
44,104,1,134,0.5,-0.5,0.5,2,1,0.6,2,855,1,0,855,1,0,1.4,NaN,0.72025015170167,0.72025015170167,750,0,0,incongruent,1,2849.23884374043,1746.51654094402
44,104,1,135,0.5,0.5,0.5,1,4,0.6,1,627,1,1,627,1,0,1.4,NaN,-1.13698298864062,-1.13698298864062,750,0,0,incongruent,1,8527.95092890061,1416.57367240244
44,104,1,136,0.5,-0.5,0,2,NaN,0.8,2,767,1,0,767,1,0,1.4,NaN,0.00342332560464631,0.00342332560464631,750,0,0,neutral,1,2246.43577690331,2881.15255973937
44,104,1,137,-0.5,0.5,-0.5,4,4,0.8,4,824,1,0,824,0,0,1.6,0.2,0.467731610690218,0.467731610690218,750,1,0,congruent,0,1325.1863548289,13766.2593458658
44,104,1,138,0.5,-0.5,0,2,NaN,0.6,2,889,1,0,889,0,0,1.6,NaN,0.99720597087552,0.99720597087552,750,0,0,neutral,0,730.454091638152,914.224673080818
44,104,1,141,0.5,-0.5,-0.5,2,2,0.6,3,837,0,0,NaN,1,0,0.4,NaN,0.573626482727279,NaN,750,0,1,congruent,1,4816.61566223183,2315.32168185222
44,104,1,143,0.5,0.5,0.5,2,4,0.4,1,891,0,0,NaN,0,0,0.4,NaN,1.01349748965045,NaN,750,0,1,incongruent,0,8326.37580256788,1786.61810549136
44,104,1,144,0.5,-0.5,0,4,NaN,0.4,4,873,1,0,873,1,0,0.4,NaN,0.866873820676061,0.866873820676061,750,0,0,neutral,1,4467.33938273308,3866.77148078933
44,104,1,148,0.5,0.5,0.5,3,2,0.4,3,781,1,0,781,0,0,0.8,NaN,0.117463957029173,0.117463957029173,750,0,0,incongruent,0,5217.20899126057,6504.58341170498
44,104,1,150,0.5,-0.5,-0.5,4,4,0,4,848,1,0,848,0,0,0.4,NaN,0.663229835989407,0.663229835989407,750,1,0,congruent,0,5255.45951295241,1803.36084668842
44,104,2,152,-0.5,-0.5,0,1,NaN,0,1,606,1,1,606,0,0,0.4,0.4,-1.30804393577741,-1.30804393577741,750,0,0,neutral,0,752.007466394234,6762.74850923317
44,104,2,153,-0.5,0.5,-0.5,4,4,0,4,835,1,0,835,0,0,0,0.2,0.557334963952346,0.557334963952346,750,1,0,congruent,0,4360.84736806953,4797.55275429159
44,104,2,154,-0.5,-0.5,0,2,NaN,0,3,801,0,0,NaN,0,0,0,0.2,0.280379144778496,NaN,750,0,1,neutral,0,4417.53711553889,1502.68032104685
44,104,2,155,0.5,-0.5,-0.5,1,1,0,1,592,1,1,592,0,0,0,NaN,-1.42208456720193,-1.42208456720193,750,1,0,congruent,0,2187.95889664361,1620.03783960611
44,104,2,156,-0.5,0.5,0.5,2,3,0,2,814,1,0,814,0,0,0,0.2,0.386274016815557,0.386274016815557,750,0,0,incongruent,0,8978.13699772319,2905.70516756072
44,104,2,157,0.5,-0.5,0.5,1,4,0,1,713,1,1,713,0,0,0,NaN,-0.436447681318527,-0.436447681318527,750,0,0,incongruent,0,4335.99735475933,2208.07838073936
44,104,2,158,-0.5,0.5,0,2,NaN,0,2,843,1,0,843,0,0,0,0.2,0.622501039052076,0.622501039052076,750,0,0,neutral,0,6747.91645950275,3419.31219592675
44,104,2,160,-0.5,-0.5,-0.5,2,2,0.2,2,701,1,1,701,0,0,0.4,0.2,-0.534196793968121,-0.534196793968121,750,1,0,congruent,0,7344.13083806745,2396.14928193119
44,104,2,161,-0.5,0.5,0.5,1,4,0.2,1,564,1,1,564,1,0,0.4,0,-1.65016583005099,-1.65016583005099,750,0,0,incongruent,0.1,2436.76036202135,570.127314041393
44,104,2,162,-0.5,-0.5,0,3,NaN,0.4,3,817,1,0,817,1,0,0.6,0,0.410711294977955,0.410711294977955,750,0,0,neutral,0.1,6258.13002152626,3715.63259381959
44,104,2,163,0.5,-0.5,-0.5,4,4,0.4,4,807,1,0,807,0,0,0.8,NaN,0.329253701103293,0.329253701103293,750,1,0,congruent,0,3744.11015969132,7259.91445120358
44,104,2,164,-0.5,0.5,0,3,NaN,0.4,3,962,1,0,962,0,0,0.8,0.2,1.59184640616055,1.59184640616055,750,0,0,neutral,0,1951.84743584408,3278.49459900978
44,104,2,165,0.5,-0.5,-0.5,2,2,0.4,1,910,0,0,NaN,0,0,0.4,NaN,1.16826691801231,NaN,750,0,1,congruent,0,3899.75848313058,954.833759378604
44,104,2,166,-0.5,-0.5,0,4,NaN,0.4,4,848,1,0,848,1,0,0.4,0.2,0.663229835989407,0.663229835989407,750,0,0,neutral,0.1,1858.811733175,1144.02748168567
44,104,2,167,0.5,-0.5,0.5,3,2,0.4,3,863,1,0,863,0,0,0.4,NaN,0.785416226801399,0.785416226801399,750,0,0,incongruent,0,1667.61700577324,1268.41890247196
44,104,2,168,0.5,-0.5,0,1,NaN,0.4,1,671,1,1,671,0,0,0.2,NaN,-0.778569575592107,-0.778569575592107,750,0,0,neutral,0,4535.81707183737,2174.34623888373
44,104,2,169,-0.5,-0.5,-0.5,3,3,0.4,3,748,1,1,748,0,0,0.2,0.4,-0.151346102757211,-0.151346102757211,750,1,0,congruent,0,2907.29509269419,2253.17799686033
44,104,2,170,-0.5,0.5,0.5,4,1,0.4,4,646,1,1,646,1,0,0.2,0.2,-0.982213560278761,-0.982213560278761,750,0,0,incongruent,0.1,4087.31785546733,624.650063962242
44,104,2,172,0.5,-0.5,0.5,4,1,0.6,4,853,1,0,853,1,0,0.2,NaN,0.703958632926738,0.703958632926738,750,0,0,incongruent,1,7147.05127814095,2709.39283011432
44,104,2,174,-0.5,0.5,0,4,NaN,0.4,3,658,0,1,NaN,0,0,0.6,0.4,-0.884464447629167,NaN,750,0,1,neutral,0,2197.86291670525,1592.75024526118
44,104,2,175,-0.5,-0.5,0.5,1,2,0.2,1,784,1,0,784,1,0,0.6,0.4,0.141901235191571,0.141901235191571,750,0,0,incongruent,0.1,2012.28466200516,4138.72314514836
44,104,2,177,0.5,0.5,0.5,1,4,0.2,1,649,1,1,649,1,0,0.6,NaN,-0.957776282116363,-0.957776282116363,750,0,0,incongruent,1,4603.84470836421,8630.65535750142
44,104,2,179,-0.5,0.5,-0.5,1,1,0.2,1,736,1,1,736,1,0,0.6,0.4,-0.249095215406805,-0.249095215406805,750,1,0,congruent,0.1,3409.49828956076,2514.92219408676
44,104,2,181,0.5,-0.5,0.5,2,4,0.4,2,884,1,0,884,0,0,0.6,NaN,0.956477173938189,0.956477173938189,750,0,0,incongruent,0,6780.41324988682,1827.69602456673
44,104,2,182,0.5,-0.5,0.5,4,3,0.4,4,887,1,0,887,0,0,0.6,NaN,0.980914452100587,0.980914452100587,750,0,0,incongruent,0,818.136292067106,1793.71463042302
44,104,2,183,0.5,-0.5,-0.5,1,1,0.4,1,780,1,0,780,0,0,0.2,NaN,0.109318197641707,0.109318197641707,750,1,0,congruent,0,3726.70480930062,8123.61647468681
44,104,2,184,-0.5,0.5,-0.5,2,2,0.4,2,667,1,1,667,1,0,0.2,0.4,-0.811152613141971,-0.811152613141971,750,1,0,congruent,0.1,3505.21358432311,3039.6461217781
44,104,2,185,0.5,0.5,0.5,3,1,0.6,3,892,1,0,892,0,0,0.2,NaN,1.02164324903792,1.02164324903792,750,0,0,incongruent,0,2272.61407285422,2159.14133188704
44,104,2,187,0.5,-0.5,0,1,NaN,0.4,1,782,1,0,782,0,0,0.2,NaN,0.125609716416639,0.125609716416639,750,0,0,neutral,0,744.370326288403,884.50421973841
44,104,2,188,0.5,0.5,-0.5,2,2,0.4,2,737,1,1,737,1,0,0.2,NaN,-0.240949456019339,-0.240949456019339,750,1,0,congruent,1,3376.66888361265,1961.09071437643
44,104,2,189,0.5,-0.5,0,1,NaN,0.6,1,653,1,1,653,0,0,0.6,NaN,-0.925193244566498,-0.925193244566498,750,0,0,neutral,0,8215.70204639824,6152.43845995738
44,104,2,190,-0.5,0.5,-0.5,2,2,0.6,2,702,1,1,702,1,0,0.4,0.4,-0.526051034580655,-0.526051034580655,750,1,0,congruent,0.1,10709.3339001271,3298.84308744613
44,104,2,191,0.5,-0.5,0,1,NaN,0.6,1,599,1,1,599,0,0,0.6,NaN,-1.36506425148967,-1.36506425148967,750,0,0,neutral,0,2245.8869037946,3750.84760707881
44,104,2,192,-0.5,-0.5,0.5,2,1,0.6,2,863,1,0,863,0,0,0.6,0.4,0.785416226801399,0.785416226801399,750,0,0,incongruent,0,4025.11811165904,5101.0468160191
44,104,2,193,0.5,0.5,0.5,1,3,0.6,1,600,1,1,600,1,0,0.6,NaN,-1.35691849210221,-1.35691849210221,750,0,0,incongruent,1,3399.65848572141,3083.58578404878
44,104,2,194,-0.5,0.5,0,2,NaN,0.8,2,656,1,1,656,1,0,0.6,0.6,-0.900755966404099,-0.900755966404099,750,0,0,neutral,0.1,2453.41401182675,3874.41388076827
44,104,2,195,-0.5,0.5,0.5,4,2,0.8,4,984,1,0,984,0,0,0.8,0.8,1.77105311268481,1.77105311268481,750,0,0,incongruent,0,1923.89935950391,10893.762755809
44,104,2,196,0.5,0.5,0,3,NaN,0.8,3,824,1,0,824,0,0,0.6,NaN,0.467731610690218,0.467731610690218,750,0,0,neutral,0,8723.18399521587,8637.20147293009
44,104,2,198,0.5,0.5,0,3,NaN,0.4,3,752,1,0,752,0,0,0.6,NaN,-0.118763065207346,-0.118763065207346,750,0,0,neutral,0,9577.14732609571,3294.51602645241
44,104,2,199,-0.5,-0.5,-0.5,4,4,0.2,4,727,1,1,727,0,0,0.2,0.2,-0.322407049894001,-0.322407049894001,750,1,0,congruent,0,2677.15654326527,4573.1493766988
44,104,2,200,-0.5,0.5,-0.5,1,1,0.2,1,816,1,0,816,0,0,0,0.6,0.402565535590489,0.402565535590489,750,1,0,congruent,0,1264.4158674523,2027.7553018441
44,104,2,201,-0.5,0.5,0,3,NaN,0,3,821,1,0,821,0,0,0,0.6,0.44329433252782,0.44329433252782,750,0,0,neutral,0,16665.1166903676,2589.10166882972
44,104,2,202,-0.5,0.5,0.5,2,4,0,1,816,0,0,NaN,0,0,0,0.4,0.402565535590489,NaN,750,0,1,incongruent,0,4215.55248424605,4249.50310146401
44,104,2,204,0.5,-0.5,0,2,NaN,0,2,941,1,0,941,0,0,0,NaN,1.42078545902376,1.42078545902376,750,0,0,neutral,0,1545.71491978286,15800.377312596
44,104,2,206,-0.5,-0.5,0.5,2,3,0,2,893,1,0,893,0,0,0,0.2,1.02978900842538,1.02978900842538,750,0,0,incongruent,0,3456.89632303078,5444.97241732696
44,104,2,207,-0.5,0.5,0,4,NaN,0,3,827,0,0,NaN,0,0,0,0.2,0.492168888852617,NaN,750,0,1,neutral,0,1680.26602004857,4475.32858593586
44,104,2,208,-0.5,-0.5,-0.5,2,2,0,2,816,1,0,816,0,0,0,0,0.402565535590489,0.402565535590489,750,1,0,congruent,0,7713.49017056321,4391.55846619738
44,104,2,209,-0.5,-0.5,0.5,3,1,0,3,870,1,0,870,0,0,0,0,0.842436542513663,0.842436542513663,750,0,0,incongruent,0,986.114421565685,4166.09149279644
44,104,2,210,-0.5,-0.5,0,1,NaN,0,1,671,1,1,671,0,0,0,0,-0.778569575592107,-0.778569575592107,750,0,0,neutral,0,6219.34367094594,2315.19571569291
44,104,2,211,0.5,0.5,-0.5,2,2,0,2,665,1,1,665,1,0,0,NaN,-0.827444131916904,-0.827444131916904,750,1,0,congruent,1,14229.8674315708,7789.09657243758
44,104,2,212,0.5,-0.5,-0.5,1,1,0.2,1,765,1,0,765,1,0,0.4,NaN,-0.012868193170286,-0.012868193170286,750,1,0,congruent,1,666.642771545412,4559.95545523565
44,104,2,213,-0.5,0.5,0,4,NaN,0.2,4,935,1,0,935,0,0,0.8,0,1.37191090269896,1.37191090269896,750,0,0,neutral,0,1408.80964820615,4285.40696447129
44,104,2,215,0.5,0.5,-0.5,2,2,0.2,1,628,0,1,NaN,0,0,0.8,NaN,-1.12883722925315,NaN,750,0,1,congruent,0,5848.03964750919,2704.0878720917
44,104,2,216,0.5,0.5,0.5,4,1,0.2,4,910,1,0,910,0,0,0.8,NaN,1.16826691801231,1.16826691801231,750,0,0,incongruent,0,2291.88080253321,3072.83592484382
44,104,2,217,-0.5,0.5,0,2,NaN,0.2,2,689,1,1,689,1,0,0.4,0,-0.631945906617715,-0.631945906617715,750,0,0,neutral,0.1,5756.76933155561,7825.06358994853
44,104,2,218,0.5,-0.5,0.5,3,1,0.4,3,919,1,0,919,0,0,0.2,NaN,1.24157875249951,1.24157875249951,750,0,0,incongruent,0,2560.84169327189,1295.68725489198
44,104,2,219,-0.5,-0.5,0,1,NaN,0.4,1,995,1,0,995,0,0,0.2,0,1.86065646594693,1.86065646594693,750,0,0,neutral,0,1945.45160862293,4280.94534627203
44,104,2,220,-0.5,0.5,-0.5,2,2,0.4,2,731,1,1,731,1,0,0.2,0.2,-0.289824012344136,-0.289824012344136,750,1,0,congruent,0.1,3566.21310391939,3487.08861374576
44,104,2,221,0.5,0.5,0,3,NaN,0.4,3,753,1,0,753,0,0,0.4,NaN,-0.11061730581988,-0.11061730581988,750,0,0,neutral,0,12375.5379316647,3122.81056638784
44,104,2,222,-0.5,-0.5,-0.5,4,4,0.4,4,576,1,1,576,1,0,0.4,0,-1.55241671740139,-1.55241671740139,750,1,0,congruent,0.1,2203.38362806327,1641.70965111994
44,104,2,223,0.5,-0.5,0,1,NaN,0.4,1,627,1,1,627,1,0,0.4,NaN,-1.13698298864062,-1.13698298864062,750,0,0,neutral,1,1911.68723883826,4028.97186740275
44,104,2,224,-0.5,0.5,-0.5,2,2,0.4,2,732,1,1,732,1,0,0.8,0.4,-0.28167825295667,-0.28167825295667,750,1,0,congruent,0.1,1485.9239408078,3154.75667560624
44,104,2,225,-0.5,0.5,-0.5,4,4,0.6,3,899,0,0,NaN,0,0,1,0.6,1.07866356475018,NaN,750,0,1,congruent,0,5219.12249317764,1304.18628719813
44,104,2,228,-0.5,-0.5,-0.5,4,4,0.2,4,705,1,1,705,0,0,0.6,0.2,-0.501613756418257,-0.501613756418257,750,1,0,congruent,0,3443.53523133518,1385.90788048866
44,104,2,229,0.5,-0.5,0.5,1,2,0.2,1,657,1,1,657,0,0,0.2,NaN,-0.892610207016633,-0.892610207016633,750,0,0,incongruent,0,1549.97658643994,6033.66809979146
44,104,2,230,-0.5,-0.5,-0.5,3,3,0.2,3,859,1,0,859,1,0,0,0.2,0.752833189251535,0.752833189251535,750,1,0,congruent,0.1,577.160511823768,3355.65605141238
44,104,2,231,-0.5,-0.5,0.5,4,1,0.2,4,874,1,0,874,0,0,0.2,0.4,0.875019580063527,0.875019580063527,750,0,0,incongruent,0,1618.78551912351,11696.2582715481
44,104,2,232,-0.5,0.5,0.5,3,2,0.2,3,778,1,0,778,0,0,0.2,0.6,0.0930266788667743,0.0930266788667743,750,0,0,incongruent,0,3056.78327345155,2101.84144813597
44,104,2,233,-0.5,-0.5,0.5,4,3,0.2,4,645,1,1,645,0,0,0.2,0.4,-0.990359319666227,-0.990359319666227,750,0,0,incongruent,0,1439.99711544194,1217.34486067235
44,104,2,234,-0.5,-0.5,0,3,NaN,0.2,3,869,1,0,869,0,0,0.2,0.4,0.834290783126196,0.834290783126196,750,0,0,neutral,0,7362.96155000456,3420.4958374607
44,104,2,237,-0.5,-0.5,0.5,1,4,0,1,893,1,0,893,0,0,0,0.2,1.02978900842538,1.02978900842538,750,0,0,incongruent,0,1119.55484922488,2068.44150702746
44,104,2,238,0.5,0.5,0,2,NaN,0,2,800,1,0,800,0,0,0,NaN,0.27223338539103,0.27223338539103,750,0,0,neutral,0,10641.1904219663,818.699796713545
44,104,2,239,-0.5,-0.5,-0.5,1,1,0,1,641,1,1,641,0,0,0,0,-1.02294235721609,-1.02294235721609,750,1,0,congruent,0,7602.27041934608,2275.80980113431
44,104,2,240,0.5,0.5,0,4,NaN,0,3,998,0,0,NaN,0,0,0,NaN,1.88509374410933,NaN,750,0,1,neutral,0,3693.39089797152,2166.64828594876
44,104,2,244,0.5,-0.5,0.5,2,1,0,1,714,0,1,NaN,0,0,0,NaN,-0.428301921931061,NaN,750,1,0,incongruent,0,1311.14783762177,4252.28030947502
44,104,2,249,-0.5,-0.5,0,2,NaN,0.2,2,893,1,0,893,0,0,0.4,0,1.02978900842538,1.02978900842538,750,0,0,neutral,0,3605.74577623461,2278.79995004244
44,104,2,250,0.5,-0.5,-0.5,3,3,0.2,3,774,1,0,774,0,0,0.4,NaN,0.0604436413169096,0.0604436413169096,750,1,0,congruent,0,1950.22460595456,1108.33841327544
44,104,2,251,0.5,-0.5,-0.5,4,4,0.2,4,779,1,0,779,0,0,0.4,NaN,0.10117243825424,0.10117243825424,750,1,0,congruent,0,3696.71472461461,3986.89434881164
44,104,2,252,0.5,-0.5,0.5,1,2,0.2,1,815,1,0,815,0,0,0.4,NaN,0.394419776203023,0.394419776203023,750,0,0,incongruent,0,6778.23417550081,2881.64905142502
44,104,2,253,0.5,-0.5,0,3,NaN,0.2,3,816,1,0,816,0,0,0.4,NaN,0.402565535590489,0.402565535590489,750,0,0,neutral,0,3735.9307224445,2519.57086816458
44,104,2,254,-0.5,0.5,-0.5,4,4,0.2,4,693,1,1,693,1,0,0,0,-0.599362869067851,-0.599362869067851,750,1,0,congruent,0.1,1080.32629221148,1225.13939820325
44,104,2,255,-0.5,0.5,0,2,NaN,0.4,2,842,1,0,842,0,0,0.2,0.2,0.61435527966461,0.61435527966461,750,0,0,neutral,0,8286.67331166515,2277.19322730567
44,104,2,256,0.5,0.5,0.5,1,4,0.4,1,810,1,0,810,0,0,0.2,NaN,0.353690979265692,0.353690979265692,750,0,0,incongruent,0,2013.31203682024,4432.12025868307
44,104,2,257,-0.5,0.5,0.5,2,1,0.4,2,917,1,0,917,0,0,0.2,0.2,1.22528723372457,1.22528723372457,750,0,0,incongruent,0,7010.66900767576,5159.038994139
44,104,2,259,-0.5,0.5,-0.5,2,2,0.2,2,862,1,0,862,0,0,0.2,0.2,0.777270467413933,0.777270467413933,750,1,0,congruent,0,2858.81721782398,2844.19707251281
44,104,2,260,-0.5,0.5,-0.5,1,1,0,1,592,1,1,592,1,0,0,0.2,-1.42208456720193,-1.42208456720193,750,1,0,congruent,0.1,1055.41753795798,2833.45409664017
44,104,2,261,-0.5,-0.5,0,2,NaN,0.2,2,845,1,0,845,1,0,0.2,0,0.638792557827008,0.638792557827008,750,0,0,neutral,0.1,27690.992753101,4125.79945522556
44,104,2,262,0.5,0.5,0.5,1,2,0.2,1,635,1,1,635,1,0,0.4,NaN,-1.07181691354089,-1.07181691354089,750,0,0,incongruent,1,1101.53631472273,1860.03776190895
44,104,2,263,-0.5,0.5,0.5,3,4,0.4,3,861,1,0,861,0,0,0.8,0.4,0.769124708026467,0.769124708026467,750,0,0,incongruent,0,6884.51416896966,5210.64099604149
44,104,2,264,-0.5,0.5,-0.5,2,2,0.4,2,994,1,0,994,0,0,0.8,0.2,1.85251070655947,1.85251070655947,750,1,0,congruent,0,12233.5453725029,4445.34314069621
44,104,2,265,-0.5,0.5,-0.5,4,4,0.4,4,868,1,0,868,0,0,0.8,0.2,0.82614502373873,0.82614502373873,750,1,0,congruent,0,1445.29565670371,3152.79612079085
44,104,2,266,0.5,-0.5,-0.5,1,1,0.4,1,551,1,1,551,0,0,0.6,NaN,-1.75606070208805,-1.75606070208805,750,1,0,congruent,0,9599.67434841898,8398.96590679142
44,104,2,267,0.5,-0.5,0.5,2,3,0.4,2,866,1,0,866,0,0,0.4,NaN,0.809853504963798,0.809853504963798,750,0,0,incongruent,0,4457.50286729911,6791.76369507082
44,104,2,268,0.5,-0.5,0,1,NaN,0.4,1,639,1,1,639,0,0,0,NaN,-1.03923387599102,-1.03923387599102,750,0,0,neutral,0,722.210259073071,6735.52439900035
44,104,2,269,0.5,0.5,-0.5,4,4,0.4,4,799,1,0,799,0,0,0,NaN,0.264087626003564,0.264087626003564,750,1,0,congruent,0,1679.36677554176,9041.6007816137
44,104,2,270,-0.5,0.5,0,1,NaN,0.2,1,704,1,1,704,1,0,0,0.2,-0.509759515805723,-0.509759515805723,750,0,0,neutral,0.1,3008.55292780159,4255.26353827744
44,104,2,271,0.5,-0.5,0.5,3,1,0.2,3,955,1,0,955,0,0,0.2,NaN,1.53482609044829,1.53482609044829,750,0,0,incongruent,0,1078.70046818372,1388.81021014854
44,104,2,272,0.5,0.5,-0.5,2,2,0.2,2,710,1,1,710,1,0,0.2,NaN,-0.460884959480926,-0.460884959480926,750,1,0,congruent,1,4089.70627433398,2489.39319240276
44,104,2,273,-0.5,-0.5,0,1,NaN,0.4,1,593,1,1,593,0,0,0.6,0.2,-1.41393880781447,-1.41393880781447,750,0,0,neutral,0,10879.7377530801,2012.69482006782
44,104,2,275,-0.5,0.5,-0.5,1,1,0.4,1,686,1,1,686,1,0,0.8,0.4,-0.656383184780114,-0.656383184780114,750,1,0,congruent,0.1,2637.12731204134,4013.5676354174
44,104,2,276,-0.5,0.5,0,3,NaN,0.6,3,841,1,0,841,0,0,0.8,0.4,0.606209520277143,0.606209520277143,750,0,0,neutral,0,6990.29207587716,1836.90353511833
44,104,2,278,0.5,0.5,0,1,NaN,0.6,1,681,1,1,681,1,0,0.4,NaN,-0.697111981717445,-0.697111981717445,750,0,0,neutral,1,2831.75486335766,3450.97241073528
44,104,2,279,-0.5,-0.5,-0.5,2,2,0.8,2,721,1,1,721,1,0,0.8,0.4,-0.371281606218798,-0.371281606218798,750,1,0,congruent,0.1,1491.42351357987,1674.41281560339
44,104,2,280,0.5,0.5,0,4,NaN,0.8,4,726,1,1,726,1,0,0.8,NaN,-0.330552809281467,-0.330552809281467,750,0,0,neutral,1,2100.50265499559,1639.05776542895
44,104,2,283,0.5,-0.5,0.5,1,3,0.6,1,784,1,0,784,0,0,1.4,NaN,0.141901235191571,0.141901235191571,750,0,0,incongruent,0,2287.75675740331,4080.25844516406
44,104,2,284,-0.5,-0.5,0.5,3,2,0.6,2,746,0,1,NaN,1,0,1,0.6,-0.167637621532143,NaN,750,1,0,incongruent,0.1,3873.11084707876,1228.82155677573
44,104,2,285,0.5,0.5,-0.5,1,1,0.6,1,659,1,1,659,1,0,1,NaN,-0.876318688241701,-0.876318688241701,750,1,0,congruent,1,2712.32441198553,2915.24161429389
44,104,2,290,0.5,0.5,0,2,NaN,0.4,3,855,0,0,NaN,0,0,0.4,NaN,0.72025015170167,NaN,750,0,1,neutral,0,1342.28299614004,1125.46940289833
44,104,2,291,0.5,-0.5,0.5,1,3,0.2,1,779,1,0,779,0,0,0,NaN,0.10117243825424,0.10117243825424,750,0,0,incongruent,0,3486.41469333107,2729.69692834038
44,104,2,292,-0.5,0.5,-0.5,2,2,0.2,2,913,1,0,913,0,0,0,0.4,1.19270419617471,1.19270419617471,750,1,0,congruent,0,6484.72884203558,721.272224188244
44,104,2,293,-0.5,0.5,0.5,3,1,0.2,3,893,1,0,893,0,0,0,0.4,1.02978900842538,1.02978900842538,750,0,0,incongruent,0,2163.86216287147,4574.93565853681
44,104,2,295,0.5,-0.5,0.5,2,3,0,3,864,0,0,NaN,0,0,0,NaN,0.793561986188865,NaN,750,1,0,incongruent,0,6382.9767598353,5204.77062574683
44,104,2,296,-0.5,0.5,-0.5,4,4,0,4,710,1,1,710,1,0,0,0.2,-0.460884959480926,-0.460884959480926,750,1,0,congruent,0.1,2567.16759428144,2130.02075701175
44,104,2,298,0.5,-0.5,0,3,NaN,0.4,3,622,1,1,622,1,0,0.4,NaN,-1.17771178557795,-1.17771178557795,750,0,0,neutral,1,4478.28517622214,9457.71641796271
44,104,2,299,0.5,-0.5,-0.5,1,1,0.4,1,719,1,1,719,1,0,0.8,NaN,-0.38757312499373,-0.38757312499373,750,1,0,congruent,1,789.401297340152,1461.6956021831
44,104,3,302,-0.5,-0.5,0.5,2,1,0.4,1,793,0,0,NaN,0,0,1.4,0.8,0.215213069678767,NaN,750,1,0,incongruent,0,4583.11929915568,5112.12880850252
44,104,3,303,-0.5,0.5,0.5,4,3,0.4,4,885,1,0,885,0,0,1.2,0.4,0.964622933325655,0.964622933325655,750,0,0,incongruent,0,3474.64105196901,1954.95904013944
44,104,3,304,0.5,0.5,-0.5,1,1,0.4,1,601,1,1,601,1,0,0.8,NaN,-1.34877273271474,-1.34877273271474,750,1,0,congruent,1,2641.38983123109,3690.01481364623
44,104,3,305,-0.5,0.5,0,4,NaN,0.6,4,837,1,0,837,0,0,0.8,0.4,0.573626482727279,0.573626482727279,750,0,0,neutral,0,3460.70067245603,1055.27018551151
44,104,3,306,0.5,-0.5,-0.5,3,3,0.4,3,755,1,0,755,1,0,0.4,NaN,-0.0943257870449478,-0.0943257870449478,750,1,0,congruent,1,5888.4045573315,1533.75037553287
44,104,3,308,0.5,-0.5,-0.5,1,1,0.4,1,676,1,1,676,1,0,0.8,NaN,-0.737840778654776,-0.737840778654776,750,1,0,congruent,1,5256.91418792514,5868.84047813193
44,104,3,311,-0.5,-0.5,-0.5,4,4,0.2,4,568,1,1,568,0,0,0.8,0.6,-1.61758279250112,-1.61758279250112,750,1,0,congruent,0,7335.36458272483,6147.31941030497
44,104,3,312,-0.5,-0.5,0.5,2,1,0.2,2,774,1,0,774,0,0,0.4,0.4,0.0604436413169096,0.0604436413169096,750,0,0,incongruent,0,376.42116678199,1422.14838005761
44,104,3,314,0.5,0.5,0.5,2,3,0.2,1,787,0,0,NaN,0,0,0.2,NaN,0.16633851335397,NaN,750,0,1,incongruent,0,17144.0872599422,3807.105966313
44,104,3,317,0.5,0.5,0.5,4,2,0,4,780,1,0,780,0,0,0.2,NaN,0.109318197641707,0.109318197641707,750,0,0,incongruent,0,10747.7518075201,1090.98114546476
44,104,3,318,-0.5,0.5,0.5,1,3,0,1,613,1,1,613,1,0,0.2,0,-1.25102362006515,-1.25102362006515,750,0,0,incongruent,0.1,3292.55144979418,986.897061649236
44,104,3,319,0.5,0.5,-0.5,4,4,0.2,4,718,1,1,718,1,0,0.2,NaN,-0.395718884381196,-0.395718884381196,750,1,0,congruent,1,1940.19410842444,2546.77777511239
44,104,3,320,0.5,-0.5,0,3,NaN,0.4,2,756,0,0,NaN,0,0,0.6,NaN,-0.0861800276574816,NaN,750,0,1,neutral,0,1737.86751931325,3069.81091934221
44,104,3,321,-0.5,-0.5,-0.5,1,1,0.4,1,508,1,1,508,1,0,0.6,0.2,-2.10632835574909,-2.10632835574909,750,1,0,congruent,0.1,5499.81019718017,2682.55538621568
44,104,3,322,0.5,-0.5,-0.5,2,2,0.4,2,935,1,0,935,0,0,0.8,NaN,1.37191090269896,1.37191090269896,750,1,0,congruent,0,6177.926582836,5855.57189559199
44,104,3,323,-0.5,-0.5,0,1,NaN,0.4,1,472,1,1,472,1,0,0.8,0.4,-2.39957569369788,-2.39957569369788,750,0,0,neutral,0.1,1851.98608459872,3811.60638015148
44,104,3,324,0.5,-0.5,-0.5,3,3,0.4,2,701,0,1,NaN,1,0,0.8,NaN,-0.534196793968121,NaN,750,0,1,congruent,1,13148.3281717017,5072.95420494318
44,104,3,325,-0.5,0.5,0,4,NaN,0.4,4,627,1,1,627,1,0,0.8,0.2,-1.13698298864062,-1.13698298864062,750,0,0,neutral,0.1,7277.26352804867,4118.0192783434
44,104,3,326,-0.5,0.5,-0.5,3,3,0.6,3,995,1,0,995,0,0,1,0.4,1.86065646594693,1.86065646594693,750,1,0,congruent,0,13815.6325310326,4843.68243331088
44,104,3,327,0.5,0.5,0,2,NaN,0.6,2,819,1,0,819,0,0,0.8,NaN,0.427002813752888,0.427002813752888,750,0,0,neutral,0,752.836997869023,8625.90025915218
44,104,3,328,0.5,-0.5,-0.5,1,1,0.6,1,552,1,1,552,0,0,0.8,NaN,-1.74791494270058,-1.74791494270058,750,1,0,congruent,0,5315.63624280046,1931.9831678952
44,104,3,329,0.5,0.5,-0.5,3,3,0.6,3,801,1,0,801,0,0,0.6,NaN,0.280379144778496,0.280379144778496,750,1,0,congruent,0,2146.70337166358,9963.93197484998
44,104,3,330,-0.5,-0.5,0,2,NaN,0.4,1,932,0,0,NaN,0,0,0.2,0.6,1.34747362453657,NaN,750,0,1,neutral,0,6745.4286033739,2033.10738076757
44,104,3,336,0.5,0.5,-0.5,4,4,0,4,792,1,0,792,0,0,0.2,NaN,0.207067310291301,0.207067310291301,750,1,0,congruent,0,2696.21421080077,4512.012234842
44,104,3,338,0.5,-0.5,0.5,3,1,0,3,960,1,0,960,0,0,0,NaN,1.57555488738562,1.57555488738562,750,0,0,incongruent,0,3148.58052327276,3662.72350269236
44,104,3,339,0.5,0.5,-0.5,2,2,0,3,790,0,0,NaN,0,0,0,NaN,0.190775791516368,NaN,750,0,1,congruent,0,2187.91541488521,2752.45811336287
44,104,3,340,0.5,-0.5,-0.5,1,1,0,1,712,1,1,712,0,0,0,NaN,-0.444593440705993,-0.444593440705993,750,1,0,congruent,0,2558.29162859118,3422.30649281009
44,104,3,341,-0.5,-0.5,0.5,3,4,0,4,753,0,0,NaN,0,0,0,0.4,-0.11061730581988,NaN,750,1,0,incongruent,0,4064.35921230638,3689.86169086518
44,104,3,342,-0.5,-0.5,-0.5,1,1,0,1,493,1,1,493,0,0,0,0.2,-2.22851474656109,-2.22851474656109,750,1,0,congruent,0,2880.33016833264,3185.17322764615
44,104,3,343,0.5,-0.5,0,3,NaN,0,3,921,1,0,921,0,0,0,NaN,1.25787027127444,1.25787027127444,750,0,0,neutral,0,2846.58277489235,6835.74152575931
44,104,3,344,0.5,0.5,-0.5,1,1,0,1,784,1,0,784,0,0,0,NaN,0.141901235191571,0.141901235191571,750,1,0,congruent,0,671.26439999415,2205.02856997494
44,104,3,349,-0.5,-0.5,0.5,3,1,0,3,717,1,1,717,0,0,0,0,-0.403864643768663,-0.403864643768663,750,0,0,incongruent,0,2425.12200448894,17062.0063892167
44,104,3,350,0.5,0.5,0.5,1,4,0,1,779,1,0,779,0,0,0,NaN,0.10117243825424,0.10117243825424,750,0,0,incongruent,0,4582.67603775334,1607.00722985815
44,104,3,351,0.5,0.5,0,3,NaN,0,3,726,1,1,726,1,0,0,NaN,-0.330552809281467,-0.330552809281467,750,0,0,neutral,1,2025.49162142472,569.402718317949
44,104,3,352,0.5,-0.5,-0.5,1,1,0.2,1,716,1,1,716,1,0,0.4,NaN,-0.412010403156129,-0.412010403156129,750,1,0,congruent,1,2883.74738377622,2793.13220009158
44,104,3,354,0.5,0.5,0.5,1,3,0.2,1,561,1,1,561,1,0,0.8,NaN,-1.67460310821339,-1.67460310821339,750,0,0,incongruent,1,2277.04988430429,1335.98630841447
44,104,3,355,-0.5,0.5,0.5,4,1,0.4,4,855,1,0,855,0,0,1.2,0.4,0.72025015170167,0.72025015170167,750,0,0,incongruent,0,6823.44267842329,3205.35882328347
44,104,3,357,-0.5,0.5,0.5,4,2,0.4,4,827,1,0,827,0,0,0.8,0.2,0.492168888852617,0.492168888852617,750,0,0,incongruent,0,10224.2797460261,16267.3031475795
44,104,3,359,0.5,-0.5,-0.5,2,2,0.6,2,825,1,0,825,1,0,0.8,NaN,0.475877370077685,0.475877370077685,750,1,0,congruent,1,1721.60398344116,3798.4510078785
44,104,3,360,-0.5,-0.5,0,1,NaN,0.6,1,617,1,1,617,1,0,0.8,0,-1.21844058251528,-1.21844058251528,750,0,0,neutral,0.1,1020.47468033358,2201.24422998585
44,104,3,361,-0.5,0.5,-0.5,2,2,0.6,2,597,1,1,597,1,0,1,0,-1.3813557702646,-1.3813557702646,750,1,0,congruent,0.1,873.85091061208,2763.91569935206
44,104,3,363,-0.5,-0.5,0,2,NaN,0.4,2,974,1,0,974,1,0,1.2,0.2,1.68959551881014,1.68959551881014,750,0,0,neutral,0.1,2864.44022078946,1716.78660880894
44,104,3,364,0.5,-0.5,-0.5,4,4,0.4,4,776,1,0,776,0,0,1,NaN,0.0767351600918419,0.0767351600918419,750,1,0,congruent,0,3521.75782661735,1619.26337083988
44,104,3,365,0.5,0.5,0,1,NaN,0.4,1,529,1,1,529,1,0,0.6,NaN,-1.9352674086123,-1.9352674086123,750,0,0,neutral,1,1853.95284359777,5216.00787596943
44,104,3,367,-0.5,-0.5,-0.5,1,1,0.6,1,667,1,1,667,1,0,0.6,0.4,-0.811152613141971,-0.811152613141971,750,1,0,congruent,0.1,3357.41844504192,1974.15749723014
44,104,3,368,0.5,-0.5,-0.5,2,2,0.6,2,717,1,1,717,1,0,0.8,NaN,-0.403864643768663,-0.403864643768663,750,1,0,congruent,1,2844.0812146326,5702.84567088395
44,104,3,369,-0.5,-0.5,0.5,4,3,0.6,4,608,1,1,608,0,0,1,0.6,-1.29175241700248,-1.29175241700248,750,0,0,incongruent,0,4970.75158277678,7915.09682745753
44,104,3,370,-0.5,-0.5,0,2,NaN,0.6,1,643,0,1,NaN,1,0,1,0.6,-1.00665083844116,NaN,750,0,1,neutral,0.1,618.592065173679,2322.17171042297
44,104,3,371,0.5,-0.5,-0.5,1,1,0.6,1,625,1,1,625,1,0,0.8,NaN,-1.15327450741555,-1.15327450741555,750,1,0,congruent,1,2437.7619592467,4886.36913425985
44,104,3,373,-0.5,-0.5,-0.5,3,3,0.6,4,791,0,0,NaN,0,0,1,0.6,0.198921550903835,NaN,750,0,1,congruent,0,3044.25521682076,2072.24342953505
44,104,3,374,0.5,-0.5,0,1,NaN,0.6,1,836,1,0,836,1,0,0.6,NaN,0.565480723339812,0.565480723339812,750,0,0,neutral,1,4173.17524529068,1315.59987719298
44,104,3,375,-0.5,0.5,0.5,3,4,0.6,3,898,1,0,898,0,0,1,0.2,1.07051780536272,1.07051780536272,750,0,0,incongruent,0,1451.46134621779,1216.54140448736
44,104,3,377,0.5,-0.5,-0.5,2,2,0.2,2,918,1,0,918,1,0,0.4,NaN,1.23343299311204,1.23343299311204,750,1,0,congruent,1,4276.29529073113,1983.43703007601
44,104,3,378,0.5,-0.5,0.5,1,3,0.2,1,788,1,0,788,0,0,0.8,NaN,0.174484272741436,0.174484272741436,750,0,0,incongruent,0,1092.9089111067,2111.72667967798
44,104,3,380,0.5,-0.5,0,2,NaN,0.2,2,853,1,0,853,0,0,0.4,NaN,0.703958632926738,0.703958632926738,750,0,0,neutral,0,5180.90241589358,2308.06198847849
44,104,3,382,0.5,-0.5,-0.5,1,1,0,1,941,1,0,941,0,0,0.4,NaN,1.42078545902376,1.42078545902376,750,1,0,congruent,0,3191.68533647663,5598.45781289719
44,104,3,383,-0.5,0.5,0.5,3,4,0,4,856,0,0,NaN,0,0,0,0.2,0.728395911089136,NaN,750,1,0,incongruent,0,5311.23634029153,2040.89882957874
44,104,3,384,-0.5,0.5,0,1,NaN,0,1,745,1,1,745,1,0,0,0,-0.17578338091961,-0.17578338091961,750,0,0,neutral,0.1,2545.9203963236,1933.38217017433
44,104,3,386,0.5,-0.5,0,2,NaN,0.2,1,974,0,0,NaN,0,0,0.2,NaN,1.68959551881014,NaN,750,0,1,neutral,0,5774.09075678997,1195.03882659729
44,104,3,391,-0.5,0.5,-0.5,1,1,0.2,1,938,1,0,938,0,0,0,0.2,1.39634818086136,1.39634818086136,750,1,0,congruent,0,4601.7261403626,2262.1386390915
44,104,3,392,-0.5,0.5,0.5,3,2,0.2,4,708,0,1,NaN,0,0,0,0.2,-0.477176478255858,NaN,750,0,1,incongruent,0,1343.81453686282,1336.02695024707
44,104,3,393,-0.5,-0.5,0,2,NaN,0,2,923,1,0,923,0,0,0,0.2,1.27416179004937,1.27416179004937,750,0,0,neutral,0,1946.32719770889,5064.73471887398
44,104,3,395,-0.5,-0.5,-0.5,1,1,0,1,552,1,1,552,0,0,0,0.2,-1.74791494270058,-1.74791494270058,750,1,0,congruent,0,4322.21720930485,3684.74253130461
44,104,3,397,0.5,-0.5,-0.5,1,1,0,1,593,1,1,593,0,0,0,NaN,-1.41393880781447,-1.41393880781447,750,1,0,congruent,0,2220.97779610381,2946.78212813702
44,104,3,398,-0.5,0.5,0,3,NaN,0,4,945,0,0,NaN,0,0,0,0,1.45336849657363,NaN,750,0,1,neutral,0,3129.4576279798,3956.32574318769
44,104,3,399,-0.5,0.5,-0.5,1,1,0,1,831,1,0,831,0,0,0,0,0.524751926402482,0.524751926402482,750,1,0,congruent,0,16805.5357432015,3533.54000350705
44,104,3,401,0.5,0.5,0.5,3,1,0,4,707,0,1,NaN,0,0,0,NaN,-0.485322237643324,NaN,750,0,1,incongruent,0,7204.97701757736,4680.05562572096
44,104,3,404,-0.5,0.5,0.5,2,4,0,4,781,0,0,NaN,0,0,0,0,0.117463957029173,NaN,750,1,0,incongruent,0,15654.3953858784,2985.84057487157
44,104,3,405,-0.5,0.5,0,1,NaN,0,1,789,1,0,789,0,0,0,0,0.182630032128902,0.182630032128902,750,0,0,neutral,0,2655.94879880899,3894.14538926798
44,104,3,406,0.5,-0.5,-0.5,2,2,0,2,717,1,1,717,0,0,0,NaN,-0.403864643768663,-0.403864643768663,750,1,0,congruent,0,2959.9504157256,678.983443574286
44,104,3,409,0.5,-0.5,-0.5,3,3,0.2,4,971,0,0,NaN,0,0,0.2,NaN,1.66515824064775,NaN,750,0,1,congruent,0,2177.48731999298,2393.13504350261
44,104,3,411,-0.5,-0.5,0,1,NaN,0.2,1,645,1,1,645,0,0,0.2,0,-0.990359319666227,-0.990359319666227,750,0,0,neutral,0,2359.25147044877,1409.19378249769
44,104,3,412,0.5,0.5,-0.5,2,2,0.2,2,877,1,0,877,0,0,0.2,NaN,0.899456858225926,0.899456858225926,750,1,0,congruent,0,4003.7792849605,1140.09256351867
44,104,3,414,0.5,0.5,0,3,NaN,0.2,4,967,0,0,NaN,0,0,0,NaN,1.63257520309788,NaN,750,0,1,neutral,0,1205.51867335613,3358.91075579808
44,104,3,415,0.5,-0.5,-0.5,2,2,0.2,2,948,1,0,948,0,0,0,NaN,1.47780577473602,1.47780577473602,750,1,0,congruent,0,11175.7752633087,3951.99848873835
44,104,3,416,0.5,-0.5,0.5,3,1,0.2,4,871,0,0,NaN,1,0,0,NaN,0.850582301901129,NaN,750,0,1,incongruent,1,1298.03402826985,3769.01272121554
44,104,3,418,-0.5,0.5,0.5,1,3,0.2,1,841,1,0,841,0,0,0.8,0.2,0.606209520277143,0.606209520277143,750,0,0,incongruent,0,1332.76563239692,2729.88408769716
44,104,3,420,-0.5,0.5,0,1,NaN,0.2,1,574,1,1,574,1,0,0.8,0.2,-1.56870823617633,-1.56870823617633,750,0,0,neutral,0.1,4032.21493536132,2123.53261063173
44,104,3,424,0.5,0.5,0.5,2,1,0.2,4,930,0,0,NaN,0,0,0.4,NaN,1.33118210576163,NaN,750,0,1,incongruent,0,3974.70868964387,1754.82719431146
44,104,3,426,-0.5,0.5,-0.5,3,3,0.2,4,854,0,0,NaN,0,0,0.4,0.2,0.712104392314204,NaN,750,0,1,congruent,0,2155.64380361222,1795.86364057793
44,104,3,427,-0.5,-0.5,0.5,1,2,0.2,1,673,1,1,673,1,0,0.4,0.4,-0.762278056817174,-0.762278056817174,750,0,0,incongruent,0.1,936.887826842624,909.314394139904
44,104,3,429,-0.5,0.5,0,3,NaN,0.2,4,728,0,1,NaN,0,0,0.4,0.2,-0.314261290506535,NaN,750,0,1,neutral,0,6681.33159685803,8419.72995185282
44,104,3,430,0.5,-0.5,-0.5,2,2,0,2,865,1,0,865,0,0,0.4,NaN,0.801707745576332,0.801707745576332,750,1,0,congruent,0,1783.4927798376,13597.4557977345
44,104,3,432,0.5,-0.5,-0.5,3,3,0,4,857,0,0,NaN,0,0,0.2,NaN,0.736541670476602,NaN,750,0,1,congruent,0,1571.41948350412,2959.19634816968
44,104,3,435,-0.5,0.5,0,3,NaN,0,4,789,0,0,NaN,0,0,0,0.2,0.182630032128902,NaN,750,0,1,neutral,0,19816.8279859517,5461.67067184863
44,104,3,437,-0.5,0.5,-0.5,3,3,0,4,748,0,1,NaN,0,0,0,0,-0.151346102757211,NaN,750,0,1,congruent,0,2504.37726540002,1852.05619458864
44,104,3,438,0.5,0.5,-0.5,1,1,0,1,645,1,1,645,1,0,0,NaN,-0.990359319666227,-0.990359319666227,750,1,0,congruent,1,2553.7717015243,4424.80544121001
44,104,3,441,-0.5,0.5,0,3,NaN,0.2,4,802,0,0,NaN,0,0,0.6,0,0.288524904165962,NaN,750,0,1,neutral,0,5206.90536026078,2870.39139958904
44,104,3,442,-0.5,-0.5,-0.5,2,2,0.2,2,750,1,1,750,0,0,0.6,0.4,-0.135054583982279,-0.135054583982279,750,1,0,congruent,0,2589.48022210352,1437.97431589211
44,104,3,443,-0.5,0.5,0.5,3,1,0.2,4,852,0,0,NaN,0,0,0.6,0,0.695812873539271,NaN,750,0,1,incongruent,0,2231.67526690428,10434.8468485814
44,104,3,446,-0.5,0.5,0.5,3,2,0.2,4,878,0,0,NaN,0,0,0.4,0,0.907602617613392,NaN,750,0,1,incongruent,0,1835.67060317745,1023.60462184442
44,104,3,447,0.5,-0.5,0.5,1,3,0.2,1,929,1,0,929,0,0,0.4,NaN,1.32303634637417,1.32303634637417,750,0,0,incongruent,0,4013.14839701258,5529.44381488298
44,104,3,448,0.5,-0.5,0,3,NaN,0.2,4,688,0,1,NaN,0,0,0.4,NaN,-0.640091666005182,NaN,750,0,1,neutral,0,5166.12785489295,1589.98000677172
44,104,3,449,-0.5,-0.5,0.5,2,3,0.2,1,655,0,1,NaN,0,0,0.4,0.2,-0.908901725791565,NaN,750,0,1,incongruent,0,4696.46420661199,1418.52387190976
44,104,3,450,0.5,0.5,-0.5,1,1,0.2,1,813,1,0,813,0,0,0.4,NaN,0.37812825742809,0.37812825742809,750,1,0,congruent,0,3686.36040843439,3630.94951767668
44,104,4,452,-0.5,0.5,-0.5,2,2,0,1,700,0,1,NaN,0,0,0,0,-0.542342553355588,NaN,750,0,1,congruent,0,4367.15373558628,10123.4513625242
44,104,4,453,0.5,-0.5,0.5,1,3,0,1,578,1,1,578,0,0,0,NaN,-1.53612519862646,-1.53612519862646,750,0,0,incongruent,0,2629.08885950764,304.82523435557
44,104,4,454,-0.5,-0.5,0,3,NaN,0,3,819,1,0,819,0,0,0,0.2,0.427002813752888,0.427002813752888,750,0,0,neutral,0,9454.19352135861,2786.09540919216
44,104,4,456,0.5,0.5,0.5,3,4,0,3,905,1,0,905,0,0,0,NaN,1.12753812107498,1.12753812107498,750,0,0,incongruent,0,4674.33864345274,3540.96875808221
44,104,4,460,-0.5,-0.5,-0.5,3,3,0,3,726,1,1,726,0,0,0,0.2,-0.330552809281467,-0.330552809281467,750,1,0,congruent,0,8833.55051997083,3068.16771435087
44,104,4,462,0.5,-0.5,0.5,1,2,0,1,559,1,1,559,0,0,0,NaN,-1.69089462698832,-1.69089462698832,750,0,0,incongruent,0,1322.31223344819,887.982110808008
44,104,4,463,0.5,0.5,0.5,2,4,0,4,847,0,0,NaN,0,0,0,NaN,0.65508407660194,NaN,750,1,0,incongruent,0,6333.1933582318,2922.12431137502
44,104,4,464,0.5,0.5,0,1,NaN,0,1,648,1,1,648,1,0,0,NaN,-0.965922041503829,-0.965922041503829,750,0,0,neutral,1,1433.88500971917,6401.05528515694
44,104,4,465,-0.5,0.5,-0.5,2,2,0.2,2,979,1,0,979,0,0,0.4,0,1.73032431574748,1.73032431574748,750,1,0,congruent,0,8444.81940837379,3387.09677839783
44,104,4,469,0.5,0.5,0,3,NaN,0.2,3,807,1,0,807,0,0,0.4,NaN,0.329253701103293,0.329253701103293,750,0,0,neutral,0,3627.73454150828,2914.3889254901
44,104,4,471,-0.5,-0.5,-0.5,3,3,0,3,696,1,1,696,0,0,0,0,-0.574925590905452,-0.574925590905452,750,1,0,congruent,0,1844.63450425288,4412.93882660964
44,104,4,472,-0.5,-0.5,0,1,NaN,0,3,836,0,0,NaN,0,0,0,0,0.565480723339812,NaN,750,0,1,neutral,0,6444.77138682271,3174.58268234215
44,104,4,473,0.5,0.5,-0.5,3,3,0,3,798,1,0,798,0,0,0,NaN,0.255941866616098,0.255941866616098,750,1,0,congruent,0,3374.44964037716,2409.10356839105
44,104,4,475,-0.5,-0.5,-0.5,3,3,0,3,814,1,0,814,0,0,0,0,0.386274016815557,0.386274016815557,750,1,0,congruent,0,7690.1910063746,5570.88015809605
44,104,4,476,0.5,0.5,0,1,NaN,0,1,731,1,1,731,1,0,0,NaN,-0.289824012344136,-0.289824012344136,750,0,0,neutral,1,2167.55407003274,4775.04951510199
44,104,4,477,0.5,0.5,-0.5,2,2,0.2,3,835,0,0,NaN,0,0,0.4,NaN,0.557334963952346,NaN,750,0,1,congruent,0,6854.87536199895,3872.7388770297
44,104,4,480,0.5,0.5,0.5,4,1,0.2,1,859,0,0,NaN,0,0,0.8,NaN,0.752833189251535,NaN,750,1,0,incongruent,0,6874.04725850016,901.136991530086
44,104,4,484,-0.5,-0.5,-0.5,1,1,0.2,1,600,1,1,600,1,0,0.4,0,-1.35691849210221,-1.35691849210221,750,1,0,congruent,0.1,2062.7575835769,1644.28715325908
44,104,4,490,-0.5,0.5,0.5,3,2,0.4,3,891,1,0,891,0,0,0.4,0.4,1.01349748965045,1.01349748965045,750,0,0,incongruent,0,2468.34713613461,2122.0164131311
44,104,4,492,0.5,-0.5,0.5,3,2,0.4,3,708,1,1,708,0,0,0.4,NaN,-0.477176478255858,-0.477176478255858,750,0,0,incongruent,0,1732.85669962792,1957.47432155426
44,104,4,493,-0.5,0.5,0.5,2,3,0.4,2,884,1,0,884,0,0,0.2,0.4,0.956477173938189,0.956477173938189,750,0,0,incongruent,0,5257.59250629109,13487.3030349415
44,104,4,495,0.5,-0.5,-0.5,3,3,0.6,3,927,1,0,927,1,0,0.2,NaN,1.30674482759923,1.30674482759923,750,1,0,congruent,1,5823.6118401007,4240.00167809546
44,104,4,496,-0.5,-0.5,-0.5,4,4,0.6,4,636,1,1,636,1,0,0.6,0.2,-1.06367115415342,-1.06367115415342,750,1,0,congruent,0.1,3719.13619342269,3806.2758003656
44,104,4,497,0.5,-0.5,0,2,NaN,0.6,1,693,0,1,NaN,1,0,0.8,NaN,-0.599362869067851,NaN,750,0,1,neutral,1,11681.4561872608,9158.02771845155
44,104,4,498,-0.5,0.5,-0.5,3,3,0.6,3,842,1,0,842,0,0,1.2,0.6,0.61435527966461,0.61435527966461,750,1,0,congruent,0,7353.46284260812,3040.86938859329
44,104,4,499,-0.5,0.5,0,2,NaN,0.4,2,824,1,0,824,0,0,1.2,0.4,0.467731610690218,0.467731610690218,750,0,0,neutral,0,4948.98833643394,2012.7117634225
44,104,4,500,0.5,-0.5,-0.5,3,3,0.2,3,895,1,0,895,1,0,1,NaN,1.04608052720032,1.04608052720032,750,1,0,congruent,1,5943.70431642817,3756.75421715366
44,104,4,501,0.5,-0.5,-0.5,4,4,0.2,4,765,1,0,765,1,0,1,NaN,-0.012868193170286,-0.012868193170286,750,1,0,congruent,1,6129.28650499528,1856.23835718332
44,104,4,504,0.5,-0.5,0,2,NaN,0.2,2,675,1,1,675,0,0,0.8,NaN,-0.745986538042242,-0.745986538042242,750,0,0,neutral,0,4516.76238089928,2877.87481036829
44,104,4,505,0.5,0.5,0.5,4,2,0.2,4,926,1,0,926,0,0,0.8,NaN,1.29859906821177,1.29859906821177,750,0,0,incongruent,0,5050.91562374381,765.67832515842
44,104,4,506,-0.5,-0.5,0,1,NaN,0.2,1,684,1,1,684,0,0,0.4,0.4,-0.672674703555046,-0.672674703555046,750,0,0,neutral,0,1719.41213119321,7905.87275654883
44,104,4,507,0.5,0.5,-0.5,2,2,0.2,2,923,1,0,923,0,0,0,NaN,1.27416179004937,1.27416179004937,750,1,0,congruent,0,2462.43659855772,3475.06464994761
44,104,4,509,0.5,-0.5,-0.5,3,3,0,3,955,1,0,955,0,0,0,NaN,1.53482609044829,1.53482609044829,750,1,0,congruent,0,3375.3511625924,1645.37231750615
44,104,4,510,-0.5,0.5,0,2,NaN,0,2,910,1,0,910,0,0,0,0.2,1.16826691801231,1.16826691801231,750,0,0,neutral,0,3235.44702999695,1440.56485675427
44,104,4,511,-0.5,-0.5,0.5,4,2,0,4,885,1,0,885,0,0,0,0.2,0.964622933325655,0.964622933325655,750,0,0,incongruent,0,975.68099233058,9962.40559290897
44,104,4,514,-0.5,0.5,0,2,NaN,0,2,665,1,1,665,1,0,0,0.2,-0.827444131916904,-0.827444131916904,750,0,0,neutral,0.1,751.936765859871,1347.11898807776
44,104,4,516,0.5,-0.5,0,3,NaN,0.2,3,703,1,1,703,0,0,0.2,NaN,-0.517905275193189,-0.517905275193189,750,0,0,neutral,0,5094.65447683914,2487.82689941062
44,104,4,517,-0.5,0.5,-0.5,4,4,0.2,4,670,1,1,670,1,0,0.2,0.4,-0.786715334979573,-0.786715334979573,750,1,0,congruent,0.1,3186.25047353309,3113.5811097015
44,104,4,519,-0.5,0.5,-0.5,4,4,0.4,4,538,1,1,538,1,0,0.4,0.4,-1.86195557412511,-1.86195557412511,750,1,0,congruent,0.1,1956.42549660826,2432.48123132763
44,104,4,523,0.5,0.5,-0.5,2,2,0.6,3,781,0,0,NaN,0,0,0.2,NaN,0.117463957029173,NaN,750,0,1,congruent,0,2552.80582623811,2652.78130042359
44,104,4,524,0.5,0.5,0,3,NaN,0.4,3,666,1,1,666,1,0,0.2,NaN,-0.819298372529437,-0.819298372529437,750,0,0,neutral,1,9862.43008540635,1987.73310215177
44,104,4,525,0.5,-0.5,-0.5,2,2,0.4,2,893,1,0,893,1,0,0.4,NaN,1.02978900842538,1.02978900842538,750,1,0,congruent,1,3665.40028948624,3435.91736089271
44,104,4,527,-0.5,-0.5,0,1,NaN,0.4,1,621,1,1,621,0,0,0.8,0,-1.18585754496542,-1.18585754496542,750,0,0,neutral,0,4052.37645470153,5394.51251692686
44,104,4,531,-0.5,-0.5,0.5,1,4,0.2,1,597,1,1,597,0,0,0,0,-1.3813557702646,-1.3813557702646,750,0,0,incongruent,0,2999.07796995805,4896.80454229459
44,104,4,533,0.5,-0.5,0.5,1,2,0.4,1,580,1,1,580,0,0,0.2,NaN,-1.51983367985153,-1.51983367985153,750,0,0,incongruent,0,4492.24259285674,4389.67304467609
44,104,4,537,0.5,-0.5,0.5,3,2,0.6,3,667,1,1,667,0,0,0.8,NaN,-0.811152613141971,-0.811152613141971,750,0,0,incongruent,0,3092.6935468877,2493.19442696591
44,104,4,538,-0.5,-0.5,-0.5,1,1,0.6,1,985,1,0,985,1,0,0.6,0,1.77919887207227,1.77919887207227,750,1,0,congruent,0.1,3035.71889021651,1168.29537074389
44,104,4,540,-0.5,0.5,-0.5,1,1,0.4,1,815,1,0,815,0,0,0.8,0.4,0.394419776203023,0.394419776203023,750,1,0,congruent,0,4722.7660749294,1390.39887666435
44,104,4,541,0.5,0.5,0.5,2,3,0.4,3,859,0,0,NaN,0,0,0.6,NaN,0.752833189251535,NaN,750,1,0,incongruent,0,3464.7522573751,2963.7980169061
44,104,4,545,0.5,0.5,0,2,NaN,0.2,1,0,0,1,NaN,0,0,0,NaN,-6.24437412458191,NaN,750,0,1,neutral,0,4043.2238934825,1647.68955638956
44,104,4,547,0.5,-0.5,0.5,2,1,0.2,2,774,1,0,774,0,0,0.2,NaN,0.0604436413169096,0.0604436413169096,750,0,0,incongruent,0,11562.7701044794,604.889694035572
44,104,4,548,-0.5,0.5,0,1,NaN,0.2,1,737,1,1,737,1,0,0.2,0.6,-0.240949456019339,-0.240949456019339,750,0,0,neutral,0.1,3676.37618880489,1921.57893040743
44,104,4,550,0.5,0.5,0.5,3,4,0.4,3,960,1,0,960,0,0,0.4,NaN,1.57555488738562,1.57555488738562,750,0,0,incongruent,0,3888.35503135775,5759.01122156079
44,104,4,551,0.5,-0.5,0,4,NaN,0.4,4,959,1,0,959,1,0,0.4,NaN,1.56740912799815,1.56740912799815,750,0,0,neutral,1,1117.08610682087,3521.58043923906
44,104,4,552,-0.5,0.5,-0.5,1,1,0.4,1,728,1,1,728,1,0,0.6,0.8,-0.314261290506535,-0.314261290506535,750,1,0,congruent,0.1,17116.4906519738,2344.35325148524
44,104,4,553,-0.5,0.5,0,4,NaN,0.6,2,953,0,0,NaN,0,0,0.8,0.8,1.51853457167336,NaN,750,0,1,neutral,0,2593.58107938849,2550.67933404645
44,104,4,555,0.5,-0.5,-0.5,4,4,0.4,4,806,1,0,806,0,0,0.6,NaN,0.321107941715827,0.321107941715827,750,1,0,congruent,0,4094.81573487292,4588.95895135004
44,104,4,556,-0.5,-0.5,0.5,1,3,0.4,1,669,1,1,669,0,0,0.6,0.2,-0.794861094367039,-0.794861094367039,750,0,0,incongruent,0,2821.38594529953,1815.96002077135
44,104,4,558,0.5,0.5,-0.5,3,3,0.2,3,663,1,1,663,1,0,0,NaN,-0.843735650691836,-0.843735650691836,750,1,0,congruent,1,2097.49516205529,727.242135896079
44,104,4,559,-0.5,-0.5,0.5,1,4,0.4,1,866,1,0,866,1,0,0.4,0.2,0.809853504963798,0.809853504963798,750,0,0,incongruent,0.1,3324.42028606755,2673.00489313349
44,104,4,560,0.5,-0.5,0,3,NaN,0.4,3,682,1,1,682,0,0,0.6,NaN,-0.688966222329979,-0.688966222329979,750,0,0,neutral,0,2704.11127079016,7832.98041222911
44,104,4,562,0.5,-0.5,0.5,3,4,0.4,3,911,1,0,911,0,0,0.6,NaN,1.17641267739978,1.17641267739978,750,0,0,incongruent,0,1853.93904518514,3273.69313566362
44,104,4,564,0.5,-0.5,-0.5,4,4,0.4,4,593,1,1,593,1,0,0.2,NaN,-1.41393880781447,-1.41393880781447,750,1,0,congruent,1,6059.59798933645,1971.44333472522
44,104,4,565,0.5,0.5,0,3,NaN,0.4,3,814,1,0,814,0,0,0.4,NaN,0.386274016815557,0.386274016815557,750,0,0,neutral,0,3382.65884835657,4615.95352154624
44,104,4,566,-0.5,-0.5,-0.5,2,2,0.2,2,960,1,0,960,1,0,0.4,0.4,1.57555488738562,1.57555488738562,750,1,0,congruent,0.1,3719.07926257804,12495.3072911279
44,104,4,567,0.5,-0.5,0.5,1,3,0.2,1,777,1,0,777,0,0,0.6,NaN,0.0848809194793081,0.0848809194793081,750,0,0,incongruent,0,2298.26103843679,7323.13935057591
44,104,4,569,-0.5,0.5,-0.5,4,4,0.2,4,737,1,1,737,1,0,0.6,0.4,-0.240949456019339,-0.240949456019339,750,1,0,congruent,0.1,12229.8892444239,1283.07343202051
44,104,4,574,-0.5,-0.5,0,1,NaN,0.2,1,709,1,1,709,0,0,0.6,0.6,-0.469030718868392,-0.469030718868392,750,0,0,neutral,0,2935.7286405606,2470.98020545737
44,104,4,575,0.5,-0.5,-0.5,3,3,0.2,4,883,0,0,NaN,1,0,0.4,NaN,0.948331414550723,NaN,750,0,1,congruent,1,3731.80614470404,496.866373260199
44,104,4,579,0.5,-0.5,0.5,4,1,0.4,4,634,1,1,634,1,0,1,NaN,-1.07996267292836,-1.07996267292836,750,0,0,incongruent,1,1088.44099325598,1777.9542378429
44,104,4,581,0.5,0.5,-0.5,4,4,0.4,3,945,0,0,NaN,0,0,1.4,NaN,1.45336849657363,NaN,750,0,1,congruent,0,2504.19891534627,1971.19403207854
44,104,4,582,0.5,-0.5,0,2,NaN,0.4,2,793,1,0,793,1,0,1.2,NaN,0.215213069678767,0.215213069678767,750,0,0,neutral,1,2057.02855927445,5136.79304380287
44,104,4,584,0.5,-0.5,0,3,NaN,0.4,3,689,1,1,689,0,0,1.2,NaN,-0.631945906617715,-0.631945906617715,750,0,0,neutral,0,4100.17121594577,3465.23796788618
44,104,4,585,0.5,0.5,-0.5,4,4,0.4,4,643,1,1,643,1,0,0.8,NaN,-1.00665083844116,-1.00665083844116,750,1,0,congruent,1,1820.02274024427,2448.66062411413
44,104,4,587,-0.5,-0.5,0,2,NaN,0.4,2,607,1,1,607,0,0,0.8,0.4,-1.29989817638994,-1.29989817638994,750,0,0,neutral,0,6835.88573250549,3142.05508477925
44,104,4,588,-0.5,-0.5,0.5,4,2,0.4,3,776,0,0,NaN,0,0,0.4,0.4,0.0767351600918419,NaN,750,0,1,incongruent,0,1566.67593874258,1247.27208043234
44,104,4,589,0.5,-0.5,-0.5,1,1,0.4,1,888,1,0,888,0,0,0.4,NaN,0.989060211488054,0.989060211488054,750,1,0,congruent,0,3751.18610587783,3792.85964856105
44,104,4,592,0.5,0.5,-0.5,4,4,0.2,4,823,1,0,823,0,0,0,NaN,0.459585851302752,0.459585851302752,750,1,0,congruent,0,5869.46585990153,1825.37839101484
44,104,4,593,-0.5,0.5,0,2,NaN,0.2,2,785,1,0,785,0,0,0,0.4,0.150046994579038,0.150046994579038,750,0,0,neutral,0,3709.23980108909,4699.2227788078
44,104,4,597,0.5,-0.5,0,2,NaN,0.2,2,830,1,0,830,0,0,0.4,NaN,0.516606167015015,0.516606167015015,750,0,0,neutral,0,3130.44782970114,8335.85958169451
44,104,4,599,-0.5,0.5,0.5,3,1,0.2,3,804,1,0,804,0,0,0.4,0.2,0.304816422940895,0.304816422940895,750,0,0,incongruent,0,1641.14279828181,1021.89890138818
44,104,4,600,-0.5,0.5,0,4,NaN,0.2,4,913,1,0,913,0,0,0,0,1.19270419617471,1.19270419617471,750,0,0,neutral,0,3921.69170225432,3849.96729114051
