subid,vers,block,trial,rewlvl,efflvl,congruency,targetresp,distractorresp,rollingefflvl,resp,rt,acc,fast,accrt,isrewarded,ismiss,runavgrrgen,runavgrrcond,zrt,acczrt,rtthreshold,isdisterror,isranderror,congruence,feedback,fcz_resp_theta,fcz_resp_theta_baseline
46,104,1,2,0.5,-0.5,0,2,NaN,0.1,2,659,1,1,659,0,0,0,NaN,-0.86465603790206,-0.86465603790206,750,0,0,neutral,0,1119.18283718166,3838.24871535355
46,104,1,4,-0.5,0.5,-0.5,2,2,0.1,2,865,1,0,865,0,0,0,0,0.521375733428223,0.521375733428223,750,1,0,congruent,0,2349.17715894889,2155.82259976554
46,104,1,6,0.5,0.5,-0.5,4,4,0.1,4,592,1,1,592,1,0,0,NaN,-1.31545277906288,-1.31545277906288,750,1,0,congruent,1,1168.44806912593,3475.12080407153
46,104,1,9,0.5,-0.5,0,3,NaN,0.3,3,983,1,0,983,1,0,0.4,NaN,1.31531626263683,1.31531626263683,750,0,0,neutral,1,1818.53334142361,2953.35763812751
46,104,1,11,-0.5,0.5,-0.5,2,2,0.3,3,806,0,0,NaN,0,0,1,0,0.124405468823918,NaN,750,0,1,congruent,0,996.162536321713,2121.44675374106
46,104,1,16,-0.5,0.5,-0.5,4,4,0.2,4,967,1,0,967,0,0,0,0,1.2076633095238,1.2076633095238,750,1,0,congruent,0,4108.80935162536,1730.14652303968
46,104,1,17,0.5,0.5,-0.5,3,3,0.2,3,814,1,0,814,0,0,0,NaN,0.178231945380434,0.178231945380434,750,1,0,congruent,0,610.355385999437,2196.14359300635
46,104,1,23,-0.5,0.5,0.5,3,4,0,3,873,1,0,873,0,0,0,0,0.575202209984738,0.575202209984738,750,0,0,incongruent,0,1204.80574479999,3510.443405268
46,104,1,30,-0.5,0.5,-0.5,4,4,0,3,902,0,0,NaN,0,0,0,0,0.770323187502108,NaN,750,0,1,congruent,0,2480.68754648982,1323.34083671343
46,104,1,32,-0.5,0.5,0.5,4,3,0,4,927,1,0,927,0,0,0,0,0.93853092674122,0.93853092674122,750,0,0,incongruent,0,2266.86438567753,2573.70464648126
46,104,1,33,0.5,-0.5,0.5,3,4,0,3,791,1,0,791,0,0,0,NaN,0.0234808252804513,0.0234808252804513,750,0,0,incongruent,0,3939.29342251776,3408.97581244322
46,104,1,36,0.5,-0.5,-0.5,4,4,0,4,692,1,1,692,0,0,0,NaN,-0.642621822106432,-0.642621822106432,750,1,0,congruent,0,1739.58713595408,4453.2245937553
46,104,1,38,0.5,0.5,0.5,4,3,0,3,823,0,0,NaN,0,0,0,NaN,0.238786731506515,NaN,750,1,0,incongruent,0,326.102108061825,2519.9726154085
46,104,1,40,0.5,-0.5,-0.5,4,4,0,1,58,0,1,NaN,0,0,0,NaN,-4.90837008921031,NaN,750,0,1,congruent,0,2088.35605666985,3580.8734113849
46,104,1,42,-0.5,0.5,-0.5,4,4,0,3,710,0,1,NaN,0,0,0,0,-0.521512249854271,NaN,750,0,1,congruent,0,2170.01723524202,1638.85599358224
46,104,1,43,0.5,0.5,0,2,NaN,0,3,901,0,0,NaN,0,0,0,NaN,0.763594877932544,NaN,750,0,1,neutral,0,1227.32954831285,1583.29526179011
46,104,1,44,0.5,0.5,-0.5,1,1,0,1,839,1,0,839,0,0,0,NaN,0.346439684619546,0.346439684619546,750,1,0,congruent,0,1798.98566241244,1692.72772579386
46,104,1,45,0.5,-0.5,0.5,4,2,0,3,792,0,0,NaN,0,0,0,NaN,0.0302091348500158,NaN,750,0,1,incongruent,0,3670.4937260021,2061.59330858601
46,104,1,53,-0.5,0.5,-0.5,3,3,0,1,832,0,0,NaN,0,0,0,0,0.299341517632595,NaN,750,0,1,congruent,0,2049.21956237919,9699.3473448261
46,104,1,54,-0.5,0.5,0.5,1,2,0,1,900,1,0,900,0,0,0,0,0.756866568362979,0.756866568362979,750,0,0,incongruent,0,2002.12342748111,6253.84156641276
46,104,1,56,0.5,0.5,-0.5,2,2,0,3,781,0,0,NaN,0,0,0,NaN,-0.0438022704151935,NaN,750,0,1,congruent,0,781.198086350352,3419.33202190076
46,104,1,58,-0.5,0.5,-0.5,4,4,0.2,4,685,1,1,685,1,0,0.2,0.2,-0.689719989093383,-0.689719989093383,750,1,0,congruent,0.1,965.18584742235,4376.94037885336
46,104,1,60,0.5,-0.5,-0.5,4,4,0.4,3,624,0,1,NaN,1,0,0.4,NaN,-1.10014687283682,NaN,750,0,1,congruent,1,5916.86487605917,1884.60849714652
46,104,1,66,0.5,0.5,-0.5,3,3,0,3,958,1,0,958,0,0,0,NaN,1.14710852339772,1.14710852339772,750,1,0,congruent,0,2947.73688862101,3395.69654339984
46,104,1,68,0.5,-0.5,-0.5,4,4,0,4,789,1,0,789,0,0,0,NaN,0.0100242061413223,0.0100242061413223,750,1,0,congruent,0,654.797297742533,1339.90434073118
46,104,1,70,0.5,-0.5,0.5,1,3,0,1,611,1,1,611,0,0,0,NaN,-1.18761489724115,-1.18761489724115,750,0,0,incongruent,0,3427.19302616339,2265.63467775468
46,104,1,71,0.5,0.5,-0.5,4,4,0,4,916,1,0,916,0,0,0,NaN,0.864519521476011,0.864519521476011,750,1,0,congruent,0,3626.52777279197,1839.84118785518
46,104,1,72,-0.5,-0.5,0,2,NaN,0,3,886,0,0,NaN,0,0,0,0,0.662670234389076,NaN,750,0,1,neutral,0,3253.27107984412,6165.89585929316
46,104,1,73,0.5,-0.5,-0.5,4,4,0,3,867,0,0,NaN,0,0,0,NaN,0.534832352567352,NaN,750,0,1,congruent,0,1557.56626319203,1453.38687565831
46,104,1,77,-0.5,-0.5,-0.5,1,1,0,1,782,1,0,782,0,0,0,0,-0.037073960845629,-0.037073960845629,750,1,0,congruent,0,2986.47145878291,3260.75747479461
46,104,1,78,0.5,-0.5,0.5,4,3,0,3,926,0,0,NaN,0,0,0,NaN,0.931802617171656,NaN,750,1,0,incongruent,0,2014.64551199099,813.710956520356
46,104,1,80,0.5,-0.5,0,1,NaN,0,1,869,1,0,869,0,0,0,NaN,0.54828897170648,0.54828897170648,750,0,0,neutral,0,1837.58436900816,485.49446460198
46,104,1,82,0.5,-0.5,-0.5,2,2,0,2,496,1,1,496,0,0,0,NaN,-1.96137049774107,-1.96137049774107,750,1,0,congruent,0,1508.9939319598,3941.46054491009
46,104,1,86,0.5,-0.5,0.5,1,2,0,2,797,0,0,NaN,0,0,0,NaN,0.0638506826978382,NaN,750,1,0,incongruent,0,3088.27884505364,2372.99548987997
46,104,1,87,0.5,0.5,0,3,NaN,0,3,910,1,0,910,0,0,0,NaN,0.824149664058624,0.824149664058624,750,0,0,neutral,0,1533.24101983541,1554.50390580638
46,104,1,89,-0.5,-0.5,-0.5,3,3,0,3,908,1,0,908,0,0,0,0,0.810693044919495,0.810693044919495,750,1,0,congruent,0,1573.89178748251,2741.63558209932
46,104,1,90,-0.5,0.5,-0.5,1,1,0,3,728,0,1,NaN,0,0,0,0,-0.400402677602111,NaN,750,0,1,congruent,0,7262.62154174699,4680.28924791001
46,104,1,94,0.5,-0.5,-0.5,3,3,0,1,571,0,1,NaN,0,0,0,NaN,-1.45674728002373,NaN,750,0,1,congruent,0,295.731719917502,868.837942345947
46,104,1,95,0.5,0.5,0.5,2,4,0,4,871,0,0,NaN,0,0,0,NaN,0.561745590845609,NaN,750,1,0,incongruent,0,5014.72330122344,1482.89095045917
46,104,1,96,0.5,0.5,0.5,4,1,0,1,861,0,0,NaN,0,0,0,NaN,0.494462495149965,NaN,750,1,0,incongruent,0,2310.12434795223,1730.68113326024
46,104,1,98,0.5,0.5,0,4,NaN,0,4,596,1,1,596,1,0,0,NaN,-1.28853954078462,-1.28853954078462,750,0,0,neutral,1,2695.94828775658,1474.64666751045
46,104,1,99,-0.5,-0.5,-0.5,3,3,0.2,3,966,1,0,966,0,0,0.4,0,1.20093499995423,1.20093499995423,750,1,0,congruent,0,1859.09190360591,941.982527855974
46,104,1,100,0.5,0.5,0.5,1,2,0.2,2,938,0,0,NaN,0,0,0.4,NaN,1.01254233200643,NaN,750,1,0,incongruent,0,1154.3406579445,1624.37084836792
46,104,1,101,-0.5,-0.5,-0.5,4,4,0.2,4,799,1,0,799,0,0,0.4,0,0.0773073018369671,0.0773073018369671,750,1,0,congruent,0,4300.58168222859,3180.90186427931
46,104,1,103,0.5,-0.5,-0.5,1,1,0.2,1,699,1,1,699,0,0,0.4,NaN,-0.59552365511948,-0.59552365511948,750,1,0,congruent,0,1460.8467937793,1354.5733320124
46,104,1,104,-0.5,-0.5,0,2,NaN,0.2,3,814,0,0,NaN,0,0,0,0,0.178231945380434,NaN,750,0,1,neutral,0,1139.99837049057,5666.84148617942
46,104,1,105,0.5,-0.5,0.5,1,4,0.2,4,900,0,0,NaN,0,0,0,NaN,0.756866568362979,NaN,750,1,0,incongruent,0,3971.88841714323,2340.59688419948
46,104,1,107,-0.5,-0.5,-0.5,1,1,0.2,1,903,1,0,903,1,0,0,0,0.777051497071673,0.777051497071673,750,1,0,congruent,0.1,890.314102384678,1567.14125511426
46,104,1,108,0.5,-0.5,0.5,4,3,0.2,3,966,0,0,NaN,0,0,0.2,NaN,1.20093499995423,NaN,750,1,0,incongruent,0,2155.24725325222,2160.62083408248
46,104,1,111,-0.5,-0.5,0,3,NaN,0.2,3,761,1,0,761,0,0,0.2,0.2,-0.178368461806483,-0.178368461806483,750,0,0,neutral,0,5734.54722040636,1828.9910729407
46,104,1,115,-0.5,-0.5,-0.5,1,1,0.2,1,928,1,0,928,0,0,0.4,0.2,0.945259236310784,0.945259236310784,750,1,0,congruent,0,1907.50229044116,3397.25386744632
46,104,1,116,0.5,-0.5,-0.5,3,3,0.2,1,701,0,1,NaN,0,0,0.4,NaN,-0.582067035980352,NaN,750,0,1,congruent,0,5114.60713603827,3087.29845606649
46,104,1,117,0.5,-0.5,0,4,NaN,0.2,4,629,1,1,629,1,0,0.4,NaN,-1.06650532498899,-1.06650532498899,750,0,0,neutral,1,3471.97638250267,1476.42988882882
46,104,1,118,0.5,-0.5,-0.5,1,1,0.2,1,955,1,0,955,0,0,0.8,NaN,1.12692359468903,1.12692359468903,750,1,0,congruent,0,1660.1975862172,6303.75590009716
46,104,1,120,0.5,0.5,-0.5,1,1,0.2,1,837,1,0,837,0,0,0.4,NaN,0.332983065480417,0.332983065480417,750,1,0,congruent,0,1378.41932105604,2406.07978985885
46,104,1,121,0.5,-0.5,-0.5,3,3,0.2,3,772,1,0,772,0,0,0.4,NaN,-0.104357056541274,-0.104357056541274,750,1,0,congruent,0,3774.25865117713,4483.09355128147
46,104,1,123,0.5,-0.5,-0.5,1,1,0.2,1,889,1,0,889,0,0,0,NaN,0.68285516309777,0.68285516309777,750,1,0,congruent,0,3170.49669498138,4401.67952615172
46,104,1,124,-0.5,-0.5,0,4,NaN,0.2,4,851,1,0,851,0,0,0,0.2,0.42717939945432,0.42717939945432,750,0,0,neutral,0,501.176428783353,947.768233719875
46,104,1,125,-0.5,-0.5,-0.5,1,1,0.2,1,589,1,1,589,0,0,0,0.2,-1.33563770777157,-1.33563770777157,750,1,0,congruent,0,7487.67147526351,3831.30922491252
46,104,1,131,0.5,-0.5,-0.5,1,1,0,1,778,1,0,778,0,0,0,NaN,-0.0639871991238869,-0.0639871991238869,750,1,0,congruent,0,1505.16728237833,999.552195695425
46,104,1,132,0.5,0.5,0.5,2,4,0,4,675,0,1,NaN,0,0,0,NaN,-0.757003084789028,NaN,750,1,0,incongruent,0,3911.77821156857,2918.27587543316
46,104,1,133,-0.5,0.5,0,1,NaN,0,1,917,1,0,917,0,0,0,0,0.871247831045575,0.871247831045575,750,0,0,neutral,0,5785.96722447005,2545.41996078671
46,104,1,135,0.5,0.5,-0.5,1,1,0,1,796,1,0,796,0,0,0,NaN,0.0571223731282737,0.0571223731282737,750,1,0,congruent,0,4901.9976414881,6084.40007817371
46,104,1,136,0.5,0.5,0.5,2,4,0,4,761,0,0,NaN,0,0,0,NaN,-0.178368461806483,NaN,750,1,0,incongruent,0,1621.24051702897,1660.49735698834
46,104,1,137,-0.5,0.5,0.5,3,1,0,3,964,1,0,964,0,0,0,0,1.18747838081511,1.18747838081511,750,0,0,incongruent,0,655.508776509824,1677.09936105705
46,104,1,139,-0.5,-0.5,0,4,NaN,0,4,702,1,1,702,0,0,0,0,-0.575338726410787,-0.575338726410787,750,0,0,neutral,0,1333.01066663744,6869.95891006164
46,104,1,140,-0.5,-0.5,-0.5,1,1,0,1,815,1,0,815,0,0,0,0,0.184960254949999,0.184960254949999,750,1,0,congruent,0,2191.95415217461,2788.70220854225
46,104,1,142,-0.5,-0.5,-0.5,4,4,0,4,588,1,1,588,0,0,0,0,-1.34236601734114,-1.34236601734114,750,1,0,congruent,0,755.405408784685,2780.58492208653
46,104,1,144,0.5,0.5,0.5,4,2,0,3,925,0,0,NaN,0,0,0,NaN,0.925074307602091,NaN,750,0,1,incongruent,0,3703.1480156991,682.4551537265
46,104,1,145,-0.5,0.5,0,1,NaN,0,1,837,1,0,837,0,0,0,0,0.332983065480417,0.332983065480417,750,0,0,neutral,0,718.981813786363,1871.88639023617
46,104,1,146,0.5,-0.5,-0.5,4,4,0,4,655,1,1,655,0,0,0,NaN,-0.891569276180317,-0.891569276180317,750,1,0,congruent,0,1746.48609448456,1751.78858323427
46,104,1,147,0.5,-0.5,-0.5,1,1,0,3,914,0,0,NaN,0,0,0,NaN,0.851062902336882,NaN,750,0,1,congruent,0,5204.00844459576,1618.88237167598
46,104,1,149,-0.5,-0.5,0,4,NaN,0,4,752,1,0,752,0,0,0,0,-0.238923247932563,-0.238923247932563,750,0,0,neutral,0,3991.14512679217,1118.03137435333
46,104,1,150,0.5,-0.5,0.5,2,3,0,3,905,0,0,NaN,0,0,0,NaN,0.790508116210802,NaN,750,1,0,incongruent,0,1600.38521907035,1576.95317457384
46,104,2,152,-0.5,-0.5,0.5,3,1,0,3,924,1,0,924,0,0,0,0,0.918345998032527,0.918345998032527,750,0,0,incongruent,0,1618.45499117694,3122.41201667891
46,104,2,155,-0.5,0.5,0.5,4,2,0,3,980,0,0,NaN,0,0,0,0,1.29513133392814,NaN,750,0,1,incongruent,0,1529.94548645746,1862.31719880987
46,104,2,156,0.5,-0.5,0.5,2,4,0,4,627,0,1,NaN,0,0,0,NaN,-1.07996194412812,NaN,750,1,0,incongruent,0,411.662603537023,2181.43207188241
46,104,2,158,0.5,0.5,0.5,2,4,0,2,796,1,0,796,0,0,0,NaN,0.0571223731282737,0.0571223731282737,750,0,0,incongruent,0,3743.07219757838,439.561802656562
46,104,2,159,0.5,-0.5,-0.5,3,3,0,3,973,1,0,973,0,0,0,NaN,1.24803316694119,1.24803316694119,750,1,0,congruent,0,2303.32321734411,7934.29285982312
46,104,2,163,-0.5,-0.5,0,3,NaN,0,4,772,0,0,NaN,0,0,0,0,-0.104357056541274,NaN,750,0,1,neutral,0,1934.07541690866,2137.79241572221
46,104,2,164,0.5,-0.5,-0.5,2,2,0,3,875,0,0,NaN,0,0,0,NaN,0.588658829123867,NaN,750,0,1,congruent,0,2102.34115519058,4029.76079994825
46,104,2,165,-0.5,-0.5,-0.5,3,3,0,3,891,1,0,891,0,0,0,0,0.696311782236899,0.696311782236899,750,1,0,congruent,0,2334.58997182263,784.652528012535
46,104,2,169,-0.5,0.5,-0.5,1,1,0,4,15,0,1,NaN,0,0,0,0,-5.19768740070158,NaN,750,0,1,congruent,0,2557.81972941632,3244.47630687592
46,104,2,170,0.5,-0.5,0,4,NaN,0,4,947,1,0,947,0,0,0,NaN,1.07309711813251,1.07309711813251,750,0,0,neutral,0,1876.2693181657,1758.93714455923
46,104,2,171,0.5,0.5,-0.5,3,3,0,3,929,1,0,929,0,0,0,NaN,0.951987545880349,0.951987545880349,750,1,0,congruent,0,1043.22375255077,602.651594689175
46,104,2,173,-0.5,-0.5,0.5,3,4,0,2,940,0,0,NaN,0,0,0,0,1.02599895114556,NaN,750,0,1,incongruent,0,4009.3799549017,3425.06747225474
46,104,2,174,0.5,-0.5,0.5,1,2,0,3,992,0,0,NaN,0,0,0,NaN,1.37587104876291,NaN,750,0,1,incongruent,0,4059.63583326618,576.334728555341
46,104,2,176,-0.5,-0.5,-0.5,2,2,0,3,890,0,0,NaN,0,0,0,0,0.689583472667334,NaN,750,0,1,congruent,0,1606.38215303264,958.050460050404
46,104,2,179,-0.5,-0.5,0.5,1,4,0,3,965,0,0,NaN,0,0,0,0,1.19420669038467,NaN,750,0,1,incongruent,0,3892.49681562594,4133.16649467532
46,104,2,187,-0.5,0.5,0,1,NaN,0,1,769,1,0,769,0,0,0,0,-0.124541985249967,-0.124541985249967,750,0,0,neutral,0,1354.65069471847,4554.31740033635
46,104,2,191,0.5,0.5,-0.5,4,4,0,4,801,1,0,801,0,0,0,NaN,0.090763920976096,0.090763920976096,750,1,0,congruent,0,2309.52627405984,778.674984428895
46,104,2,193,-0.5,-0.5,0,4,NaN,0,4,699,1,1,699,0,0,0,0,-0.59552365511948,-0.59552365511948,750,0,0,neutral,0,1523.7028060003,1767.71127418892
46,104,2,194,0.5,-0.5,0.5,1,2,0,2,852,0,0,NaN,0,0,0,NaN,0.433907709023884,NaN,750,1,0,incongruent,0,257.924187098361,2107.39537876166
46,104,2,196,0.5,0.5,0.5,2,1,0,2,981,1,0,981,0,0,0,NaN,1.3018596434977,1.3018596434977,750,0,0,incongruent,0,1367.67562285252,718.251255324521
46,104,2,199,-0.5,0.5,0,2,NaN,0,1,995,0,0,NaN,0,0,0,0,1.3960559774716,NaN,750,0,1,neutral,0,1964.12453385703,2950.91324971074
46,104,2,208,0.5,0.5,0.5,1,3,0,3,666,0,1,NaN,0,0,0,NaN,-0.817557870915108,NaN,750,1,0,incongruent,0,1824.05244764429,1719.15914098686
46,104,2,210,0.5,-0.5,0.5,4,2,0,2,888,0,0,NaN,0,0,0,NaN,0.676126853528205,NaN,750,1,0,incongruent,0,931.243269588291,620.575754880138
46,104,2,212,-0.5,-0.5,0,3,NaN,0,3,827,1,0,827,0,0,0,0,0.265699969784772,0.265699969784772,750,0,0,neutral,0,1379.80239480229,2526.09711466957
46,104,2,213,-0.5,0.5,-0.5,1,1,0,3,819,0,0,NaN,0,0,0,0,0.211873493228257,NaN,750,0,1,congruent,0,2996.35201375091,4644.36627418766
46,104,2,214,0.5,0.5,0,3,NaN,0,3,986,1,0,986,0,0,0,NaN,1.33550119134552,1.33550119134552,750,0,0,neutral,0,3185.62082674487,2415.67845065458
46,104,2,215,0.5,-0.5,0.5,4,2,0,3,853,0,0,NaN,0,0,0,NaN,0.440636018593449,NaN,750,0,1,incongruent,0,1539.93494945042,4237.67486700508
46,104,2,216,-0.5,0.5,0,1,NaN,0,1,886,1,0,886,0,0,0,0,0.662670234389076,0.662670234389076,750,0,0,neutral,0,5110.33793754436,943.238159983988
46,104,2,218,-0.5,-0.5,0,1,NaN,0,1,274,1,1,274,0,0,0,0,-3.45505522218438,-3.45505522218438,750,0,0,neutral,0,1533.78806234258,2274.26477554254
46,104,2,220,0.5,0.5,-0.5,1,1,0,1,686,1,1,686,1,0,0,NaN,-0.682991679523819,-0.682991679523819,750,1,0,congruent,1,1847.03646778552,735.257523860972
46,104,2,221,-0.5,-0.5,-0.5,4,4,0.2,4,912,1,0,912,0,0,0.4,0,0.837606283197753,0.837606283197753,750,1,0,congruent,0,4150.36285719027,2866.01989289885
46,104,2,223,0.5,-0.5,-0.5,4,4,0.2,4,691,1,1,691,1,0,0.4,NaN,-0.649350131675996,-0.649350131675996,750,1,0,congruent,1,7768.03251952027,2015.25438851152
46,104,2,224,-0.5,-0.5,-0.5,3,3,0.2,3,945,1,0,945,0,0,0.8,0,1.05964049899338,1.05964049899338,750,1,0,congruent,0,2836.87608610185,1739.83483199699
46,104,2,225,-0.5,-0.5,-0.5,4,4,0.2,4,674,1,1,674,0,0,0.8,0,-0.763731394358592,-0.763731394358592,750,1,0,congruent,0,2900.62930453093,3384.18356152412
46,104,2,227,0.5,-0.5,0,3,NaN,0.2,3,854,1,0,854,0,0,0.4,NaN,0.447364328163013,0.447364328163013,750,0,0,neutral,0,1997.05915139031,735.120423026813
46,104,2,228,0.5,0.5,0.5,4,2,0.2,2,911,0,0,NaN,0,0,0.4,NaN,0.830877973628188,NaN,750,1,0,incongruent,0,1915.58217607939,3643.58295817158
46,104,2,229,0.5,-0.5,0.5,1,3,0.2,3,804,0,0,NaN,0,0,0,NaN,0.110948849684789,NaN,750,1,0,incongruent,0,833.704201255849,2794.90707556811
46,104,2,230,-0.5,0.5,0.5,3,2,0.2,3,716,1,1,716,1,0,0,0,-0.481142392436884,-0.481142392436884,750,0,0,incongruent,0.1,842.60579639795,3012.5880167831
46,104,2,231,0.5,0.5,0,4,NaN,0.4,4,756,1,0,756,0,0,0.2,NaN,-0.212010009654305,-0.212010009654305,750,0,0,neutral,0,2226.37661727688,2553.15138161289
46,104,2,232,0.5,-0.5,-0.5,3,3,0.4,2,796,0,0,NaN,1,0,0.2,NaN,0.0571223731282737,NaN,750,0,1,congruent,1,1472.29662999343,1293.4142668762
46,104,2,233,-0.5,-0.5,0,1,NaN,0.4,1,897,1,0,897,1,0,0.6,0,0.736681639654286,0.736681639654286,750,0,0,neutral,0.1,841.162903900073,2124.94442284773
46,104,2,234,0.5,-0.5,-0.5,2,2,0.4,3,831,0,0,NaN,0,0,0.8,NaN,0.29261320806303,NaN,750,0,1,congruent,0,4215.0474074276,3769.16878497081
46,104,2,235,0.5,0.5,0.5,1,3,0.4,1,970,1,0,970,0,0,0.8,NaN,1.22784823823249,1.22784823823249,750,0,0,incongruent,0,1765.67880382641,1216.38171130103
46,104,2,237,-0.5,0.5,0,1,NaN,0.2,2,984,0,0,NaN,0,0,0.6,0.2,1.3220445722064,NaN,750,0,1,neutral,0,4857.84001505041,2330.48031078704
46,104,2,238,0.5,-0.5,0.5,2,4,0.2,4,641,0,1,NaN,1,0,0.2,NaN,-0.98576561015422,NaN,750,1,0,incongruent,1,735.138251391464,2449.89511659467
46,104,2,242,0.5,0.5,0,3,NaN,0.2,3,948,1,0,948,0,0,0.8,NaN,1.07982542770207,1.07982542770207,750,0,0,neutral,0,2562.79701949683,881.981423238762
46,104,2,244,-0.5,-0.5,0,1,NaN,0,1,816,1,0,816,0,0,0.4,0.2,0.191688564519563,0.191688564519563,750,0,0,neutral,0,1525.75718618511,966.192286562013
46,104,2,248,-0.5,-0.5,-0.5,4,4,0,4,697,1,1,697,0,0,0,0.2,-0.608980274258609,-0.608980274258609,750,1,0,congruent,0,603.582036340765,4996.68052290003
46,104,2,249,-0.5,0.5,0.5,2,1,0,1,970,0,0,NaN,0,0,0,0.2,1.22784823823249,NaN,750,1,0,incongruent,0,2150.93781658821,3455.22622255307
46,104,2,251,-0.5,0.5,-0.5,4,4,0,4,609,1,1,609,1,0,0,0,-1.20107151638028,-1.20107151638028,750,1,0,congruent,0.1,2212.81687314347,731.485248729552
46,104,2,253,0.5,-0.5,-0.5,4,4,0.2,4,866,1,0,866,0,0,0.2,NaN,0.528104042997787,0.528104042997787,750,1,0,congruent,0,2006.44047045581,2990.6885531096
46,104,2,258,0.5,0.5,-0.5,1,1,0.2,1,707,1,1,707,1,0,0,NaN,-0.541697178562965,-0.541697178562965,750,1,0,congruent,1,2010.39194908409,3336.12574771512
46,104,2,259,-0.5,0.5,-0.5,3,3,0.4,3,468,1,1,468,1,0,0.4,0.2,-2.14976316568887,-2.14976316568887,750,1,0,congruent,0.1,1800.15407388948,1929.810817178
46,104,2,261,-0.5,0.5,0.5,1,2,0.4,1,998,1,0,998,0,0,0.6,0.4,1.4162409061803,1.4162409061803,750,0,0,incongruent,0,913.485353778049,1613.00992993557
46,104,2,262,-0.5,0.5,-0.5,4,4,0.4,4,820,1,0,820,0,0,0.6,0.4,0.218601802797821,0.218601802797821,750,1,0,congruent,0,1024.12992900643,1554.84519236103
46,104,2,265,0.5,0.5,0,2,NaN,0,2,998,1,0,998,0,0,0,NaN,1.4162409061803,1.4162409061803,750,0,0,neutral,0,1738.93537252519,2317.90163634373
46,104,2,266,-0.5,0.5,-0.5,3,3,0,3,837,1,0,837,0,0,0,0,0.332983065480417,0.332983065480417,750,1,0,congruent,0,2311.49632254284,964.258324636433
46,104,2,267,0.5,0.5,0,1,NaN,0,1,783,1,0,783,0,0,0,NaN,-0.0303456512760645,-0.0303456512760645,750,0,0,neutral,0,1435.6781102372,3624.81100153118
46,104,2,268,0.5,-0.5,-0.5,4,4,0,4,587,1,1,587,0,0,0,NaN,-1.3490943269107,-1.3490943269107,750,1,0,congruent,0,470.257814972373,1357.46161692941
46,104,2,269,-0.5,-0.5,-0.5,2,2,0,3,897,0,0,NaN,0,0,0,0,0.736681639654286,NaN,750,0,1,congruent,0,2872.15397848871,2267.0325832237
46,104,2,270,0.5,0.5,0,3,NaN,0,2,965,0,0,NaN,0,0,0,NaN,1.19420669038467,NaN,750,0,1,neutral,0,3663.09329087991,1054.13020710475
46,104,2,271,-0.5,-0.5,-0.5,1,1,0,1,737,1,1,737,0,0,0,0,-0.33984789147603,-0.33984789147603,750,1,0,congruent,0,3887.5989249512,1015.60531358756
46,104,2,272,-0.5,0.5,0.5,2,4,0,4,951,0,0,NaN,0,0,0,0,1.10001035641077,NaN,750,1,0,incongruent,0,1983.91277036366,3502.34252853117
46,104,2,277,0.5,-0.5,-0.5,4,4,0,4,721,1,1,721,0,0,0,NaN,-0.447500844589062,-0.447500844589062,750,1,0,congruent,0,757.144782280599,10615.1849171032
46,104,2,278,0.5,-0.5,0,2,NaN,0,2,968,1,0,968,0,0,0,NaN,1.21439161909336,1.21439161909336,750,0,0,neutral,0,1162.75528981647,1550.08635523672
46,104,2,279,0.5,0.5,0.5,4,2,0,2,918,0,0,NaN,0,0,0,NaN,0.87797614061514,NaN,750,1,0,incongruent,0,2026.69817001594,1324.3588038471
46,104,2,280,0.5,0.5,-0.5,3,3,0,3,669,1,1,669,1,0,0,NaN,-0.797372942206415,-0.797372942206415,750,1,0,congruent,1,1096.25031651166,3003.47161372018
46,104,2,281,0.5,-0.5,0,4,NaN,0.2,4,601,1,1,601,0,0,0.4,NaN,-1.2548979929368,-1.2548979929368,750,0,0,neutral,0,1836.59228238098,1290.26905704515
46,104,2,282,0.5,0.5,-0.5,2,2,0.2,2,606,1,1,606,1,0,0.4,NaN,-1.22125644508898,-1.22125644508898,750,1,0,congruent,1,839.488979871547,496.881346307284
46,104,2,284,0.5,-0.5,-0.5,1,1,0.4,1,848,1,0,848,0,0,0.8,NaN,0.406994470745626,0.406994470745626,750,1,0,congruent,0,1565.50276635932,1494.98665127738
46,104,2,285,0.5,-0.5,0,4,NaN,0.4,4,802,1,0,802,1,0,0.8,NaN,0.0974922305456605,0.0974922305456605,750,0,0,neutral,1,1918.58611703208,1024.12844267201
46,104,2,287,-0.5,-0.5,0,1,NaN,0.4,1,935,1,0,935,0,0,0.8,0,0.992357403297736,0.992357403297736,750,0,0,neutral,0,3534.93661623428,2343.76139033137
46,104,2,288,-0.5,0.5,0.5,3,1,0.4,3,753,1,0,753,0,0,0.4,0,-0.232194938362999,-0.232194938362999,750,0,0,incongruent,0,663.70844916011,1983.92613418115
46,104,2,292,-0.5,-0.5,-0.5,4,4,0.2,4,680,1,1,680,0,0,0,0,-0.723361536941206,-0.723361536941206,750,1,0,congruent,0,5304.49278373513,2648.49815570791
46,104,2,294,-0.5,-0.5,-0.5,4,4,0,4,845,1,0,845,0,0,0,0,0.386809542036933,0.386809542036933,750,1,0,congruent,0,2839.69546780957,2382.27841477425
46,104,2,299,-0.5,0.5,-0.5,4,4,0,4,588,1,1,588,1,0,0,0,-1.34236601734114,-1.34236601734114,750,1,0,congruent,0.1,3601.85151068634,1692.57357623761
46,104,2,300,0.5,-0.5,-0.5,3,3,0.2,3,548,1,1,548,0,0,0.2,NaN,-1.61149840012372,-1.61149840012372,750,1,0,congruent,0,701.201925118976,792.041991738325
46,104,3,301,-0.5,0.5,0,4,NaN,0.2,4,771,1,0,771,0,0,0.2,0.2,-0.111085366110838,-0.111085366110838,750,0,0,neutral,0,669.570024573992,1060.25618027415
46,104,3,302,0.5,0.5,-0.5,1,1,0.2,1,711,1,1,711,1,0,0.2,NaN,-0.514783940284707,-0.514783940284707,750,1,0,congruent,1,3283.6509056011,2352.80731019511
46,104,3,303,-0.5,-0.5,0,3,NaN,0.4,3,535,1,1,535,0,0,0.6,0,-1.69896642452805,-1.69896642452805,750,0,0,neutral,0,1360.54703203783,1702.43214746999
46,104,3,305,0.5,0.5,0.5,4,2,0.4,2,736,0,1,NaN,0,0,0.4,NaN,-0.346576201045595,NaN,750,1,0,incongruent,0,1055.70587823198,4323.24608579201
46,104,3,306,0.5,0.5,-0.5,3,3,0.4,3,624,1,1,624,1,0,0.4,NaN,-1.10014687283682,-1.10014687283682,750,1,0,congruent,1,1341.10919006588,5359.165836022
46,104,3,307,0.5,0.5,0.5,2,1,0.6,1,951,0,0,NaN,0,0,0.8,NaN,1.10001035641077,NaN,750,1,0,incongruent,0,2777.52603785267,2147.6034570853
46,104,3,308,-0.5,0.5,0.5,3,2,0.4,2,743,0,1,NaN,0,0,0.4,0.2,-0.299478034058644,NaN,750,1,0,incongruent,0,3256.90092149553,1319.72730535617
46,104,3,309,0.5,-0.5,-0.5,4,4,0.4,4,598,1,1,598,0,0,0.4,NaN,-1.27508292164549,-1.27508292164549,750,1,0,congruent,0,1332.30427213148,701.691913425122
46,104,3,311,0.5,-0.5,0.5,3,1,0.2,3,992,1,0,992,0,0,0.4,NaN,1.37587104876291,1.37587104876291,750,0,0,incongruent,0,1219.97626474701,5401.98154473042
46,104,3,317,-0.5,-0.5,0,3,NaN,0,3,831,1,0,831,0,0,0,0,0.29261320806303,0.29261320806303,750,0,0,neutral,0,2840.89304466783,2891.87420901327
46,104,3,319,0.5,-0.5,0,4,NaN,0,4,721,1,1,721,0,0,0,NaN,-0.447500844589062,-0.447500844589062,750,0,0,neutral,0,3034.89884434737,1468.56953679147
46,104,3,320,-0.5,-0.5,-0.5,2,2,0,3,744,0,1,NaN,0,0,0,0,-0.292749724489079,NaN,750,0,1,congruent,0,2806.51575764149,1896.43191516951
46,104,3,321,-0.5,0.5,0,3,NaN,0,3,670,1,1,670,1,0,0,0.2,-0.79064463263685,-0.79064463263685,750,0,0,neutral,0.1,2079.10465314602,1670.74886818172
46,104,3,322,-0.5,0.5,-0.5,1,1,0.2,1,645,1,1,645,1,0,0.2,0.2,-0.958852371875962,-0.958852371875962,750,1,0,congruent,0.1,2227.02528585093,480.282260011306
46,104,3,323,-0.5,-0.5,0,4,NaN,0.4,4,569,1,1,569,0,0,0.4,0,-1.47020389916286,-1.47020389916286,750,0,0,neutral,0,3428.93357208875,3272.33407803095
46,104,3,324,-0.5,-0.5,-0.5,3,3,0.4,1,906,0,0,NaN,0,0,0.4,0,0.797236425780366,NaN,750,0,1,congruent,0,5116.13338463984,977.458777405092
46,104,3,325,0.5,-0.5,0.5,1,4,0.4,4,943,0,0,NaN,0,0,0.4,NaN,1.04618387985425,NaN,750,1,0,incongruent,0,792.14132827995,2171.12153763805
46,104,3,328,0.5,-0.5,0,1,NaN,0.4,3,922,0,0,NaN,0,0,0,NaN,0.904889378893398,NaN,750,0,1,neutral,0,2382.90400706087,1806.53651905364
46,104,3,329,0.5,0.5,0.5,3,1,0.4,3,909,1,0,909,0,0,0,NaN,0.81742135448906,0.81742135448906,750,0,0,incongruent,0,892.906271838823,3095.74500084253
46,104,3,333,-0.5,-0.5,-0.5,1,1,0.2,1,798,1,0,798,0,0,0.6,0.2,0.0705789922674026,0.0705789922674026,750,1,0,congruent,0,3661.60918102003,3143.34013588066
46,104,3,334,0.5,0.5,0.5,2,4,0.2,4,966,0,0,NaN,0,0,0.6,NaN,1.20093499995423,NaN,750,1,0,incongruent,0,1192.68169026782,480.38357759293
46,104,3,335,0.5,0.5,0,4,NaN,0,4,734,1,1,734,1,0,0.6,NaN,-0.360032820184724,-0.360032820184724,750,0,0,neutral,1,3800.83744180354,1675.66526467692
46,104,3,339,-0.5,0.5,0,4,NaN,0.2,3,901,0,0,NaN,0,0,0.8,0.4,0.763594877932544,NaN,750,0,1,neutral,0,2566.78823054927,1678.80098306853
46,104,3,342,-0.5,-0.5,0,2,NaN,0.2,2,989,1,0,989,1,0,0.4,0.2,1.35568612005422,1.35568612005422,750,0,0,neutral,0.1,3433.85452708547,227.444549483159
46,104,3,343,-0.5,0.5,0.5,3,1,0.2,1,889,0,0,NaN,0,0,0.6,0.4,0.68285516309777,NaN,750,1,0,incongruent,0,1695.93646258576,2043.39633006684
46,104,3,344,-0.5,-0.5,0,1,NaN,0.2,1,779,1,0,779,0,0,0.2,0.2,-0.0572588895543224,-0.0572588895543224,750,0,0,neutral,0,766.46826499579,11374.297417229
46,104,3,345,0.5,-0.5,0.5,4,3,0.2,4,824,1,0,824,1,0,0.2,NaN,0.245515041076079,0.245515041076079,750,0,0,incongruent,1,1448.2705613113,3164.22069241043
46,104,3,347,-0.5,-0.5,-0.5,4,4,0.2,4,787,1,0,787,0,0,0.6,0.2,-0.00343241299780661,-0.00343241299780661,750,1,0,congruent,0,2118.00171277843,4116.08562625156
46,104,3,354,0.5,-0.5,-0.5,4,4,0,4,569,1,1,569,0,0,0,NaN,-1.47020389916286,-1.47020389916286,750,1,0,congruent,0,1501.37484625087,1314.84866756767
46,104,3,357,0.5,-0.5,0.5,3,2,0,3,958,1,0,958,0,0,0,NaN,1.14710852339772,1.14710852339772,750,0,0,incongruent,0,3601.58424957844,1501.52686637462
46,104,3,364,0.5,-0.5,0.5,2,3,0,3,745,0,1,NaN,0,0,0,NaN,-0.286021414919515,NaN,750,1,0,incongruent,0,951.178572176078,2486.4599999337
46,104,3,365,0.5,-0.5,0,4,NaN,0,4,895,1,0,895,0,0,0,NaN,0.723225020515157,0.723225020515157,750,0,0,neutral,0,1346.3064299639,2861.30707750822
46,104,3,373,-0.5,0.5,-0.5,4,4,0,4,735,1,1,735,1,0,0,0,-0.353304510615159,-0.353304510615159,750,1,0,congruent,0.1,1747.82567331128,2728.1202394998
46,104,3,377,-0.5,-0.5,0,3,NaN,0.2,4,881,0,0,NaN,0,0,0.2,0,0.629028686541254,NaN,750,0,1,neutral,0,1173.61703214811,3556.75661441519
46,104,3,381,-0.5,0.5,-0.5,3,3,0.2,3,1000,1,0,1000,0,0,0,0.2,1.42969752531943,1.42969752531943,750,1,0,congruent,0,3201.94344263537,8044.68657946803
46,104,3,383,0.5,-0.5,-0.5,2,2,0.2,4,466,0,1,NaN,1,0,0.2,NaN,-2.163219784828,NaN,750,0,1,congruent,1,679.109212885726,1948.5259990247
46,104,3,390,0.5,-0.5,-0.5,3,3,0,3,721,1,1,721,0,0,0,NaN,-0.447500844589062,-0.447500844589062,750,1,0,congruent,0,3413.15391996649,1808.76561552351
46,104,3,395,0.5,0.5,-0.5,4,4,0,4,917,1,0,917,0,0,0,NaN,0.871247831045575,0.871247831045575,750,1,0,congruent,0,2739.39888452198,2611.41086001198
46,104,3,397,0.5,0.5,-0.5,4,4,0,4,621,1,1,621,1,0,0,NaN,-1.12033180154551,-1.12033180154551,750,1,0,congruent,1,3100.8836639872,3613.57785799338
46,104,3,399,-0.5,0.5,0,2,NaN,0.2,2,762,1,0,762,0,0,0.4,0,-0.171640152236919,-0.171640152236919,750,0,0,neutral,0,2365.2584336568,1809.47176323048
46,104,3,400,0.5,0.5,0.5,4,3,0.2,3,831,0,0,NaN,0,0,0.4,NaN,0.29261320806303,NaN,750,1,0,incongruent,0,2276.32855693563,2643.53364533999
46,104,3,402,-0.5,-0.5,-0.5,4,4,0.2,4,797,1,0,797,0,0,0.4,0.2,0.0638506826978382,0.0638506826978382,750,1,0,congruent,0,9686.73471318558,1358.65613152031
46,104,3,405,-0.5,0.5,-0.5,2,2,0,3,727,0,1,NaN,0,0,0,0,-0.407130987171675,NaN,750,0,1,congruent,0,2209.98729306447,1955.13310525583
46,104,3,409,-0.5,-0.5,0,2,NaN,0,4,71,0,1,NaN,0,0,0,0,-4.82090206480597,NaN,750,0,1,neutral,0,4762.01028667857,916.713721610005
46,104,3,410,-0.5,0.5,-0.5,1,1,0,2,937,0,0,NaN,0,0,0,0,1.00581402243686,NaN,750,0,1,congruent,0,4995.24144545953,523.986109741819
46,104,3,411,-0.5,0.5,-0.5,3,3,0,3,957,1,0,957,0,0,0,0,1.14038021382815,1.14038021382815,750,1,0,congruent,0,1080.42616465642,5865.59211603007
46,104,3,418,0.5,0.5,0.5,4,3,0,3,727,0,1,NaN,0,0,0,NaN,-0.407130987171675,NaN,750,1,0,incongruent,0,803.100403748926,5097.76164782918
46,104,3,420,0.5,0.5,-0.5,4,4,0,2,109,0,1,NaN,0,0,0,NaN,-4.56522630116252,NaN,750,0,1,congruent,0,3242.72842075894,3949.2695504782
46,104,3,425,0.5,-0.5,-0.5,1,1,0,2,819,0,0,NaN,0,0,0,NaN,0.211873493228257,NaN,750,0,1,congruent,0,2324.38933883318,4967.55211394259
46,104,3,426,0.5,0.5,-0.5,2,2,0,3,902,0,0,NaN,0,0,0,NaN,0.770323187502108,NaN,750,0,1,congruent,0,3116.6536197965,1751.12567870315
46,104,3,434,-0.5,0.5,-0.5,3,3,0,3,717,1,1,717,1,0,0,0,-0.47441408286732,-0.47441408286732,750,1,0,congruent,0.1,874.234675460132,2168.10719140762
46,104,3,439,0.5,0.5,-0.5,2,2,0.2,2,744,1,1,744,1,0,0.2,NaN,-0.292749724489079,-0.292749724489079,750,1,0,congruent,1,2112.68371207041,1733.0655687204
46,104,3,441,0.5,0.5,0.5,2,4,0.2,4,428,0,1,NaN,0,0,0.4,NaN,-2.41889554847145,NaN,750,1,0,incongruent,0,1627.29870931033,1517.08850541231
46,104,3,443,0.5,0.5,-0.5,4,4,0.2,4,814,1,0,814,0,0,0.4,NaN,0.178231945380434,0.178231945380434,750,1,0,congruent,0,1211.99715762465,3626.11736181194
46,104,3,446,0.5,0.5,0.5,4,3,0,4,747,1,1,747,1,0,0,NaN,-0.272564795780386,-0.272564795780386,750,0,0,incongruent,1,1174.56069587637,931.533435866333
46,104,3,447,0.5,-0.5,0,3,NaN,0.2,3,924,1,0,924,1,0,0.4,NaN,0.918345998032527,0.918345998032527,750,0,0,neutral,1,2601.94060225588,576.90928642412
46,104,4,452,0.5,0.5,0.5,1,3,0.2,3,795,0,0,NaN,0,0,0.8,NaN,0.0503940635587092,NaN,750,1,0,incongruent,0,983.559321122378,3070.25605236421
46,104,4,453,0.5,0.5,0.5,4,1,0.2,1,757,0,0,NaN,0,0,0.4,NaN,-0.205281700084741,NaN,750,1,0,incongruent,0,3000.2436910761,1903.44025415455
46,104,4,455,0.5,-0.5,-0.5,4,4,0.2,4,576,1,1,576,1,0,0.4,NaN,-1.42310573217591,-1.42310573217591,750,1,0,congruent,1,854.563184671124,2537.04312815963
46,104,4,457,-0.5,0.5,0.5,4,2,0.2,2,753,0,0,NaN,0,0,0.8,0.2,-0.232194938362999,NaN,750,1,0,incongruent,0,1064.54669406908,1887.81281794568
46,104,4,458,-0.5,0.5,0,1,NaN,0,1,814,1,0,814,0,0,0.8,0,0.178231945380434,0.178231945380434,750,0,0,neutral,0,7360.00196070906,763.561611704696
46,104,4,459,0.5,0.5,-0.5,4,4,0,4,780,1,0,780,0,0,0.8,NaN,-0.0505305799847579,-0.0505305799847579,750,1,0,congruent,0,4887.54643644566,1418.80596582917
46,104,4,460,-0.5,0.5,-0.5,1,1,0,1,532,1,1,532,1,0,0.8,0,-1.71915135323675,-1.71915135323675,750,1,0,congruent,0.1,1402.32114452985,1645.1553092368
46,104,4,461,-0.5,0.5,0,2,NaN,0.2,2,902,1,0,902,0,0,0.6,0.2,0.770323187502108,0.770323187502108,750,0,0,neutral,0,3791.33740110282,3446.32714287276
46,104,4,462,-0.5,-0.5,-0.5,4,4,0.2,4,716,1,1,716,0,0,0.2,0,-0.481142392436884,-0.481142392436884,750,1,0,congruent,0,1711.81530975209,1364.5309337889
46,104,4,463,-0.5,0.5,-0.5,2,2,0.2,2,878,1,0,878,0,0,0.2,0.2,0.608843757832561,0.608843757832561,750,1,0,congruent,0,677.942996872902,7144.33349516322
46,104,4,465,0.5,-0.5,-0.5,2,2,0.4,2,661,1,1,661,0,0,0.4,NaN,-0.851199418762931,-0.851199418762931,750,1,0,congruent,0,1848.23069011422,1613.43657984281
46,104,4,466,-0.5,0.5,0,1,NaN,0.4,1,660,1,1,660,1,0,0.2,0.4,-0.857927728332495,-0.857927728332495,750,0,0,neutral,0.1,1340.28326448108,1482.28339313973
46,104,4,467,0.5,-0.5,-0.5,3,3,0.6,3,902,1,0,902,1,0,0.4,NaN,0.770323187502108,0.770323187502108,750,1,0,congruent,1,828.569755843305,1260.95882031023
46,104,4,468,-0.5,-0.5,-0.5,2,2,0.6,2,723,1,1,723,1,0,0.8,0,-0.434044225449933,-0.434044225449933,750,1,0,congruent,0.1,1769.76558113813,1688.62458102454
46,104,4,470,0.5,-0.5,0.5,2,3,0.4,4,946,0,0,NaN,0,0,0.8,NaN,1.06636880856295,NaN,750,0,1,incongruent,0,3017.32653298156,707.792243956528
46,104,4,471,0.5,0.5,0,4,NaN,0.4,4,676,1,1,676,1,0,0.8,NaN,-0.750274775219463,-0.750274775219463,750,0,0,neutral,1,1153.29913525344,628.510683659636
46,104,4,472,0.5,0.5,-0.5,3,3,0.6,3,766,1,0,766,0,0,1,NaN,-0.144726913958661,-0.144726913958661,750,1,0,congruent,0,2321.88679329342,883.691019505754
46,104,4,473,0.5,0.5,0,1,NaN,0.6,1,787,1,0,787,0,0,0.6,NaN,-0.00343241299780661,-0.00343241299780661,750,0,0,neutral,0,881.65733937078,2591.98305855891
46,104,4,474,-0.5,-0.5,-0.5,2,2,0.4,2,861,1,0,861,0,0,0.4,0.2,0.494462495149965,0.494462495149965,750,1,0,congruent,0,3366.65447606495,1024.44866822368
46,104,4,476,0.5,-0.5,-0.5,2,2,0.4,2,930,1,0,930,0,0,0.6,NaN,0.958715855449913,0.958715855449913,750,1,0,congruent,0,1973.4425310762,990.1845518306
46,104,4,477,0.5,0.5,-0.5,1,1,0.4,1,959,1,0,959,0,0,0.2,NaN,1.15383683296728,1.15383683296728,750,1,0,congruent,0,1153.02998936779,1205.05964788673
46,104,4,478,0.5,0.5,-0.5,2,2,0.2,2,864,1,0,864,0,0,0.2,NaN,0.514647423858658,0.514647423858658,750,1,0,congruent,0,3154.0140879085,3907.10229701125
46,104,4,479,0.5,-0.5,0.5,1,3,0.2,3,751,0,0,NaN,0,0,0.2,NaN,-0.245651557502128,NaN,750,1,0,incongruent,0,1188.44137604695,1883.07066017489
46,104,4,480,0.5,-0.5,0.5,2,1,0.2,3,955,0,0,NaN,0,0,0.2,NaN,1.12692359468903,NaN,750,0,1,incongruent,0,1138.59814605601,3276.68826257709
46,104,4,481,-0.5,0.5,0,3,NaN,0.2,3,778,1,0,778,0,0,0,0.6,-0.0639871991238869,-0.0639871991238869,750,0,0,neutral,0,1899.66398749068,841.918153388582
46,104,4,482,-0.5,0.5,-0.5,2,2,0,2,862,1,0,862,0,0,0,0.4,0.501190804719529,0.501190804719529,750,1,0,congruent,0,1883.2758030694,1029.77534397541
46,104,4,483,0.5,0.5,0.5,1,3,0,2,891,0,0,NaN,0,0,0,NaN,0.696311782236899,NaN,750,0,1,incongruent,0,279.768587799983,2101.65499794036
46,104,4,484,0.5,-0.5,0.5,4,2,0,3,743,0,1,NaN,0,0,0,NaN,-0.299478034058644,NaN,750,0,1,incongruent,0,509.549549951029,1385.24299495218
46,104,4,487,-0.5,0.5,-0.5,3,3,0,3,943,1,0,943,0,0,0,0.4,1.04618387985425,1.04618387985425,750,1,0,congruent,0,2391.43368644524,846.178608895081
46,104,4,488,0.5,-0.5,-0.5,1,1,0,3,745,0,1,NaN,0,0,0,NaN,-0.286021414919515,NaN,750,0,1,congruent,0,1294.15603404657,1631.29404218944
46,104,4,490,0.5,-0.5,0.5,4,3,0,3,913,0,0,NaN,0,0,0,NaN,0.844334592767317,NaN,750,1,0,incongruent,0,1620.91818007351,2232.45519610753
46,104,4,491,-0.5,-0.5,-0.5,1,1,0,3,988,0,0,NaN,0,0,0,0.4,1.34895781048465,NaN,750,0,1,congruent,0,2452.72311580967,631.88868266326
46,104,4,492,-0.5,-0.5,-0.5,2,2,0,3,700,0,1,NaN,0,0,0,0.4,-0.588795345549916,NaN,750,0,1,congruent,0,3983.62224515297,2006.18055524516
46,104,4,493,0.5,0.5,0,1,NaN,0,1,663,1,1,663,1,0,0,NaN,-0.837742799623802,-0.837742799623802,750,0,0,neutral,1,3459.22020879434,1491.09536649664
46,104,4,494,-0.5,0.5,-0.5,4,4,0.2,4,586,1,1,586,1,0,0.4,0.2,-1.35582263648027,-1.35582263648027,750,1,0,congruent,0.1,722.753774177721,657.971711207394
46,104,4,495,0.5,0.5,0.5,3,1,0.4,3,735,1,1,735,1,0,0.6,NaN,-0.353304510615159,-0.353304510615159,750,0,0,incongruent,1,2338.01271786061,2780.58913357192
46,104,4,496,0.5,-0.5,0,4,NaN,0.6,4,585,1,1,585,0,0,1,NaN,-1.36255094604983,-1.36255094604983,750,0,0,neutral,0,1015.13295826735,871.667612991573
46,104,4,497,-0.5,0.5,-0.5,3,3,0.6,3,812,1,0,812,0,0,1,0.2,0.164775326241305,0.164775326241305,750,1,0,congruent,0,1605.90510906775,2871.72971485781
46,104,4,498,-0.5,-0.5,-0.5,1,1,0.6,1,708,1,1,708,0,0,1,0.2,-0.5349688689934,-0.5349688689934,750,1,0,congruent,0,10470.6111075075,1410.68883816096
46,104,4,499,0.5,-0.5,-0.5,4,4,0.6,4,844,1,0,844,1,0,0.6,NaN,0.380081232467369,0.380081232467369,750,1,0,congruent,1,2299.82394140454,2900.21480693294
46,104,4,500,0.5,-0.5,0.5,2,3,0.6,3,950,0,0,NaN,0,0,0.8,NaN,1.0932820468412,NaN,750,1,0,incongruent,0,1751.52060598928,2078.39173171237
46,104,4,501,-0.5,-0.5,0,4,NaN,0.6,4,641,1,1,641,0,0,0.4,0.2,-0.98576561015422,-0.98576561015422,750,0,0,neutral,0,1050.36108695272,2757.03000138573
46,104,4,502,0.5,0.5,-0.5,1,1,0.6,3,891,0,0,NaN,0,0,0.4,NaN,0.696311782236899,NaN,750,0,1,congruent,0,1533.87350604392,1038.50914233386
46,104,4,503,-0.5,-0.5,0,3,NaN,0.6,3,782,1,0,782,0,0,0.4,0,-0.037073960845629,-0.037073960845629,750,0,0,neutral,0,4252.54837843112,1335.46678256021
46,104,4,504,-0.5,-0.5,-0.5,2,2,0.6,2,868,1,0,868,1,0,0.4,0,0.541560662136916,0.541560662136916,750,1,0,congruent,0.1,2127.43132915727,1861.80971426856
46,104,4,505,0.5,-0.5,0.5,3,4,0.6,4,637,0,1,NaN,1,0,0.2,NaN,-1.01267884843248,NaN,750,1,0,incongruent,1,531.577616203658,1663.11153298118
46,104,4,507,-0.5,0.5,-0.5,3,3,0.4,3,725,1,1,725,1,0,0.6,0.2,-0.420587606310804,-0.420587606310804,750,1,0,congruent,0.1,3761.35208795556,1920.56002050932
46,104,4,508,0.5,0.5,0.5,4,1,0.4,2,818,0,0,NaN,0,0,0.8,NaN,0.205145183658692,NaN,750,0,1,incongruent,0,1939.05440158243,887.624350872477
46,104,4,509,0.5,0.5,-0.5,2,2,0.2,2,747,1,1,747,1,0,0.8,NaN,-0.272564795780386,-0.272564795780386,750,1,0,congruent,1,698.45313702192,229.202769016099
46,104,4,510,0.5,-0.5,-0.5,4,4,0.4,4,657,1,1,657,0,0,1,NaN,-0.878112657041188,-0.878112657041188,750,1,0,congruent,0,1848.45053435869,1380.62531996668
46,104,4,511,-0.5,0.5,-0.5,2,2,0.4,3,820,0,0,NaN,0,0,0.6,0.4,0.218601802797821,NaN,750,0,1,congruent,0,3035.38178741265,2596.7592093594
46,104,4,514,0.5,-0.5,-0.5,3,3,0.4,3,809,1,0,809,1,0,0.8,NaN,0.144590397532612,0.144590397532612,750,1,0,congruent,1,1109.68473397702,992.831670698731
46,104,4,516,0.5,-0.5,0.5,1,4,0.4,3,984,0,0,NaN,0,0,0.8,NaN,1.3220445722064,NaN,750,0,1,incongruent,0,1822.7225186096,504.672678564785
46,104,4,517,-0.5,0.5,0.5,4,3,0.4,3,957,0,0,NaN,0,0,0.8,0.4,1.14038021382815,NaN,750,1,0,incongruent,0,1149.45854766871,880.944201160077
46,104,4,518,-0.5,-0.5,0,2,NaN,0.2,2,913,1,0,913,0,0,0.8,0.2,0.844334592767317,0.844334592767317,750,0,0,neutral,0,1213.92987112014,1863.81710504308
46,104,4,519,0.5,-0.5,-0.5,3,3,0.2,3,668,1,1,668,0,0,0.4,NaN,-0.804101251775979,-0.804101251775979,750,1,0,congruent,0,1344.46085976712,953.780143142496
46,104,4,520,0.5,0.5,0.5,4,1,0.2,1,710,0,1,NaN,0,0,0,NaN,-0.521512249854271,NaN,750,1,0,incongruent,0,1076.97106642727,1275.46834700032
46,104,4,522,0.5,0.5,-0.5,4,4,0,4,669,1,1,669,1,0,0,NaN,-0.797372942206415,-0.797372942206415,750,1,0,congruent,1,2086.10008534774,2354.07754496252
46,104,4,523,-0.5,0.5,-0.5,3,3,0.2,3,672,1,1,672,1,0,0.4,0.2,-0.777188013497721,-0.777188013497721,750,1,0,congruent,0.1,2908.3549145817,2179.40807854888
46,104,4,524,0.5,-0.5,0,2,NaN,0.4,2,826,1,0,826,1,0,0.6,NaN,0.258971660215208,0.258971660215208,750,0,0,neutral,1,1232.41767032427,818.129472231603
46,104,4,525,-0.5,-0.5,-0.5,4,4,0.4,4,749,1,1,749,0,0,1,0.2,-0.259108176641257,-0.259108176641257,750,1,0,congruent,0,1286.19858774121,553.231559483576
46,104,4,527,0.5,-0.5,0,4,NaN,0.4,4,893,1,0,893,0,0,1.4,NaN,0.709768401376028,0.709768401376028,750,0,0,neutral,0,965.47579992322,874.059101919849
46,104,4,528,0.5,-0.5,0.5,3,1,0.4,1,787,0,0,NaN,0,0,1,NaN,-0.00343241299780661,NaN,750,1,0,incongruent,0,815.897711017,1579.45829004075
46,104,4,529,0.5,0.5,0.5,4,3,0.4,3,826,0,0,NaN,0,0,0.8,NaN,0.258971660215208,NaN,750,1,0,incongruent,0,2027.20551604184,921.277074189354
46,104,4,531,0.5,0.5,-0.5,4,4,0.4,4,595,1,1,595,1,0,0.4,NaN,-1.29526785035419,-1.29526785035419,750,1,0,congruent,1,1966.93673609516,783.472835703826
46,104,4,532,0.5,-0.5,0,1,NaN,0.6,1,838,1,0,838,1,0,0.4,NaN,0.339711375049982,0.339711375049982,750,0,0,neutral,1,2161.83422054177,930.570214838118
46,104,4,533,0.5,-0.5,-0.5,3,3,0.6,3,886,1,0,886,1,0,0.8,NaN,0.662670234389076,0.662670234389076,750,1,0,congruent,1,1307.98017188591,3972.43112309442
46,104,4,535,-0.5,0.5,0.5,1,2,0.6,3,971,0,0,NaN,0,0,1.2,0.2,1.23457654780206,NaN,750,0,1,incongruent,0,591.315518712551,443.360535914816
46,104,4,536,-0.5,-0.5,0,3,NaN,0.4,2,979,0,0,NaN,1,0,1.2,0.2,1.28840302435857,NaN,750,0,1,neutral,0.1,95.0066040597242,1635.19838876906
46,104,4,538,-0.5,-0.5,-0.5,3,3,0.2,3,943,1,0,943,0,0,0.6,0.4,1.04618387985425,1.04618387985425,750,1,0,congruent,0,1161.37178598521,2321.9995391613
46,104,4,539,-0.5,0.5,-0.5,4,4,0.2,4,668,1,1,668,1,0,0.2,0.2,-0.804101251775979,-0.804101251775979,750,1,0,congruent,0.1,1286.03298510541,847.715719929519
46,104,4,540,-0.5,0.5,-0.5,3,3,0.4,3,714,1,1,714,1,0,0.4,0.4,-0.494599011576013,-0.494599011576013,750,1,0,congruent,0.1,2197.20922999381,1940.77965519663
46,104,4,541,-0.5,0.5,0,1,NaN,0.6,1,799,1,0,799,0,0,0.6,0.6,0.0773073018369671,0.0773073018369671,750,0,0,neutral,0,2013.47616837072,1075.96483521109
46,104,4,542,0.5,-0.5,-0.5,3,3,0.4,3,942,1,0,942,0,0,0.4,NaN,1.03945557028469,1.03945557028469,750,1,0,congruent,0,2438.79400907968,1335.86655198198
46,104,4,543,-0.5,-0.5,0.5,2,4,0.4,2,849,1,0,849,0,0,0.4,0.2,0.413722780315191,0.413722780315191,750,0,0,incongruent,0,742.947909516932,2048.98468561909
46,104,4,544,-0.5,-0.5,-0.5,3,3,0.4,4,823,0,0,NaN,0,0,0.4,0.2,0.238786731506515,NaN,750,0,1,congruent,0,1158.02528332246,1046.45316285476
46,104,4,547,-0.5,0.5,-0.5,1,1,0.4,1,730,1,1,730,1,0,0.4,0.4,-0.386946058462982,-0.386946058462982,750,1,0,congruent,0.1,1160.21872983009,567.034089947225
46,104,4,548,-0.5,0.5,0,2,NaN,0.6,1,895,0,0,NaN,0,0,0.6,0.6,0.723225020515157,NaN,750,0,1,neutral,0,1536.58973609761,871.322706474284
46,104,4,550,-0.5,0.5,0.5,2,4,0.2,2,917,1,0,917,0,0,0.6,0.6,0.871247831045575,0.871247831045575,750,0,0,incongruent,0,1586.36528566212,1791.30589444321
46,104,4,552,0.5,-0.5,-0.5,1,1,0.2,1,823,1,0,823,0,0,0.2,NaN,0.238786731506515,0.238786731506515,750,1,0,congruent,0,1375.48459451534,1540.88480009438
46,104,4,553,0.5,0.5,-0.5,4,4,0.2,4,656,1,1,656,1,0,0,NaN,-0.884840966610753,-0.884840966610753,750,1,0,congruent,1,318.709144567235,814.202057794825
46,104,4,554,-0.5,0.5,-0.5,2,2,0.2,3,740,0,1,NaN,0,0,0.4,0.4,-0.319662962767337,NaN,750,0,1,congruent,0,1082.30905242375,1324.48987057975
46,104,4,557,-0.5,-0.5,-0.5,1,1,0.2,1,857,1,0,857,0,0,0.6,0.4,0.467549256871707,0.467549256871707,750,1,0,congruent,0,1645.5963690738,800.623827124594
46,104,4,558,0.5,0.5,0,2,NaN,0.2,3,602,0,1,NaN,0,0,0.6,NaN,-1.24816968336723,NaN,750,0,1,neutral,0,1074.46438677137,377.285260188205
46,104,4,560,-0.5,-0.5,0.5,4,1,0.2,1,777,0,0,NaN,0,0,0.6,0.2,-0.0707155086934514,NaN,750,1,0,incongruent,0,886.115344541113,1074.33495488643
46,104,4,561,-0.5,-0.5,-0.5,3,3,0.2,3,943,1,0,943,1,0,0.6,0.2,1.04618387985425,1.04618387985425,750,1,0,congruent,0.1,2190.00347180283,451.877869068177
46,104,4,562,0.5,0.5,-0.5,4,4,0.2,4,522,1,1,522,1,0,0.6,NaN,-1.78643444893239,-1.78643444893239,750,1,0,congruent,1,435.204032738092,580.884110524734
46,104,4,567,-0.5,0.5,-0.5,2,2,0.4,2,825,1,0,825,0,0,0.8,0,0.252243350645643,0.252243350645643,750,1,0,congruent,0,4000.81129138307,1500.42881522976
46,104,4,568,0.5,0.5,0.5,1,3,0.4,1,993,1,0,993,0,0,0.4,NaN,1.38259935833248,1.38259935833248,750,0,0,incongruent,0,637.801961385426,1181.47476534926
46,104,4,569,0.5,0.5,0,3,NaN,0.2,3,843,1,0,843,0,0,0.4,NaN,0.373352922897804,0.373352922897804,750,0,0,neutral,0,492.181871057178,1699.58592515087
46,104,4,572,-0.5,-0.5,-0.5,2,2,0.2,2,721,1,1,721,0,0,0,0.4,-0.447500844589062,-0.447500844589062,750,1,0,congruent,0,1868.22474642822,544.193454533022
46,104,4,573,0.5,0.5,0,1,NaN,0.2,1,742,1,1,742,1,0,0,NaN,-0.306206343628208,-0.306206343628208,750,0,0,neutral,1,437.945290573908,1558.40249686116
46,104,4,575,0.5,0.5,0,1,NaN,0.2,1,861,1,0,861,0,0,0.4,NaN,0.494462495149965,0.494462495149965,750,0,0,neutral,0,964.998278172611,1139.00602490983
46,104,4,576,0.5,-0.5,-0.5,2,2,0.2,2,623,1,1,623,0,0,0.4,NaN,-1.10687518240638,-1.10687518240638,750,1,0,congruent,0,1478.40135062749,1444.81337210933
46,104,4,578,-0.5,0.5,-0.5,2,2,0.2,3,692,0,1,NaN,0,0,0.4,0,-0.642621822106432,NaN,750,0,1,congruent,0,4163.82158233079,1829.73599176395
46,104,4,579,-0.5,0.5,-0.5,1,1,0.2,1,724,1,1,724,1,0,0,0,-0.427315915880369,-0.427315915880369,750,1,0,congruent,0.1,335.625133697024,2060.75291882563
46,104,4,580,-0.5,0.5,0,3,NaN,0.4,3,666,1,1,666,1,0,0.2,0.2,-0.817557870915108,-0.817557870915108,750,0,0,neutral,0.1,864.791658366328,2769.94868425692
46,104,4,581,-0.5,-0.5,0.5,4,3,0.4,4,884,1,0,884,1,0,0.4,0.2,0.649213615249948,0.649213615249948,750,0,0,incongruent,0.1,1080.63662656897,626.4287321737
46,104,4,583,0.5,0.5,0.5,4,3,0.4,3,888,0,0,NaN,0,0,0.6,NaN,0.676126853528205,NaN,750,1,0,incongruent,0,2281.00623975712,1133.32649343987
46,104,4,584,-0.5,0.5,-0.5,1,1,0.4,1,611,1,1,611,1,0,0.6,0.4,-1.18761489724115,-1.18761489724115,750,1,0,congruent,0.1,954.557414705483,822.377122342289
46,104,4,585,-0.5,-0.5,0,3,NaN,0.6,3,878,1,0,878,1,0,0.6,0.4,0.608843757832561,0.608843757832561,750,0,0,neutral,0.1,1046.91800400015,553.602740280024
46,104,4,586,-0.5,-0.5,-0.5,1,1,0.6,1,721,1,1,721,1,0,0.6,0.4,-0.447500844589062,-0.447500844589062,750,1,0,congruent,0.1,1759.82822291275,2474.07271961002
46,104,4,587,-0.5,-0.5,0.5,2,3,0.6,3,888,0,0,NaN,0,0,0.6,0.6,0.676126853528205,NaN,750,1,0,incongruent,0,2322.24807894645,1185.09237242067
46,104,4,588,-0.5,0.5,0,4,NaN,0.6,4,716,1,1,716,1,0,0.6,0.6,-0.481142392436884,-0.481142392436884,750,0,0,neutral,0.1,1757.66890799047,636.571876859923
46,104,4,589,0.5,0.5,-0.5,1,1,0.6,3,870,0,0,NaN,0,0,0.8,NaN,0.555017281276045,NaN,750,0,1,congruent,0,1504.75802558288,775.611775997843
46,104,4,590,-0.5,0.5,-0.5,4,4,0.4,4,663,1,1,663,1,0,0.6,0.8,-0.837742799623802,-0.837742799623802,750,1,0,congruent,0.1,1596.56319131279,782.422091110936
46,104,4,591,0.5,-0.5,-0.5,3,3,0.6,3,794,1,0,794,0,0,0.6,NaN,0.0436657539891447,0.0436657539891447,750,1,0,congruent,0,638.810652355655,2110.82938598983
46,104,4,592,0.5,0.5,0,4,NaN,0.6,4,726,1,1,726,1,0,0.4,NaN,-0.41385929674124,-0.41385929674124,750,0,0,neutral,1,294.882649844015,903.520605059643
46,104,4,594,0.5,-0.5,0,4,NaN,0.8,4,808,1,0,808,1,0,0.8,NaN,0.137862087963047,0.137862087963047,750,0,0,neutral,1,3293.17393238783,1094.79059732643
46,104,4,595,-0.5,-0.5,-0.5,1,1,0.8,1,611,1,1,611,1,0,1.2,0.8,-1.18761489724115,-1.18761489724115,750,1,0,congruent,0.1,2600.69549522855,652.291937238929
46,104,4,596,-0.5,-0.5,0,2,NaN,0.8,2,950,1,0,950,1,0,1.2,0.8,1.0932820468412,1.0932820468412,750,0,0,neutral,0.1,891.173775450377,734.097380868528
46,104,4,597,-0.5,0.5,-0.5,1,1,0.8,1,595,1,1,595,1,0,1.4,1,-1.29526785035419,-1.29526785035419,750,1,0,congruent,0.1,734.762678068432,1824.84917746803
46,104,4,598,-0.5,-0.5,-0.5,4,4,0.8,4,676,1,1,676,1,0,1.2,0.8,-0.750274775219463,-0.750274775219463,750,1,0,congruent,0.1,995.255850006368,1164.45645962015
46,104,4,599,-0.5,-0.5,0,3,NaN,0.8,3,763,1,0,763,1,0,1.2,0.8,-0.164911842667354,-0.164911842667354,750,0,0,neutral,0.1,1028.28477665517,339.566992645817
46,104,4,600,0.5,0.5,-0.5,4,4,0.8,4,618,1,1,618,1,0,1,NaN,-1.1405167302542,-1.1405167302542,750,1,0,congruent,1,510.867277508212,935.72770922995
