subid,vers,block,trial,rewlvl,efflvl,congruency,targetresp,distractorresp,rollingefflvl,resp,rt,acc,fast,accrt,isrewarded,ismiss,runavgrrgen,runavgrrcond,zrt,acczrt,rtthreshold,isdisterror,isranderror,congruence,feedback,fcz_resp_theta,fcz_resp_theta_baseline
49,104,1,1,-0.5,0.5,-0.5,1,1,0.3,1,475,1,1,475,1,0,0,0,-1.2797962868298,-1.2797962868298,750,1,0,congruent,0.1,898.516507817629,2951.88706816163
49,104,1,2,0.5,0.5,0.5,3,4,0.4,3,925,1,0,925,0,0,0.2,NaN,2.24928653013548,2.24928653013548,750,0,0,incongruent,0,3725.88103300995,1200.45864022799
49,104,1,3,-0.5,0.5,0,2,NaN,0.4,2,648,1,1,648,1,0,0.2,0.2,0.0769399961368474,0.0769399961368474,750,0,0,neutral,0.1,3341.61344884389,2703.82157729851
49,104,1,4,0.5,-0.5,0.5,3,4,0.5,3,808,1,0,808,0,0,0.4,NaN,1.3317249977245,1.3317249977245,750,0,0,incongruent,0,3604.83928642481,5320.909075101
49,104,1,5,0.5,-0.5,0,4,NaN,0.5,4,695,1,1,695,0,0,0.4,NaN,0.445533090353221,0.445533090353221,750,0,0,neutral,0,3611.68956141656,1426.23936429409
49,104,1,6,-0.5,-0.5,-0.5,1,1,0.5,1,472,1,1,472,0,0,0.4,0,-1.30332350560957,-1.30332350560957,750,1,0,congruent,0,6406.50302761776,1062.54895568896
49,104,1,8,0.5,-0.5,-0.5,2,2,0.4,1,459,0,1,NaN,0,0,0.2,NaN,-1.40527478698857,NaN,750,0,1,congruent,0,2118.79032150685,1470.22881346356
49,104,1,9,0.5,-0.5,-0.5,1,1,0.4,1,570,1,1,570,0,0,0,NaN,-0.534767692137134,-0.534767692137134,750,1,0,congruent,0,2787.0600236961,1256.59512370039
49,104,1,10,0.5,-0.5,-0.5,3,3,0.4,3,808,1,0,808,0,0,0,NaN,1.3317249977245,1.3317249977245,750,1,0,congruent,0,6387.08330757645,4267.9070291352
49,104,1,11,-0.5,-0.5,0.5,1,4,0.4,1,760,1,0,760,1,0,0,0,0.955289497248206,0.955289497248206,750,0,0,incongruent,0.1,2594.80505131764,3246.13258690882
49,104,1,12,-0.5,-0.5,-0.5,3,3,0.4,3,784,1,0,784,1,0,0.2,0.2,1.14350724748635,1.14350724748635,750,1,0,congruent,0.1,9581.18905384058,3193.14457370875
49,104,1,13,0.5,0.5,-0.5,1,1,0.4,1,381,1,1,381,1,0,0.4,NaN,-2.01698247526255,-2.01698247526255,750,1,0,congruent,1,2719.39088042129,2749.75343829585
49,104,1,14,0.5,0.5,-0.5,3,3,0.6,3,691,1,1,691,1,0,0.8,NaN,0.41416346531353,0.41416346531353,750,1,0,congruent,1,3751.96074301869,3065.44292184725
49,104,1,15,-0.5,-0.5,-0.5,4,4,0.6,4,610,1,1,610,0,0,1.2,0.4,-0.221071441740221,-0.221071441740221,750,1,0,congruent,0,3748.99959618851,1393.4965598926
49,104,1,16,0.5,-0.5,0.5,2,1,0.6,1,663,0,1,NaN,0,0,1.2,NaN,0.19457609003569,NaN,750,1,0,incongruent,0,6086.52130524996,3427.85277814207
49,104,1,17,-0.5,0.5,0,4,NaN,0.6,4,745,1,1,745,1,0,1,0.4,0.837653403349363,0.837653403349363,750,0,0,neutral,0.1,6672.93250272282,3820.0999554931
49,104,1,18,-0.5,0.5,0.5,1,3,0.8,1,975,1,0,975,0,0,1,0.6,2.64140684313162,2.64140684313162,750,0,0,incongruent,0,2970.13389715464,1812.23043925314
49,104,1,19,0.5,0.5,-0.5,4,4,0.6,4,590,1,1,590,1,0,0.6,NaN,-0.377919566938678,-0.377919566938678,750,1,0,congruent,1,2007.94567109441,2784.11053672601
49,104,1,20,0.5,0.5,-0.5,3,3,0.8,3,588,1,1,588,1,0,0.6,NaN,-0.393604379458523,-0.393604379458523,750,1,0,congruent,1,5736.42691992511,5051.99449310734
49,104,1,22,0.5,0.5,-0.5,2,2,0.8,2,493,1,1,493,1,0,1.4,NaN,-1.13863297415119,-1.13863297415119,750,1,0,congruent,1,1929.95808830935,1442.2719300304
49,104,1,23,0.5,-0.5,0,4,NaN,0.8,4,617,1,1,617,1,0,1.6,NaN,-0.166174597920761,-0.166174597920761,750,0,0,neutral,1,5485.48997293664,6449.17554526497
49,104,1,24,-0.5,0.5,-0.5,1,1,0.8,1,592,1,1,592,1,0,2,0.6,-0.362234754418832,-0.362234754418832,750,1,0,congruent,0.1,4667.98880378075,3510.42078450612
49,104,1,25,-0.5,-0.5,0.5,3,2,0.8,3,647,1,1,647,1,0,1.8,0.4,0.0690975898769246,0.0690975898769246,750,0,0,incongruent,0.1,22998.5363174549,3006.33974148607
49,104,1,26,0.5,-0.5,0.5,2,4,0.8,2,974,1,0,974,1,0,1.6,NaN,2.63356443687169,2.63356443687169,750,0,0,incongruent,1,3591.54737336532,6035.22969706212
49,104,1,27,-0.5,0.5,0,1,NaN,0.8,1,597,1,1,597,1,0,1.6,0.8,-0.323022723119218,-0.323022723119218,750,0,0,neutral,0.1,10063.1555431762,3015.88811113798
49,104,1,28,0.5,0.5,-0.5,2,2,1,2,876,1,0,876,0,0,1.4,NaN,1.86500862339926,1.86500862339926,750,1,0,congruent,0,2359.7222802721,5266.14568024131
49,104,1,29,0.5,0.5,0,3,NaN,0.8,1,866,0,0,NaN,0,0,1,NaN,1.78658456080003,NaN,750,0,1,neutral,0,9264.64628803725,5999.93544352054
49,104,1,30,0.5,-0.5,-0.5,2,2,0.6,2,689,1,1,689,0,0,0.8,NaN,0.398478652793684,0.398478652793684,750,1,0,congruent,0,5146.38472751842,3415.51393116704
49,104,1,31,0.5,0.5,-0.5,1,1,0.6,1,573,1,1,573,1,0,0.6,NaN,-0.511240473357366,-0.511240473357366,750,1,0,congruent,1,6922.20141448812,9931.6662331677
49,104,1,32,0.5,-0.5,0,2,NaN,0.6,1,560,0,1,NaN,1,0,0.6,NaN,-0.613191754736363,NaN,750,0,1,neutral,1,6793.11530390842,1206.21305479788
49,104,1,33,-0.5,-0.5,-0.5,1,1,0.6,1,509,1,1,509,0,0,0.8,0.6,-1.01315447399243,-1.01315447399243,750,1,0,congruent,0,13652.7769195173,5242.55299798448
49,104,1,34,0.5,-0.5,-0.5,4,4,0.6,4,595,1,1,595,1,0,0.8,NaN,-0.338707535639063,-0.338707535639063,750,1,0,congruent,1,7194.41232438924,4394.94916879318
49,104,1,35,-0.5,0.5,-0.5,2,2,0.6,2,713,1,1,713,1,0,1.2,0.8,0.586696403031832,0.586696403031832,750,1,0,congruent,0.1,10422.0808607132,4024.12201593707
49,104,1,36,0.5,-0.5,-0.5,1,1,0.6,1,506,1,1,506,1,0,1.4,NaN,-1.0366816927722,-1.0366816927722,750,1,0,congruent,1,4262.55377250395,2042.98070674811
49,104,1,38,-0.5,-0.5,0.5,3,4,0.6,3,864,1,0,864,0,0,1,0.4,1.77089974828018,1.77089974828018,750,0,0,incongruent,0,5741.29057329616,2801.80603954687
49,104,1,39,0.5,0.5,0,4,NaN,0.6,4,739,1,1,739,1,0,1,NaN,0.790598965789826,0.790598965789826,750,0,0,neutral,1,2777.3553768115,2441.43546584234
49,104,1,40,-0.5,0.5,-0.5,1,1,0.6,1,520,1,1,520,1,0,1,0.8,-0.926888005133277,-0.926888005133277,750,1,0,congruent,0.1,4360.07327427769,1088.49108065754
49,104,1,41,0.5,-0.5,-0.5,3,3,0.8,1,551,0,1,NaN,1,0,1,NaN,-0.683773411075668,NaN,750,0,1,congruent,1,4299.05741436809,4085.72877699861
49,104,1,43,-0.5,-0.5,0,4,NaN,0.8,4,789,1,0,789,1,0,1,0.2,1.18271927878597,1.18271927878597,750,0,0,neutral,0.1,1005.39525779112,1330.33733315637
49,104,1,44,0.5,-0.5,0.5,1,2,0.8,2,697,0,1,NaN,1,0,1.2,NaN,0.461217902873067,NaN,750,1,0,incongruent,1,5271.6441405371,17385.6664647397
49,104,1,45,-0.5,-0.5,-0.5,4,4,0.8,4,653,1,1,653,1,0,1.2,0.4,0.116152027436462,0.116152027436462,750,1,0,congruent,0.1,11805.4165109538,2902.00207174917
49,104,1,46,0.5,0.5,-0.5,1,1,0.8,1,698,1,1,698,1,0,1.2,NaN,0.46906030913299,0.46906030913299,750,1,0,congruent,1,10156.8446176362,2426.57178083988
49,104,1,47,-0.5,0.5,-0.5,2,2,0.8,2,610,1,1,610,1,0,1.2,0.8,-0.221071441740221,-0.221071441740221,750,1,0,congruent,0.1,7899.14010478391,1003.35576822851
49,104,1,49,-0.5,0.5,0,3,NaN,0.6,2,980,0,0,NaN,0,0,1.2,0.8,2.68061887443123,NaN,750,0,1,neutral,0,6860.75271180705,2594.33324841279
49,104,1,52,0.5,-0.5,0.5,4,1,0.4,1,599,0,1,NaN,1,0,0.2,NaN,-0.307337910599372,NaN,750,1,0,incongruent,1,17592.5512113734,1514.22416593802
49,104,1,53,0.5,-0.5,0,1,NaN,0.4,1,638,1,1,638,0,0,0.4,NaN,-0.00148406646238103,-0.00148406646238103,750,0,0,neutral,0,17179.4892246764,4622.6087395632
49,104,1,54,0.5,-0.5,0.5,4,2,0.4,4,791,1,0,791,0,0,0.4,NaN,1.19840409130581,1.19840409130581,750,0,0,incongruent,0,5103.83335691999,5644.12752981125
49,104,1,55,-0.5,0.5,0,1,NaN,0.4,1,598,1,1,598,1,0,0.4,0.4,-0.315180316859295,-0.315180316859295,750,0,0,neutral,0.1,1643.98055456604,2915.3114810725
49,104,1,56,-0.5,0.5,-0.5,4,4,0.4,4,614,1,1,614,1,0,0.6,0.4,-0.189701816700529,-0.189701816700529,750,1,0,congruent,0.1,462.713926872649,2094.52616481548
49,104,1,57,-0.5,-0.5,0.5,2,1,0.4,3,670,0,1,NaN,1,0,0.8,0.4,0.24947293385515,NaN,750,0,1,incongruent,0.1,7471.01103295516,1883.05457556633
49,104,1,58,0.5,0.5,-0.5,3,3,0.4,3,782,1,0,782,0,0,0.6,NaN,1.12782243496651,1.12782243496651,750,1,0,congruent,0,3176.11999325054,2212.73611298008
49,104,1,59,0.5,-0.5,0,2,NaN,0.4,4,674,0,1,NaN,1,0,0.6,NaN,0.280842558894841,NaN,750,0,1,neutral,1,2356.70820720367,8253.6082676585
49,104,1,60,-0.5,-0.5,-0.5,1,1,0.4,1,514,1,1,514,1,0,1,0.6,-0.973942442692814,-0.973942442692814,750,1,0,congruent,0.1,3013.30502987025,453.740898634626
49,104,1,61,-0.5,-0.5,0,3,NaN,0.4,3,774,1,0,774,1,0,1,0.8,1.06508318488713,1.06508318488713,750,0,0,neutral,0.1,11539.7709446246,4573.41413488777
49,104,1,62,0.5,0.5,-0.5,4,4,0.4,4,582,1,1,582,1,0,1,NaN,-0.44065881701806,-0.44065881701806,750,1,0,congruent,1,6299.16846703152,7147.76536285803
49,104,1,63,0.5,0.5,0.5,1,3,0.6,1,823,1,0,823,0,0,1.2,NaN,1.44936109162335,1.44936109162335,750,0,0,incongruent,0,4137.86635879187,5625.51386046903
49,104,1,64,-0.5,-0.5,0,2,NaN,0.6,3,741,0,1,NaN,0,0,1.2,1,0.806283778309672,NaN,750,0,1,neutral,0,6050.08722695376,2477.95330568969
49,104,1,65,-0.5,-0.5,-0.5,4,4,0.6,4,697,1,1,697,0,0,0.8,0.8,0.461217902873067,0.461217902873067,750,1,0,congruent,0,8149.14662127753,3847.07939074964
49,104,1,66,0.5,0.5,-0.5,3,3,0.6,3,549,1,1,549,1,0,0.6,NaN,-0.699458223595514,-0.699458223595514,750,1,0,congruent,1,5743.12457295909,2077.86932033115
49,104,1,67,-0.5,-0.5,-0.5,1,1,0.6,1,550,1,1,550,1,0,0.8,0.6,-0.691615817335591,-0.691615817335591,750,1,0,congruent,0.1,1475.37295730252,1561.12680622351
49,104,1,68,-0.5,-0.5,0,2,NaN,0.6,2,799,1,0,799,0,0,0.6,0.6,1.2611433413852,1.2611433413852,750,0,0,neutral,0,4091.40496502664,2761.94203330728
49,104,1,69,0.5,-0.5,0.5,1,3,0.6,1,613,1,1,613,1,0,0.6,NaN,-0.197544222960452,-0.197544222960452,750,0,0,incongruent,1,2043.02271413039,3715.16654159128
49,104,1,70,-0.5,-0.5,-0.5,4,4,0.6,4,673,1,1,673,1,0,1,0.4,0.273000152634919,0.273000152634919,750,1,0,congruent,0.1,6547.69144920858,5338.04267414773
49,104,1,72,0.5,-0.5,-0.5,4,4,0.6,4,715,1,1,715,1,0,1.2,NaN,0.602381215551678,0.602381215551678,750,1,0,congruent,1,3305.41793205196,1193.13940077366
49,104,1,73,-0.5,0.5,-0.5,2,2,0.6,3,651,0,1,NaN,0,0,1.4,0.6,0.100467214916616,NaN,750,0,1,congruent,0,18530.6083841463,1897.65211143144
49,104,1,74,-0.5,-0.5,-0.5,3,3,0.4,3,546,1,1,546,0,0,1.4,0.4,-0.722985442375283,-0.722985442375283,750,1,0,congruent,0,17411.793840285,753.674541286876
49,104,1,75,-0.5,-0.5,-0.5,1,1,0.4,1,606,1,1,606,1,0,1,0.4,-0.252441066779912,-0.252441066779912,750,1,0,congruent,0.1,531.558784842795,2398.44351492707
49,104,1,76,-0.5,0.5,0.5,3,2,0.4,3,817,1,0,817,0,0,1,0.4,1.40230665406381,1.40230665406381,750,0,0,incongruent,0,584.91493784687,4091.38746282164
49,104,1,78,-0.5,-0.5,0,3,NaN,0.4,3,694,1,1,694,0,0,0.6,0.6,0.437690684093298,0.437690684093298,750,0,0,neutral,0,9297.5634298277,1802.96812462806
49,104,1,80,-0.5,-0.5,0,3,NaN,0.4,3,616,1,1,616,0,0,0.8,0.6,-0.174017004180684,-0.174017004180684,750,0,0,neutral,0,21313.728643583,1109.30111162005
49,104,1,82,0.5,-0.5,0.5,3,4,0.4,3,609,1,1,609,0,0,0.8,NaN,-0.228913848000144,-0.228913848000144,750,0,0,incongruent,0,4630.28298264744,7330.38253477722
49,104,1,83,-0.5,-0.5,0,4,NaN,0.4,4,619,1,1,619,1,0,0.4,0.6,-0.150489785400915,-0.150489785400915,750,0,0,neutral,0.1,2885.40373964834,2421.61738415748
49,104,1,90,-0.5,0.5,0.5,2,1,0,2,785,1,0,785,0,0,0,0,1.15134965374628,1.15134965374628,750,0,0,incongruent,0,3896.05610770376,3787.24954165079
49,104,1,92,0.5,-0.5,-0.5,2,2,0,3,588,0,1,NaN,0,0,0,NaN,-0.393604379458523,NaN,750,0,1,congruent,0,5989.8910123679,600.476737030307
49,104,1,93,-0.5,0.5,0.5,1,3,0,1,872,1,0,872,0,0,0,0,1.83363899835956,1.83363899835956,750,0,0,incongruent,0,5389.36562436966,825.253733280338
49,104,1,95,0.5,0.5,-0.5,2,2,0,2,822,1,0,822,0,0,0,NaN,1.44151868536342,1.44151868536342,750,1,0,congruent,0,5510.92381008052,7352.86946275756
49,104,1,96,0.5,0.5,0,3,NaN,0,2,671,0,1,NaN,0,0,0,NaN,0.257315340115073,NaN,750,0,1,neutral,0,19617.6604966001,3150.84492132411
49,104,1,97,0.5,-0.5,0.5,4,1,0,4,840,1,0,840,0,0,0,NaN,1.58268199804203,1.58268199804203,750,0,0,incongruent,0,1808.79250518479,1593.53290499424
49,104,1,99,0.5,0.5,-0.5,3,3,0,4,847,0,0,NaN,0,0,0,NaN,1.63757884186149,NaN,750,0,1,congruent,0,8820.34268044613,3658.96494301643
49,104,1,101,0.5,0.5,0,4,NaN,0,4,661,1,1,661,1,0,0,NaN,0.178891277515844,0.178891277515844,750,0,0,neutral,1,6341.19286723954,3877.36323962875
49,104,1,103,0.5,-0.5,0.5,3,1,0.2,1,676,0,1,NaN,0,0,0.4,NaN,0.296527371414687,NaN,750,1,0,incongruent,0,8300.55198509508,7457.41467655753
49,104,1,104,-0.5,-0.5,-0.5,2,2,0.2,2,637,1,1,637,1,0,0.4,0.4,-0.00932647272230388,-0.00932647272230388,750,1,0,congruent,0.1,3432.6243880849,879.505743536027
49,104,1,106,-0.5,-0.5,-0.5,2,2,0.2,2,875,1,0,875,0,0,1,0.6,1.85716621713933,1.85716621713933,750,1,0,congruent,0,9332.21333467698,8454.79709854162
49,104,1,107,-0.5,-0.5,0,4,NaN,0.2,4,543,1,1,543,0,0,0.6,0.4,-0.746512661155051,-0.746512661155051,750,0,0,neutral,0,4224.53859861517,1480.44160262358
49,104,1,108,-0.5,-0.5,-0.5,1,1,0.2,1,553,1,1,553,0,0,0.6,0.2,-0.668088598555823,-0.668088598555823,750,1,0,congruent,0,4869.67901838086,6191.49006930798
49,104,1,109,0.5,0.5,0.5,4,3,0.2,4,752,1,0,752,0,0,0.6,NaN,0.892550247168823,0.892550247168823,750,0,0,incongruent,0,4523.99299254218,1555.80437363252
49,104,1,110,-0.5,-0.5,0.5,2,1,0.2,1,980,0,0,NaN,0,0,0.4,0.2,2.68061887443123,NaN,750,1,0,incongruent,0,6019.08337740942,2768.6526894023
49,104,1,111,-0.5,-0.5,-0.5,3,3,0.2,3,611,1,1,611,0,0,0,0.2,-0.213229035480298,-0.213229035480298,750,1,0,congruent,0,3139.73745366807,4555.71307825536
49,104,1,112,0.5,-0.5,0.5,1,2,0.2,1,845,1,0,845,1,0,0,NaN,1.62189402934165,1.62189402934165,750,0,0,incongruent,1,4349.97488482851,2270.69634400193
49,104,1,113,-0.5,0.5,0.5,3,1,0.2,3,570,1,1,570,1,0,0.4,0,-0.534767692137134,-0.534767692137134,750,0,0,incongruent,0.1,2470.2311964741,4806.40379115596
49,104,1,114,0.5,0.5,0,2,NaN,0.4,4,633,0,1,NaN,0,0,0.6,NaN,-0.0406960977619953,NaN,750,0,1,neutral,0,9612.19435778767,9960.05789683699
49,104,1,115,0.5,0.5,-0.5,4,4,0.4,3,502,0,1,NaN,0,0,0.6,NaN,-1.06805131781189,NaN,750,0,1,congruent,0,4282.09642601584,1816.46078244875
49,104,1,116,-0.5,0.5,-0.5,2,2,0.4,3,644,0,1,NaN,0,0,0.6,0.2,0.045570371097156,NaN,750,0,1,congruent,0,13422.9268526788,4210.13775319572
49,104,1,117,0.5,0.5,0,4,NaN,0.2,4,498,1,1,498,1,0,0.6,NaN,-1.09942094285158,-1.09942094285158,750,0,0,neutral,1,1471.30661591772,4203.76911601548
49,104,1,119,-0.5,0.5,0.5,4,2,0.4,4,771,1,0,771,0,0,0.4,0.2,1.04155596610736,1.04155596610736,750,0,0,incongruent,0,911.879668098864,12157.0508321916
49,104,1,120,0.5,0.5,0.5,2,4,0.2,2,712,1,1,712,1,0,0.4,NaN,0.578853996771909,0.578853996771909,750,0,0,incongruent,1,2321.17222346725,3806.23987096314
49,104,1,121,0.5,-0.5,0.5,4,1,0.4,3,567,0,1,NaN,0,0,0.8,NaN,-0.558294910916903,NaN,750,0,1,incongruent,0,6950.06494452304,1288.28547126463
49,104,1,122,-0.5,0.5,-0.5,3,3,0.4,3,662,1,1,662,1,0,0.8,0.2,0.186733683775767,0.186733683775767,750,1,0,congruent,0.1,8211.86954377144,2016.30776092788
49,104,1,123,0.5,-0.5,0.5,2,4,0.6,2,835,1,0,835,0,0,0.6,NaN,1.54346996674242,1.54346996674242,750,0,0,incongruent,0,6417.42584926089,742.038319162089
49,104,1,124,-0.5,-0.5,-0.5,1,1,0.6,1,658,1,1,658,1,0,0.6,0,0.155364058736076,0.155364058736076,750,1,0,congruent,0.1,2794.99287374265,1500.21661174931
49,104,1,126,-0.5,0.5,-0.5,3,3,0.6,3,544,1,1,544,1,0,0.4,0.4,-0.738670254895128,-0.738670254895128,750,1,0,congruent,0.1,2382.66943251131,1350.93911783702
49,104,1,127,0.5,-0.5,0.5,2,4,0.8,2,866,1,0,866,1,0,0.6,NaN,1.78658456080003,1.78658456080003,750,0,0,incongruent,1,4034.0000831328,909.029774713199
49,104,1,128,0.5,-0.5,0,3,NaN,0.8,2,743,0,1,NaN,0,0,0.8,NaN,0.821968590829518,NaN,750,0,1,neutral,0,3618.37108673923,3127.36154859074
49,104,1,129,0.5,0.5,-0.5,4,4,0.8,4,691,1,1,691,1,0,0.8,NaN,0.41416346531353,0.41416346531353,750,1,0,congruent,1,5260.93856219226,2912.03533585024
49,104,1,130,-0.5,-0.5,-0.5,2,2,0.8,2,603,1,1,603,1,0,1,0.2,-0.275968285559681,-0.275968285559681,750,1,0,congruent,0.1,2993.16198706777,643.980643752854
49,104,1,131,-0.5,0.5,-0.5,3,3,0.8,3,520,1,1,520,1,0,1.2,0.6,-0.926888005133277,-0.926888005133277,750,1,0,congruent,0.1,1168.90707554036,2320.61381254733
49,104,1,133,0.5,-0.5,-0.5,2,2,1,2,680,1,1,680,1,0,1.2,NaN,0.327896996454378,0.327896996454378,750,1,0,congruent,1,5276.6580450157,3878.69724424145
49,104,1,134,0.5,-0.5,-0.5,4,4,1,4,739,1,1,739,1,0,1.6,NaN,0.790598965789826,0.790598965789826,750,1,0,congruent,1,6718.20238495084,1934.07903346269
49,104,1,135,-0.5,0.5,0,2,NaN,1,1,610,0,1,NaN,0,0,1.6,0.6,-0.221071441740221,NaN,750,0,1,neutral,0,3118.60397915258,1892.32536664175
49,104,1,136,-0.5,-0.5,0.5,3,1,0.8,3,666,1,1,666,1,0,1.4,0.4,0.218103308815459,0.218103308815459,750,0,0,incongruent,0.1,3820.64930233791,1560.57593069055
49,104,1,137,0.5,0.5,0.5,2,3,0.8,2,771,1,0,771,0,0,1.4,NaN,1.04155596610736,1.04155596610736,750,0,0,incongruent,0,1617.09149922255,5046.1415205724
49,104,1,139,0.5,0.5,-0.5,1,1,0.6,1,509,1,1,509,1,0,0.6,NaN,-1.01315447399243,-1.01315447399243,750,1,0,congruent,1,1699.91743624062,1554.14699714034
49,104,1,140,-0.5,0.5,0.5,3,2,0.6,3,821,1,0,821,0,0,0.6,0.6,1.4336762791035,1.4336762791035,750,0,0,incongruent,0,11610.9889983801,3263.58545851686
49,104,1,141,-0.5,-0.5,0,2,NaN,0.4,2,591,1,1,591,0,0,0.6,0.6,-0.370077160678755,-0.370077160678755,750,0,0,neutral,0,7656.13372958901,1694.87897996644
49,104,1,142,0.5,-0.5,-0.5,1,1,0.4,1,565,1,1,565,1,0,0.4,NaN,-0.573979723436749,-0.573979723436749,750,1,0,congruent,1,2079.35679572007,7364.09998383617
49,104,1,143,0.5,-0.5,0.5,3,4,0.4,3,641,1,1,641,0,0,0.8,NaN,0.0220431523173875,0.0220431523173875,750,0,0,incongruent,0,901.925597652929,6983.76820103387
49,104,1,144,0.5,0.5,0.5,4,1,0.4,4,683,1,1,683,1,0,0.8,NaN,0.351424215234147,0.351424215234147,750,0,0,incongruent,1,6873.11211846037,3605.78793853143
49,104,1,145,0.5,0.5,0,3,NaN,0.4,3,634,1,1,634,1,0,0.8,NaN,-0.0328536915020724,-0.0328536915020724,750,0,0,neutral,1,3536.0136614738,5858.2655744468
49,104,1,146,0.5,-0.5,0.5,1,2,0.6,2,760,0,0,NaN,0,0,1.2,NaN,0.955289497248206,NaN,750,1,0,incongruent,0,1153.59178105351,1234.11993678255
49,104,1,147,0.5,-0.5,0.5,2,3,0.6,1,863,0,0,NaN,0,0,1.2,NaN,1.76305734202026,NaN,750,0,1,incongruent,0,7809.03225872908,1010.22585371076
49,104,1,148,0.5,-0.5,0,3,NaN,0.6,3,967,1,0,967,0,0,0.8,NaN,2.57866759305223,2.57866759305223,750,0,0,neutral,0,3854.2537869241,2735.24436893
49,104,1,149,0.5,-0.5,-0.5,4,4,0.6,4,668,1,1,668,1,0,0.8,NaN,0.233788121335304,0.233788121335304,750,1,0,congruent,1,2902.03022504407,775.535896185163
49,104,1,150,0.5,0.5,0.5,3,2,0.6,3,759,1,0,759,0,0,0.8,NaN,0.947447090988283,0.947447090988283,750,0,0,incongruent,0,4193.14270341814,1390.3069994298
49,104,2,151,-0.5,0.5,0,2,NaN,0.6,2,636,1,1,636,1,0,0.4,0.6,-0.0171688789822267,-0.0171688789822267,750,0,0,neutral,0.1,4306.67408380391,2136.41990102315
49,104,2,152,-0.5,0.5,0.5,1,4,0.6,1,661,1,1,661,1,0,0.6,0.6,0.178891277515844,0.178891277515844,750,0,0,incongruent,0.1,5614.72642247355,4496.94993833944
49,104,2,153,0.5,0.5,0,3,NaN,0.8,1,484,0,1,NaN,0,0,0.8,NaN,-1.2092146304905,NaN,750,0,1,neutral,0,8306.31452967465,2913.13622856474
49,104,2,154,-0.5,-0.5,0.5,2,3,0.6,3,646,0,1,NaN,1,0,0.8,0.6,0.0612551836170017,NaN,750,1,0,incongruent,0.1,3445.66410957251,4336.49688501952
49,104,2,155,0.5,-0.5,0,4,NaN,0.6,4,773,1,0,773,0,0,0.6,NaN,1.0572407786272,1.0572407786272,750,0,0,neutral,0,1323.18958679294,1762.75343912111
49,104,2,156,-0.5,0.5,-0.5,3,3,0.6,2,717,0,1,NaN,0,0,0.6,0.6,0.618066028071524,NaN,750,0,1,congruent,0,2107.16083422065,1640.61880706351
49,104,2,157,-0.5,-0.5,0,1,NaN,0.4,1,602,1,1,602,0,0,0.4,0.6,-0.283810691819603,-0.283810691819603,750,0,0,neutral,0,4322.9975469027,4320.76887834029
49,104,2,158,-0.5,0.5,-0.5,4,4,0.4,4,534,1,1,534,1,0,0.2,0.4,-0.817094317494357,-0.817094317494357,750,1,0,congruent,0.1,1201.36519231017,12683.4567078257
49,104,2,160,0.5,-0.5,0,3,NaN,0.4,1,529,0,1,NaN,1,0,0.2,NaN,-0.856306348793971,NaN,750,0,1,neutral,1,6312.33031449574,2308.86075630587
49,104,2,161,-0.5,-0.5,-0.5,4,4,0.4,4,316,1,1,316,1,0,0.6,0.4,-2.52673888215754,-2.52673888215754,750,1,0,congruent,0.1,1663.85834267588,1270.28917104328
49,104,2,162,0.5,-0.5,-0.5,2,2,0.4,2,346,1,1,346,0,0,0.8,NaN,-2.29146669435985,-2.29146669435985,750,1,0,congruent,0,4767.13236398031,5991.52684426574
49,104,2,163,0.5,0.5,0,1,NaN,0.4,1,521,1,1,521,1,0,0.8,NaN,-0.919045598873354,-0.919045598873354,750,0,0,neutral,1,3333.30471112408,4018.03580806997
49,104,2,164,0.5,0.5,0.5,4,1,0.4,4,679,1,1,679,1,0,1,NaN,0.320054590194456,0.320054590194456,750,0,0,incongruent,1,4989.45277905429,5096.06643845316
49,104,2,165,-0.5,-0.5,-0.5,2,2,0.6,3,512,0,1,NaN,0,0,1.4,0.4,-0.989627255212659,NaN,750,0,1,congruent,0,3708.59837591581,1839.23962643742
49,104,2,166,0.5,-0.5,-0.5,4,4,0.6,4,601,1,1,601,1,0,1,NaN,-0.291653098079526,-0.291653098079526,750,1,0,congruent,1,7075.01308468144,5722.4014333589
49,104,2,167,0.5,-0.5,0.5,2,1,0.6,3,675,0,1,NaN,1,0,1.2,NaN,0.288684965154764,NaN,750,0,1,incongruent,1,1855.29926042115,2296.34113947984
49,104,2,168,-0.5,0.5,0,4,NaN,0.6,4,607,1,1,607,1,0,1.6,0.6,-0.244598660519989,-0.244598660519989,750,0,0,neutral,0.1,9498.1091002961,800.747856484774
49,104,2,169,-0.5,-0.5,0.5,2,4,0.8,2,594,1,1,594,0,0,1.4,0.4,-0.346549941898986,-0.346549941898986,750,0,0,incongruent,0,5494.97488801793,2029.99985327259
49,104,2,170,0.5,0.5,0,1,NaN,0.8,1,465,1,1,465,1,0,1,NaN,-1.35822034942903,-1.35822034942903,750,0,0,neutral,1,500.525612040355,1039.74798042796
49,104,2,171,0.5,-0.5,-0.5,2,2,0.8,2,467,1,1,467,1,0,1.4,NaN,-1.34253553690919,-1.34253553690919,750,1,0,congruent,1,2335.70308333891,12826.5161713988
49,104,2,172,0.5,0.5,0.5,4,1,0.8,4,770,1,0,770,0,0,1.4,NaN,1.03371355984743,1.03371355984743,750,0,0,incongruent,0,7935.9823121934,1064.3590459021
49,104,2,173,0.5,0.5,0.5,1,3,0.8,1,647,1,1,647,1,0,1,NaN,0.0690975898769246,0.0690975898769246,750,0,0,incongruent,1,3923.82193607321,5000.73456136948
49,104,2,175,0.5,0.5,0.5,4,1,0.8,4,512,1,1,512,1,0,1.6,NaN,-0.989627255212659,-0.989627255212659,750,0,0,incongruent,1,2810.86071449897,3976.3108599808
49,104,2,176,-0.5,0.5,-0.5,3,3,0.8,3,710,1,1,710,1,0,1.6,0.6,0.563169184252064,0.563169184252064,750,1,0,congruent,0.1,7656.0897592372,2964.4351952924
49,104,2,177,-0.5,-0.5,0.5,1,2,0.8,1,700,1,1,700,0,0,1.4,0.4,0.484745121652835,0.484745121652835,750,0,0,incongruent,0,3385.41155428209,9626.82706239802
49,104,2,178,-0.5,0.5,0,2,NaN,0.8,2,662,1,1,662,1,0,1.4,0.6,0.186733683775767,0.186733683775767,750,0,0,neutral,0.1,9320.90343834452,5753.00945771161
49,104,2,179,-0.5,0.5,-0.5,4,4,0.8,4,696,1,1,696,1,0,1.2,0.8,0.453375496613144,0.453375496613144,750,1,0,congruent,0.1,4707.69950623955,805.292400208761
49,104,2,180,-0.5,0.5,0.5,1,3,1,1,629,1,1,629,1,0,1,0.8,-0.0720657228016866,-0.0720657228016866,750,0,0,incongruent,0.1,2167.53955591176,1056.85066072458
49,104,2,181,0.5,0.5,-0.5,4,4,1,4,425,1,1,425,1,0,0.8,NaN,-1.67191659982595,-1.67191659982595,750,1,0,congruent,1,1829.85662576508,963.74347622984
49,104,2,182,0.5,0.5,0.5,1,2,1,1,500,1,1,500,1,0,1,NaN,-1.08373613033173,-1.08373613033173,750,0,0,incongruent,1,2819.46152576933,2558.01821397881
49,104,2,183,-0.5,0.5,-0.5,4,4,1,4,497,1,1,497,1,0,1.4,1,-1.1072633491115,-1.1072633491115,750,1,0,congruent,0.1,3012.54086723725,3441.71833913597
49,104,2,185,0.5,-0.5,0.5,4,2,1,2,836,0,0,NaN,1,0,1.4,NaN,1.55131237300234,NaN,750,1,0,incongruent,1,10620.2162333392,2091.65977040687
49,104,2,186,0.5,-0.5,0,1,NaN,1,1,489,1,1,489,1,0,1.6,NaN,-1.17000259919088,-1.17000259919088,750,0,0,neutral,1,6216.78013091302,3638.43037904106
49,104,2,187,0.5,-0.5,-0.5,4,4,1,4,523,1,1,523,1,0,1.6,NaN,-0.903360786353508,-0.903360786353508,750,1,0,congruent,1,5694.01141796409,1689.59451596559
49,104,2,188,-0.5,0.5,0,3,NaN,1,1,439,0,1,NaN,0,0,1.6,1,-1.56212291218703,NaN,750,0,1,neutral,0,10241.5689792572,2482.41112769977
49,104,2,189,-0.5,-0.5,-0.5,4,4,0.8,4,478,1,1,478,1,0,1.4,0.2,-1.25626906805004,-1.25626906805004,750,1,0,congruent,0.1,6950.25030659531,1926.12995507278
49,104,2,190,-0.5,-0.5,0,3,NaN,0.8,3,859,1,0,859,1,0,1.4,0.4,1.73168771698057,1.73168771698057,750,0,0,neutral,0.1,17860.0763209362,2550.25060553794
49,104,2,191,0.5,-0.5,0.5,1,4,0.8,1,975,1,0,975,1,0,1.2,NaN,2.64140684313162,2.64140684313162,750,0,0,incongruent,1,1545.97797660529,3489.50987942696
49,104,2,192,-0.5,0.5,0,2,NaN,0.8,3,762,0,0,NaN,0,0,1.2,0.8,0.970974309768052,NaN,750,0,1,neutral,0,9500.38593748439,4174.47933217956
49,104,2,193,-0.5,-0.5,-0.5,3,3,0.6,3,866,1,0,866,0,0,0.8,0.4,1.78658456080003,1.78658456080003,750,1,0,congruent,0,8528.93727898341,4722.08831336933
49,104,2,195,0.5,-0.5,0,1,NaN,0.6,1,577,1,1,577,1,0,0.8,NaN,-0.479870848317675,-0.479870848317675,750,0,0,neutral,1,7654.5784616929,1270.20433798129
49,104,2,196,-0.5,-0.5,-0.5,2,2,0.6,2,605,1,1,605,0,0,1,0.4,-0.260283473039835,-0.260283473039835,750,1,0,congruent,0,2423.16440655324,4336.56870577311
49,104,2,197,-0.5,-0.5,0,4,NaN,0.6,4,605,1,1,605,1,0,0.6,0.4,-0.260283473039835,-0.260283473039835,750,0,0,neutral,0.1,3466.79903439676,1393.05004862922
49,104,2,198,-0.5,-0.5,-0.5,1,1,0.6,1,578,1,1,578,0,0,0.8,0.6,-0.472028442057752,-0.472028442057752,750,1,0,congruent,0,1519.43311721913,878.323684179024
49,104,2,199,-0.5,-0.5,0.5,2,4,0.6,2,786,1,0,786,0,0,0.8,0.4,1.1591920600062,1.1591920600062,750,0,0,incongruent,0,1138.99304247138,1597.71178665035
49,104,2,200,0.5,0.5,0.5,4,3,0.6,4,607,1,1,607,1,0,0.6,NaN,-0.244598660519989,-0.244598660519989,750,0,0,incongruent,1,6340.25390627837,4233.13245486499
49,104,2,201,-0.5,-0.5,-0.5,1,1,0.6,1,502,1,1,502,1,0,0.6,0.2,-1.06805131781189,-1.06805131781189,750,1,0,congruent,0.1,1238.94020095124,3525.26207842381
49,104,2,202,0.5,-0.5,-0.5,2,2,0.6,2,609,1,1,609,0,0,0.8,NaN,-0.228913848000144,-0.228913848000144,750,1,0,congruent,0,5375.30503343265,3235.92857509545
49,104,2,203,-0.5,0.5,0.5,4,3,0.6,4,968,1,0,968,0,0,0.6,0.6,2.58650999931216,2.58650999931216,750,0,0,incongruent,0,3480.82681306073,3349.2572093712
49,104,2,204,0.5,0.5,0,2,NaN,0.4,3,629,0,1,NaN,0,0,0.6,NaN,-0.0720657228016866,NaN,750,0,1,neutral,0,6963.44607924089,1775.0709577018
49,104,2,205,-0.5,0.5,0.5,3,4,0.4,3,685,1,1,685,1,0,0.6,0.4,0.367109027753993,0.367109027753993,750,0,0,incongruent,0.1,5327.79322749746,4602.80587650486
49,104,2,206,0.5,0.5,-0.5,1,1,0.6,1,505,1,1,505,1,0,0.4,NaN,-1.04452409903212,-1.04452409903212,750,1,0,congruent,1,2181.01285203883,5403.60316577829
49,104,2,207,0.5,-0.5,0,2,NaN,0.6,2,716,1,1,716,1,0,0.6,NaN,0.610223621811601,0.610223621811601,750,0,0,neutral,1,4927.18355445253,8680.25363931578
49,104,2,208,0.5,0.5,-0.5,4,4,0.6,4,657,1,1,657,1,0,1,NaN,0.147521652476153,0.147521652476153,750,1,0,congruent,1,614.666517522798,719.88236290123
49,104,2,210,-0.5,-0.5,-0.5,2,2,0.8,2,584,1,1,584,1,0,1.6,0.4,-0.424974004498215,-0.424974004498215,750,1,0,congruent,0.1,4042.86654338944,2730.2557936002
49,104,2,211,0.5,-0.5,0.5,1,3,0.8,1,683,1,1,683,1,0,1.6,NaN,0.351424215234147,0.351424215234147,750,0,0,incongruent,1,6607.32555547156,4473.35710679205
49,104,2,212,-0.5,0.5,0,2,NaN,0.8,2,692,1,1,692,1,0,1.6,0.6,0.422005871573453,0.422005871573453,750,0,0,neutral,0.1,2055.03051415145,2816.53740375845
49,104,2,213,0.5,0.5,-0.5,4,4,1,4,856,1,0,856,0,0,1.4,NaN,1.7081604982008,1.7081604982008,750,1,0,congruent,0,4100.08773630365,985.51159276529
49,104,2,214,0.5,-0.5,0,1,NaN,0.8,1,527,1,1,527,1,0,1,NaN,-0.871991161313817,-0.871991161313817,750,0,0,neutral,1,5389.21345831335,2029.31154128239
49,104,2,215,-0.5,0.5,0.5,2,1,0.8,2,686,1,1,686,1,0,1.2,0.8,0.374951434013916,0.374951434013916,750,0,0,incongruent,0.1,6277.03043727242,1464.89624165566
49,104,2,216,-0.5,-0.5,-0.5,3,3,0.8,4,541,0,1,NaN,1,0,1.2,0.6,-0.762197473674897,NaN,750,0,1,congruent,0.1,16036.6803799335,2528.23581326646
49,104,2,217,0.5,0.5,-0.5,4,4,0.8,4,514,1,1,514,1,0,1,NaN,-0.973942442692814,-0.973942442692814,750,1,0,congruent,1,3574.70273507462,935.308047584275
49,104,2,218,-0.5,0.5,0,1,NaN,0.8,1,532,1,1,532,1,0,1.2,0.8,-0.832779130014203,-0.832779130014203,750,0,0,neutral,0.1,5421.20479801849,3671.23372739932
49,104,2,219,-0.5,0.5,-0.5,3,3,0.8,2,691,0,1,NaN,0,0,1.4,1,0.41416346531353,NaN,750,0,1,congruent,0,3328.90382931773,15564.3825069327
49,104,2,220,-0.5,-0.5,-0.5,1,1,0.6,1,497,1,1,497,1,0,1,0.6,-1.1072633491115,-1.1072633491115,750,1,0,congruent,0.1,1441.31806108982,2175.14242003281
49,104,2,221,0.5,-0.5,0,3,NaN,0.6,1,522,0,1,NaN,0,0,1,NaN,-0.911203192613431,NaN,750,0,1,neutral,0,2661.3634801535,2209.36244561118
49,104,2,222,-0.5,-0.5,0.5,2,4,0.6,4,733,0,1,NaN,1,0,0.8,0.8,0.743544528230289,NaN,750,1,0,incongruent,0.1,9208.55095412702,1914.26461736361
49,104,2,223,-0.5,0.5,0,3,NaN,0.6,3,738,1,1,738,1,0,0.6,0.8,0.782756559529903,0.782756559529903,750,0,0,neutral,0.1,5440.20377810118,2779.85768479313
49,104,2,224,-0.5,0.5,-0.5,1,1,0.8,1,511,1,1,511,1,0,0.6,0.8,-0.997469661472582,-0.997469661472582,750,1,0,congruent,0.1,1428.1765098414,2315.56071300659
49,104,2,225,0.5,-0.5,0.5,4,2,0.8,4,651,1,1,651,1,0,0.8,NaN,0.100467214916616,0.100467214916616,750,0,0,incongruent,1,5065.93461111787,10874.8363239705
49,104,2,226,0.5,0.5,0,1,NaN,0.8,1,579,1,1,579,1,0,1,NaN,-0.464186035797829,-0.464186035797829,750,0,0,neutral,1,6168.63223981154,3866.51589384038
49,104,2,227,-0.5,0.5,0.5,3,1,0.8,2,726,0,1,NaN,0,0,1.4,0.8,0.688647684410829,NaN,750,0,1,incongruent,0,3999.83497957877,547.779630635807
49,104,2,228,-0.5,-0.5,0,2,NaN,0.6,2,727,1,1,727,0,0,1.2,1,0.696490090670752,0.696490090670752,750,0,0,neutral,0,7396.74319165461,514.219411754755
49,104,2,229,0.5,-0.5,0.5,3,2,0.6,3,547,1,1,547,1,0,1,NaN,-0.71514303611536,-0.71514303611536,750,0,0,incongruent,1,10762.2372074993,1737.20810408866
49,104,2,230,0.5,-0.5,0,4,NaN,0.6,4,645,1,1,645,1,0,1.2,NaN,0.0534127773570789,0.0534127773570789,750,0,0,neutral,1,2668.10692103678,1152.92765846492
49,104,2,231,-0.5,-0.5,-0.5,1,1,0.6,1,514,1,1,514,0,0,1.2,0.8,-0.973942442692814,-0.973942442692814,750,1,0,congruent,0,3557.74292580496,1062.54913624595
49,104,2,232,0.5,-0.5,-0.5,3,3,0.6,3,497,1,1,497,0,0,0.8,NaN,-1.1072633491115,-1.1072633491115,750,1,0,congruent,0,7612.73230500463,4997.62894376025
49,104,2,233,-0.5,-0.5,0,1,NaN,0.6,1,472,1,1,472,0,0,0.8,0.6,-1.30332350560957,-1.30332350560957,750,0,0,neutral,0,2892.15938868201,4261.26751449034
49,104,2,234,0.5,0.5,0.5,4,1,0.6,3,600,0,1,NaN,0,0,0.8,NaN,-0.299495504339449,NaN,750,0,1,incongruent,0,8803.46316243553,5321.28556862629
49,104,2,236,-0.5,-0.5,0.5,2,4,0.6,3,629,0,1,NaN,1,0,0,0.4,-0.0720657228016866,NaN,750,0,1,incongruent,0.1,2587.9436462974,4125.66282162068
49,104,2,237,0.5,0.5,0,3,NaN,0.6,3,780,1,0,780,0,0,0.2,NaN,1.11213762244666,1.11213762244666,750,0,0,neutral,0,2450.93501395781,3670.33628253193
49,104,2,238,-0.5,0.5,-0.5,2,2,0.4,2,760,1,0,760,0,0,0.2,0.6,0.955289497248206,0.955289497248206,750,1,0,congruent,0,1445.98235837172,2968.06831060774
49,104,2,239,0.5,-0.5,0.5,1,4,0.2,4,789,0,0,NaN,1,0,0.2,NaN,1.18271927878597,NaN,750,1,0,incongruent,1,13864.5469794225,497.117606111453
49,104,2,240,0.5,0.5,-0.5,2,2,0.2,2,526,1,1,526,1,0,0.6,NaN,-0.87983356757374,-0.87983356757374,750,1,0,congruent,1,920.59687634407,4136.02000894948
49,104,2,241,0.5,-0.5,-0.5,1,1,0.2,1,611,1,1,611,0,0,1,NaN,-0.213229035480298,-0.213229035480298,750,1,0,congruent,0,3604.87040863782,2425.63594929013
49,104,2,242,0.5,-0.5,0,4,NaN,0.2,2,989,0,0,NaN,0,0,0.8,NaN,2.75120053077054,NaN,750,0,1,neutral,0,1014.97327836389,4736.31185481451
49,104,2,243,0.5,0.5,0.5,2,3,0.2,1,995,0,0,NaN,0,0,0.8,NaN,2.79825496833007,NaN,750,0,1,incongruent,0,5466.90485243605,6442.70338061701
49,104,2,244,0.5,0.5,-0.5,1,1,0.2,2,495,0,1,NaN,0,0,0.8,NaN,-1.12294816163135,NaN,750,0,1,congruent,0,4878.76936156145,495.342596329204
49,104,2,245,0.5,-0.5,-0.5,3,3,0.2,3,696,1,1,696,0,0,0.4,NaN,0.453375496613144,0.453375496613144,750,1,0,congruent,0,1700.05098470764,2671.77457630403
49,104,2,246,0.5,0.5,0.5,1,4,0.2,1,592,1,1,592,1,0,0,NaN,-0.362234754418832,-0.362234754418832,750,0,0,incongruent,1,4859.53612677831,5505.97706470033
49,104,2,247,-0.5,-0.5,0.5,3,1,0.4,3,599,1,1,599,0,0,0.4,0.4,-0.307337910599372,-0.307337910599372,750,0,0,incongruent,0,878.954769054708,2210.568841834
49,104,2,248,-0.5,-0.5,-0.5,4,4,0.4,4,623,1,1,623,0,0,0.4,0.2,-0.119120160361224,-0.119120160361224,750,1,0,congruent,0,1516.91221905,1465.63255632261
49,104,2,249,-0.5,0.5,0,3,NaN,0.4,1,532,0,1,NaN,0,0,0.4,0.4,-0.832779130014203,NaN,750,0,1,neutral,0,6402.9195955734,1197.71667557906
49,104,2,250,-0.5,-0.5,-0.5,4,4,0.4,4,673,1,1,673,0,0,0.4,0.2,0.273000152634919,0.273000152634919,750,1,0,congruent,0,4643.92018016041,6698.85649275904
49,104,2,251,-0.5,-0.5,-0.5,1,1,0.4,1,529,1,1,529,0,0,0.4,0.2,-0.856306348793971,-0.856306348793971,750,1,0,congruent,0,3402.8162505101,1647.64983408352
49,104,2,252,-0.5,0.5,-0.5,3,3,0.4,3,465,1,1,465,1,0,0,0.4,-1.35822034942903,-1.35822034942903,750,1,0,congruent,0.1,4620.57986239267,2158.4935613932
49,104,2,253,-0.5,-0.5,0.5,1,2,0.4,1,751,1,0,751,0,0,0.2,0.2,0.8847078409089,0.8847078409089,750,0,0,incongruent,0,5880.30112544516,855.804094175052
49,104,2,254,0.5,-0.5,0.5,4,3,0.4,4,840,1,0,840,1,0,0.2,NaN,1.58268199804203,1.58268199804203,750,0,0,incongruent,1,1792.8140793672,4469.58266832908
49,104,2,255,0.5,-0.5,0,3,NaN,0.4,2,714,0,1,NaN,0,0,0.6,NaN,0.594538809291755,NaN,750,0,1,neutral,0,3554.30056575746,1363.20027521277
49,104,2,256,-0.5,0.5,0.5,1,3,0.4,1,661,1,1,661,1,0,0.6,0.4,0.178891277515844,0.178891277515844,750,0,0,incongruent,0.1,2872.36064013447,8934.0167497186
49,104,2,257,-0.5,-0.5,0.5,3,1,0.6,3,824,1,0,824,1,0,0.8,0,1.45720349788327,1.45720349788327,750,0,0,incongruent,0.1,8252.44795229149,3354.23100236619
49,104,2,258,0.5,0.5,0,1,NaN,0.6,1,601,1,1,601,1,0,0.8,NaN,-0.291653098079526,-0.291653098079526,750,0,0,neutral,1,2803.80013313733,3813.39230981982
49,104,2,259,-0.5,0.5,-0.5,2,2,0.8,2,500,1,1,500,1,0,1.2,0.4,-1.08373613033173,-1.08373613033173,750,1,0,congruent,0.1,2678.10351979323,1779.23749457608
49,104,2,260,-0.5,0.5,0.5,1,4,0.8,4,809,0,0,NaN,0,0,1,0.6,1.33956740398443,NaN,750,1,0,incongruent,0,6209.32894099868,1662.91610685769
49,104,2,261,0.5,0.5,0.5,2,3,0.8,2,619,1,1,619,1,0,1,NaN,-0.150489785400915,-0.150489785400915,750,0,0,incongruent,1,4582.26105731383,3338.04061337099
49,104,2,262,0.5,0.5,-0.5,1,1,0.8,1,589,1,1,589,1,0,1.2,NaN,-0.3857619731986,-0.3857619731986,750,1,0,congruent,1,9325.80250722887,976.814894590558
49,104,2,263,0.5,-0.5,0,4,NaN,0.8,4,586,1,1,586,1,0,1.4,NaN,-0.409289191978369,-0.409289191978369,750,0,0,neutral,1,6910.8894755386,1707.24288782576
49,104,2,264,-0.5,0.5,-0.5,1,1,0.8,1,856,1,0,856,0,0,1.4,0.6,1.7081604982008,1.7081604982008,750,1,0,congruent,0,3657.42278040974,574.160084098671
49,104,2,265,0.5,-0.5,0.5,4,2,0.6,4,566,1,1,566,1,0,1.2,NaN,-0.566137317176826,-0.566137317176826,750,0,0,incongruent,1,1704.76953081659,1125.54771139112
49,104,2,266,0.5,0.5,0,2,NaN,0.6,2,609,1,1,609,1,0,1.6,NaN,-0.228913848000144,-0.228913848000144,750,0,0,neutral,1,3372.14268425131,9111.96574762615
49,104,2,267,-0.5,-0.5,-0.5,4,4,0.6,4,602,1,1,602,1,0,1.6,0.2,-0.283810691819603,-0.283810691819603,750,1,0,congruent,0.1,5022.73826366882,1844.98981070563
49,104,2,268,-0.5,-0.5,-0.5,2,2,0.6,2,537,1,1,537,1,0,1.4,0.4,-0.793567098714588,-0.793567098714588,750,1,0,congruent,0.1,561.414050059517,1260.20089715953
49,104,2,269,-0.5,0.5,0,3,NaN,0.6,2,663,0,1,NaN,0,0,1.2,0.6,0.19457609003569,NaN,750,0,1,neutral,0,7586.10026156554,4234.03572291894
49,104,2,270,0.5,0.5,0.5,2,4,0.6,4,578,0,1,NaN,0,0,1.2,NaN,-0.472028442057752,NaN,750,1,0,incongruent,0,3606.5481078957,22289.5116570698
49,104,2,271,-0.5,-0.5,-0.5,3,3,0.4,3,616,1,1,616,1,0,0.8,0.6,-0.174017004180684,-0.174017004180684,750,1,0,congruent,0.1,16643.0991279023,3106.87910853145
49,104,2,272,0.5,-0.5,0,1,NaN,0.4,1,600,1,1,600,0,0,0.6,NaN,-0.299495504339449,-0.299495504339449,750,0,0,neutral,0,2902.1197711401,2723.92453300888
49,104,2,273,0.5,-0.5,-0.5,4,4,0.4,4,668,1,1,668,0,0,0.4,NaN,0.233788121335304,0.233788121335304,750,1,0,congruent,0,2276.71941382627,3369.05930167551
49,104,2,274,0.5,0.5,-0.5,3,3,0.4,3,566,1,1,566,1,0,0.2,NaN,-0.566137317176826,-0.566137317176826,750,1,0,congruent,1,7777.68320343735,2238.30961241683
49,104,2,275,0.5,0.5,-0.5,4,4,0.4,4,620,1,1,620,1,0,0.6,NaN,-0.142647379140992,-0.142647379140992,750,1,0,congruent,1,772.934177309269,2740.34927163916
49,104,2,276,-0.5,-0.5,-0.5,1,1,0.6,1,492,1,1,492,0,0,1,0.8,-1.14647538041112,-1.14647538041112,750,1,0,congruent,0,1325.88871609159,1501.00596994219
49,104,2,277,-0.5,0.5,0.5,3,2,0.6,3,638,1,1,638,1,0,0.8,0.4,-0.00148406646238103,-0.00148406646238103,750,0,0,incongruent,0.1,2751.3650465092,630.170825329267
49,104,2,278,-0.5,0.5,-0.5,4,4,0.6,4,558,1,1,558,1,0,1,0.4,-0.628876567256209,-0.628876567256209,750,1,0,congruent,0.1,2971.20566712579,2506.36133792687
49,104,2,279,-0.5,-0.5,0,2,NaN,0.8,3,659,0,1,NaN,0,0,1.2,0.8,0.163206464995999,NaN,750,0,1,neutral,0,10761.1830324644,2507.86591860898
49,104,2,280,0.5,-0.5,-0.5,1,1,0.8,1,609,1,1,609,1,0,0.8,NaN,-0.228913848000144,-0.228913848000144,750,1,0,congruent,1,6224.97473039611,3323.19448783823
49,104,2,281,0.5,-0.5,0,4,NaN,0.8,4,579,1,1,579,1,0,0.8,NaN,-0.464186035797829,-0.464186035797829,750,0,0,neutral,1,1612.03273959866,3201.63064236564
49,104,2,282,0.5,-0.5,0.5,3,4,0.8,3,665,1,1,665,1,0,1.2,NaN,0.210260902555536,0.210260902555536,750,0,0,incongruent,1,13597.2513133354,2424.39948840974
49,104,2,283,0.5,-0.5,0,1,NaN,0.8,1,539,1,1,539,1,0,1.4,NaN,-0.777882286194743,-0.777882286194743,750,0,0,neutral,1,1749.35728283637,1827.98745284829
49,104,2,284,-0.5,0.5,-0.5,2,2,0.8,2,360,1,1,360,1,0,1.6,0.4,-2.18167300672093,-2.18167300672093,750,1,0,congruent,0.1,1949.8947945099,768.915967696818
49,104,2,285,-0.5,0.5,0,1,NaN,1,1,588,1,1,588,1,0,1.8,0.6,-0.393604379458523,-0.393604379458523,750,0,0,neutral,0.1,4470.03036945749,774.033281402679
49,104,2,286,0.5,0.5,-0.5,3,3,1,3,498,1,1,498,1,0,1.6,NaN,-1.09942094285158,-1.09942094285158,750,1,0,congruent,1,1833.94175492187,3162.09414244249
49,104,2,287,-0.5,0.5,-0.5,4,4,1,4,710,1,1,710,1,0,1.6,0.8,0.563169184252064,0.563169184252064,750,1,0,congruent,0.1,3641.02373140872,728.354444562238
49,104,2,288,0.5,-0.5,0,1,NaN,1,1,507,1,1,507,1,0,1.4,NaN,-1.02883928651227,-1.02883928651227,750,0,0,neutral,1,1406.29364415632,2475.45375211883
49,104,2,289,0.5,-0.5,-0.5,2,2,1,2,630,1,1,630,1,0,1.4,NaN,-0.0642233165417638,-0.0642233165417638,750,1,0,congruent,1,5755.67040369179,1009.65935381181
49,104,2,290,0.5,0.5,-0.5,4,4,1,4,401,1,1,401,1,0,1.6,NaN,-1.8601343500641,-1.8601343500641,750,1,0,congruent,1,3573.94555377845,2485.16463598343
49,104,2,291,0.5,0.5,-0.5,2,2,1,2,498,1,1,498,1,0,1.8,NaN,-1.09942094285158,-1.09942094285158,750,1,0,congruent,1,486.041886214179,807.008180790494
49,104,2,292,0.5,0.5,0,1,NaN,1,1,478,1,1,478,1,0,1.8,NaN,-1.25626906805004,-1.25626906805004,750,0,0,neutral,1,2430.73089729975,3459.79854358924
49,104,2,293,-0.5,-0.5,-0.5,3,3,1,3,547,1,1,547,1,0,2,0.6,-0.71514303611536,-0.71514303611536,750,1,0,congruent,0.1,7214.75391862904,2333.63838910949
49,104,2,294,-0.5,-0.5,0,1,NaN,1,1,455,1,1,455,1,0,1.8,0.6,-1.43664441202826,-1.43664441202826,750,0,0,neutral,0.1,3081.9567256464,2761.70775714128
49,104,2,295,-0.5,-0.5,0.5,3,2,1,3,546,1,1,546,1,0,1.6,0.6,-0.722985442375283,-0.722985442375283,750,0,0,incongruent,0.1,5059.29014032432,2060.72890649706
49,104,2,296,-0.5,0.5,0.5,1,3,1,1,785,1,0,785,0,0,1.4,1,1.15134965374628,1.15134965374628,750,0,0,incongruent,0,1741.82987194065,1842.90664521454
49,104,2,297,-0.5,-0.5,0,3,NaN,0.8,3,597,1,1,597,0,0,1,0.6,-0.323022723119218,-0.323022723119218,750,0,0,neutral,0,4232.80999710009,2026.47942610101
49,104,2,298,-0.5,-0.5,-0.5,4,4,0.8,4,579,1,1,579,1,0,0.6,0.6,-0.464186035797829,-0.464186035797829,750,1,0,congruent,0.1,2375.81358677434,1312.36783760566
49,104,2,300,0.5,-0.5,0.5,3,4,0.8,4,611,0,1,NaN,0,0,0.8,NaN,-0.213229035480298,NaN,750,1,0,incongruent,0,12454.168773297,1912.14601074184
49,104,3,301,-0.5,-0.5,0,2,NaN,0.8,2,651,1,1,651,1,0,0.6,0.8,0.100467214916616,0.100467214916616,750,0,0,neutral,0.1,1523.25304024542,4779.61093333017
49,104,3,302,-0.5,0.5,-0.5,1,1,0.8,1,514,1,1,514,1,0,0.8,0.8,-0.973942442692814,-0.973942442692814,750,1,0,congruent,0.1,2642.39382578166,1483.96341445776
49,104,3,303,0.5,-0.5,0.5,3,2,0.8,3,670,1,1,670,1,0,1,NaN,0.24947293385515,0.24947293385515,750,0,0,incongruent,1,2501.85906207129,1098.36989153783
49,104,3,304,0.5,0.5,-0.5,4,4,0.8,4,456,1,1,456,1,0,1.2,NaN,-1.42880200576834,-1.42880200576834,750,1,0,congruent,1,2889.29825101354,1301.59760168533
49,104,3,305,0.5,-0.5,0.5,3,2,0.8,3,528,1,1,528,1,0,1.2,NaN,-0.864148755053894,-0.864148755053894,750,0,0,incongruent,1,9511.89958543879,2318.7554916281
49,104,3,306,-0.5,0.5,-0.5,4,4,0.8,4,619,1,1,619,1,0,1.6,0.8,-0.150489785400915,-0.150489785400915,750,1,0,congruent,0.1,5317.98158108693,6900.20781400796
49,104,3,307,-0.5,-0.5,0.5,2,1,0.8,2,747,1,1,747,1,0,1.6,0.8,0.853338215869209,0.853338215869209,750,0,0,incongruent,0.1,4076.08944218356,6921.4046529689
49,104,3,308,-0.5,0.5,0,1,NaN,0.8,1,610,1,1,610,1,0,1.6,0.8,-0.221071441740221,-0.221071441740221,750,0,0,neutral,0.1,2802.86720227564,1095.06528467817
49,104,3,309,-0.5,0.5,-0.5,3,3,1,3,568,1,1,568,1,0,1.4,0.8,-0.55045250465698,-0.55045250465698,750,1,0,congruent,0.1,14738.6311740529,1182.51923995689
49,104,3,310,-0.5,0.5,0,1,NaN,1,1,623,1,1,623,1,0,1.2,0.8,-0.119120160361224,-0.119120160361224,750,0,0,neutral,0.1,4337.96233035609,1411.46952213583
49,104,3,311,-0.5,0.5,-0.5,3,3,1,3,569,1,1,569,1,0,1,1,-0.542610098397057,-0.542610098397057,750,1,0,congruent,0.1,3631.52718556979,6088.04419615759
49,104,3,312,-0.5,-0.5,-0.5,1,1,1,1,439,1,1,439,1,0,1,0.8,-1.56212291218703,-1.56212291218703,750,1,0,congruent,0.1,3053.44958624342,4545.79083323663
49,104,3,313,-0.5,-0.5,0.5,4,2,1,4,624,1,1,624,1,0,1,0.8,-0.111277754101301,-0.111277754101301,750,0,0,incongruent,0.1,1671.06721027481,1588.69651933543
49,104,3,314,-0.5,-0.5,-0.5,3,3,1,3,451,1,1,451,1,0,1,1,-1.46801403706795,-1.46801403706795,750,1,0,congruent,0.1,972.200819031678,7682.27698443375
49,104,3,315,-0.5,-0.5,0.5,4,1,1,4,695,1,1,695,1,0,1,1,0.445533090353221,0.445533090353221,750,0,0,incongruent,0.1,3353.97373358981,3952.03797052382
49,104,3,316,0.5,0.5,0,3,NaN,1,1,637,0,1,NaN,0,0,1,NaN,-0.00932647272230388,NaN,750,0,1,neutral,0,2096.88580445727,1839.37260981544
49,104,3,317,-0.5,-0.5,-0.5,4,4,0.8,4,614,1,1,614,1,0,0.8,1,-0.189701816700529,-0.189701816700529,750,1,0,congruent,0.1,1984.13713993657,4479.3530244381
49,104,3,318,-0.5,-0.5,-0.5,3,3,0.8,3,369,1,1,369,1,0,0.8,1,-2.11109135038163,-2.11109135038163,750,1,0,congruent,0.1,6842.25303416607,1264.8640822641
49,104,3,319,0.5,0.5,-0.5,1,1,0.8,1,559,1,1,559,1,0,0.8,NaN,-0.621034160996286,-0.621034160996286,750,1,0,congruent,1,5763.45798172999,7869.19090835621
49,104,3,320,-0.5,-0.5,0,2,NaN,0.8,2,938,1,0,938,1,0,1,1,2.35123781151447,2.35123781151447,750,0,0,neutral,0.1,6684.05212028453,2953.60085234326
49,104,3,321,-0.5,-0.5,-0.5,3,3,0.8,3,918,1,0,918,1,0,1,1,2.19438968631602,2.19438968631602,750,1,0,congruent,0.1,4234.07879497303,631.459766854063
49,104,3,322,-0.5,0.5,0.5,1,2,0.8,1,897,1,0,897,0,0,1.2,1,2.02969915485764,2.02969915485764,750,0,0,incongruent,0,5372.58095985708,2540.79196020248
49,104,3,324,0.5,-0.5,-0.5,1,1,0.6,1,500,1,1,500,1,0,0.8,NaN,-1.08373613033173,-1.08373613033173,750,1,0,congruent,1,8031.28850867514,906.087797091061
49,104,3,325,-0.5,0.5,-0.5,4,4,0.6,4,602,1,1,602,1,0,0.8,0.8,-0.283810691819603,-0.283810691819603,750,1,0,congruent,0.1,1419.92230831344,2958.10004706455
49,104,3,326,0.5,-0.5,-0.5,3,3,0.6,3,577,1,1,577,1,0,0.8,NaN,-0.479870848317675,-0.479870848317675,750,1,0,congruent,1,3619.68294637371,1699.73516750925
49,104,3,327,0.5,-0.5,0,1,NaN,0.6,1,625,1,1,625,0,0,1,NaN,-0.103435347841378,-0.103435347841378,750,0,0,neutral,0,2929.02270566575,6112.83133793404
49,104,3,329,-0.5,-0.5,-0.5,4,4,0.4,4,687,1,1,687,0,0,1,1,0.382793840273838,0.382793840273838,750,1,0,congruent,0,1246.78967282887,516.75520362504
49,104,3,330,0.5,-0.5,0.5,3,2,0.4,3,591,1,1,591,1,0,0.6,NaN,-0.370077160678755,-0.370077160678755,750,0,0,incongruent,1,2107.06305458577,4280.65376930565
49,104,3,331,0.5,-0.5,0.5,2,4,0.4,2,952,1,0,952,1,0,0.8,NaN,2.46103149915339,2.46103149915339,750,0,0,incongruent,1,1697.94099753175,892.444850253563
49,104,3,332,-0.5,0.5,-0.5,1,1,0.4,1,516,1,1,516,1,0,0.8,0.6,-0.958257630172968,-0.958257630172968,750,1,0,congruent,0.1,1000.10991841452,664.187458391757
49,104,3,333,-0.5,0.5,-0.5,3,3,0.6,3,599,1,1,599,1,0,1,0.6,-0.307337910599372,-0.307337910599372,750,1,0,congruent,0.1,4310.38652343018,924.914453938965
49,104,3,334,0.5,-0.5,0,2,NaN,0.6,2,872,1,0,872,0,0,1.2,NaN,1.83363899835956,1.83363899835956,750,0,0,neutral,0,2424.95391007501,11096.6691507131
49,104,3,335,0.5,0.5,-0.5,3,3,0.6,3,517,1,1,517,1,0,1.2,NaN,-0.950415223913045,-0.950415223913045,750,1,0,congruent,1,1165.79364844626,1134.84927741136
49,104,3,336,0.5,-0.5,-0.5,2,2,0.8,2,798,1,0,798,1,0,1.2,NaN,1.25330093512527,1.25330093512527,750,1,0,congruent,1,862.995779611908,4753.41369645605
49,104,3,338,-0.5,-0.5,0.5,2,1,0.6,2,595,1,1,595,1,0,1,0.8,-0.338707535639063,-0.338707535639063,750,0,0,incongruent,0.1,3546.9713786429,2811.40109987693
49,104,3,339,0.5,-0.5,0.5,1,2,0.6,1,534,1,1,534,0,0,1,NaN,-0.817094317494357,-0.817094317494357,750,0,0,incongruent,0,1887.44960752189,7381.65128462343
49,104,3,340,0.5,-0.5,0.5,3,1,0.6,3,670,1,1,670,1,0,1,NaN,0.24947293385515,0.24947293385515,750,0,0,incongruent,1,2448.51541428446,10707.7572383709
49,104,3,341,0.5,0.5,-0.5,2,2,0.6,2,615,1,1,615,1,0,1,NaN,-0.181859410440606,-0.181859410440606,750,1,0,congruent,1,3295.29928360628,4379.1007923654
49,104,3,342,-0.5,-0.5,0.5,1,3,0.8,1,655,1,1,655,1,0,1,0.8,0.131836839956307,0.131836839956307,750,0,0,incongruent,0.1,2962.64617190314,4833.65841649273
49,104,3,343,-0.5,-0.5,-0.5,2,2,0.8,2,553,1,1,553,1,0,1.2,0.8,-0.668088598555823,-0.668088598555823,750,1,0,congruent,0.1,2978.37419186671,1487.58546230765
49,104,3,344,0.5,-0.5,0,4,NaN,0.8,4,558,1,1,558,1,0,1.2,NaN,-0.628876567256209,-0.628876567256209,750,0,0,neutral,1,427.462682137312,12044.1381999323
49,104,3,345,-0.5,-0.5,-0.5,2,2,0.8,2,572,1,1,572,1,0,1.6,0.8,-0.519082879617289,-0.519082879617289,750,1,0,congruent,0.1,2043.28831460011,2861.55859264537
49,104,3,346,-0.5,-0.5,0,4,NaN,0.8,4,543,1,1,543,1,0,1.4,0.8,-0.746512661155051,-0.746512661155051,750,0,0,neutral,0.1,2829.86112725944,2212.30733642673
49,104,3,347,0.5,-0.5,0.5,1,3,0.8,1,645,1,1,645,0,0,1.2,NaN,0.0534127773570789,0.0534127773570789,750,0,0,incongruent,0,9150.61926204603,2186.35048780028
49,104,3,348,0.5,0.5,0.5,3,4,0.8,3,670,1,1,670,1,0,1,NaN,0.24947293385515,0.24947293385515,750,0,0,incongruent,1,1569.94175609562,3619.21601077978
49,104,3,349,-0.5,-0.5,-0.5,1,1,0.8,1,591,1,1,591,1,0,1.2,1,-0.370077160678755,-0.370077160678755,750,1,0,congruent,0.1,3491.91161728891,2811.48382223704
49,104,3,350,-0.5,0.5,0,2,NaN,0.8,2,970,1,0,970,0,0,1,0.6,2.602194811832,2.602194811832,750,0,0,neutral,0,6776.41570258547,7418.40573764235
49,104,3,352,0.5,-0.5,0,2,NaN,0.6,2,649,1,1,649,1,0,0.6,NaN,0.0847824023967702,0.0847824023967702,750,0,0,neutral,1,1672.02024162991,2518.82192341778
49,104,3,353,-0.5,-0.5,-0.5,4,4,0.6,4,826,1,0,826,0,0,1,0.8,1.47288831040311,1.47288831040311,750,1,0,congruent,0,2817.98106592055,4286.29256921744
49,104,3,354,0.5,0.5,-0.5,3,3,0.6,3,909,1,0,909,0,0,0.6,NaN,2.12380802997671,2.12380802997671,750,1,0,congruent,0,11615.3691450151,5310.50964028313
49,104,3,356,-0.5,0.5,0.5,3,2,0.4,3,737,1,1,737,1,0,0.6,0.4,0.774914153269981,0.774914153269981,750,0,0,incongruent,0.1,1519.77687063722,2345.8046468435
49,104,3,358,0.5,0.5,0.5,4,3,0.6,4,787,1,0,787,0,0,0.6,NaN,1.16703446626612,1.16703446626612,750,0,0,incongruent,0,8529.58198119677,4587.81020178238
49,104,3,359,0.5,-0.5,0.5,2,4,0.4,2,916,1,0,916,0,0,0.6,NaN,2.17870487379617,2.17870487379617,750,0,0,incongruent,0,2593.90687654347,5760.812149949
49,104,3,360,0.5,0.5,0.5,4,3,0.4,4,765,1,0,765,0,0,0.6,NaN,0.99450152854782,0.99450152854782,750,0,0,incongruent,0,5688.16738881616,1981.83220268685
49,104,3,362,0.5,-0.5,-0.5,4,4,0.2,3,645,0,1,NaN,0,0,0.2,NaN,0.0534127773570789,NaN,750,0,1,congruent,0,3633.672671727,923.99595908885
49,104,3,367,0.5,-0.5,0,4,NaN,0.6,4,607,1,1,607,0,0,0.8,NaN,-0.244598660519989,-0.244598660519989,750,0,0,neutral,0,6338.07910330294,1739.96739388759
49,104,3,368,0.5,-0.5,-0.5,3,3,0.6,3,550,1,1,550,1,0,0.8,NaN,-0.691615817335591,-0.691615817335591,750,1,0,congruent,1,4833.28394486161,1663.94622570769
49,104,3,370,-0.5,0.5,-0.5,2,2,0.8,2,788,1,0,788,0,0,1.2,0.8,1.17487687252605,1.17487687252605,750,1,0,congruent,0,14996.51177254,2924.08953804032
49,104,3,372,-0.5,-0.5,-0.5,2,2,0.8,2,547,1,1,547,1,0,1.2,0.6,-0.71514303611536,-0.71514303611536,750,1,0,congruent,0.1,11188.5844586315,12162.0812533901
49,104,3,374,-0.5,0.5,0.5,3,2,0.8,3,889,1,0,889,0,0,1,0.6,1.96695990477825,1.96695990477825,750,0,0,incongruent,0,4158.48310307519,1075.94720311439
49,104,3,376,0.5,-0.5,0.5,3,1,0.4,3,678,1,1,678,0,0,0.6,NaN,0.312212183934533,0.312212183934533,750,0,0,incongruent,0,3485.5033198234,6292.13225149498
49,104,3,378,0.5,0.5,0.5,3,4,0.4,3,607,1,1,607,1,0,0.4,NaN,-0.244598660519989,-0.244598660519989,750,0,0,incongruent,1,1274.35271676675,2447.29235787392
49,104,3,379,0.5,0.5,-0.5,1,1,0.4,1,538,1,1,538,1,0,0.8,NaN,-0.785724692454665,-0.785724692454665,750,1,0,congruent,1,6454.29205197788,3347.40675421724
49,104,3,381,-0.5,-0.5,-0.5,1,1,0.6,1,508,1,1,508,1,0,1.6,0.8,-1.02099688025235,-1.02099688025235,750,1,0,congruent,0.1,2544.92779684602,808.030945105145
49,104,3,382,0.5,0.5,0,4,NaN,0.6,4,470,1,1,470,1,0,1.8,NaN,-1.31900831812942,-1.31900831812942,750,0,0,neutral,1,1785.80416362406,1407.42972978131
49,104,3,385,-0.5,0.5,0,3,NaN,0.8,4,564,0,1,NaN,0,0,1.4,0.6,-0.581822129696671,NaN,750,0,1,neutral,0,3736.84897677767,2359.15580862718
49,104,3,386,-0.5,0.5,0.5,4,3,0.8,4,629,1,1,629,1,0,1,0.4,-0.0720657228016866,-0.0720657228016866,750,0,0,incongruent,0.1,2625.40276587307,3945.95912909631
49,104,3,388,0.5,-0.5,0.5,1,3,0.6,1,734,1,1,734,1,0,0.6,NaN,0.751386934490212,0.751386934490212,750,0,0,incongruent,1,2724.43389286933,3967.55884064331
49,104,3,389,-0.5,-0.5,0.5,3,1,0.6,3,542,1,1,542,0,0,0.8,0.8,-0.754355067414974,-0.754355067414974,750,0,0,incongruent,0,1361.19195072619,1539.29752991105
49,104,3,390,0.5,-0.5,0.5,2,4,0.6,1,614,0,1,NaN,1,0,0.6,NaN,-0.189701816700529,NaN,750,0,1,incongruent,1,5108.81098115534,2358.76483703621
49,104,3,391,-0.5,-0.5,0.5,4,2,0.6,4,741,1,1,741,1,0,1,0.6,0.806283778309672,0.806283778309672,750,0,0,incongruent,0.1,3689.3171801955,1479.16603463926
49,104,3,392,0.5,0.5,0.5,3,1,0.6,3,538,1,1,538,1,0,1,NaN,-0.785724692454665,-0.785724692454665,750,0,0,incongruent,1,5414.57515436706,2845.10357189618
49,104,3,393,0.5,-0.5,0.5,2,3,0.6,4,572,0,1,NaN,1,0,1.4,NaN,-0.519082879617289,NaN,750,0,1,incongruent,1,3299.24936753688,3283.08007706291
49,104,3,395,0.5,0.5,-0.5,2,2,0.4,3,595,0,1,NaN,0,0,1.4,NaN,-0.338707535639063,NaN,750,0,1,congruent,0,5250.42086873913,5285.66799914985
49,104,3,396,-0.5,-0.5,0.5,1,4,0.4,1,639,1,1,639,1,0,1,0.8,0.00635833979754181,0.00635833979754181,750,0,0,incongruent,0.1,1910.3862461176,2561.15788009911
49,104,3,397,0.5,-0.5,0,3,NaN,0.4,3,913,1,0,913,1,0,1,NaN,2.1551776550164,2.1551776550164,750,0,0,neutral,1,12283.074855247,1423.63669258935
49,104,3,400,-0.5,0.5,0.5,2,3,0.2,2,678,1,1,678,1,0,0.6,0.2,0.312212183934533,0.312212183934533,750,0,0,incongruent,0.1,3447.56768528969,2193.62650875962
49,104,3,401,-0.5,-0.5,0,3,NaN,0.4,3,540,1,1,540,0,0,0.8,0.8,-0.77003987993482,-0.77003987993482,750,0,0,neutral,0,4528.0466330834,1304.25281297719
49,104,3,403,0.5,-0.5,-0.5,3,3,0.4,3,697,1,1,697,0,0,0.2,NaN,0.461217902873067,0.461217902873067,750,1,0,congruent,0,8391.19808953779,1000.67639075569
49,104,3,404,0.5,-0.5,-0.5,4,4,0.4,4,534,1,1,534,1,0,0.2,NaN,-0.817094317494357,-0.817094317494357,750,1,0,congruent,1,4753.46780054698,3939.55806161845
49,104,3,405,0.5,0.5,0.5,3,1,0.4,3,766,1,0,766,0,0,0.6,NaN,1.00234393480774,1.00234393480774,750,0,0,incongruent,0,1068.36597674073,1846.1551673309
49,104,3,406,0.5,0.5,-0.5,2,2,0.2,2,346,1,1,346,1,0,0.4,NaN,-2.29146669435985,-2.29146669435985,750,1,0,congruent,1,2066.95423075644,4482.95093421118
49,104,3,407,0.5,-0.5,-0.5,4,4,0.4,4,566,1,1,566,0,0,0.8,NaN,-0.566137317176826,-0.566137317176826,750,1,0,congruent,0,8680.95676551006,1534.9883262641
49,104,3,408,0.5,0.5,0.5,3,1,0.4,1,775,0,0,NaN,0,0,0.8,NaN,1.07292559114705,NaN,750,1,0,incongruent,0,7450.52877305877,2370.51004622606
49,104,3,409,-0.5,0.5,0.5,1,3,0.4,2,665,0,1,NaN,0,0,0.8,0.4,0.210260902555536,NaN,750,0,1,incongruent,0,4264.54459293665,2682.03290827628
49,104,3,411,0.5,-0.5,-0.5,3,3,0.4,3,796,1,0,796,0,0,0.6,NaN,1.23761612260543,1.23761612260543,750,1,0,congruent,0,2441.76435475547,3211.00566041091
49,104,3,412,0.5,-0.5,-0.5,4,4,0.4,4,524,1,1,524,0,0,0.2,NaN,-0.895518380093585,-0.895518380093585,750,1,0,congruent,0,2726.02828302424,4021.15293169197
49,104,3,413,0.5,-0.5,0,3,NaN,0.4,3,647,1,1,647,0,0,0.2,NaN,0.0690975898769246,0.0690975898769246,750,0,0,neutral,0,2193.28644383294,9006.47404758865
49,104,3,415,-0.5,0.5,0.5,2,4,0.4,1,908,0,0,NaN,0,0,0.2,0.4,2.11596562371679,NaN,750,0,1,incongruent,0,1730.93447452288,3248.64076369724
49,104,3,416,0.5,0.5,0.5,1,2,0.2,2,606,0,1,NaN,0,0,0,NaN,-0.252441066779912,NaN,750,1,0,incongruent,0,3288.6199457276,6300.97483445263
49,104,3,417,0.5,-0.5,0,4,NaN,0.2,4,644,1,1,644,0,0,0,NaN,0.045570371097156,0.045570371097156,750,0,0,neutral,0,6492.72129594486,3073.69966476426
49,104,3,418,-0.5,-0.5,0.5,2,4,0.2,2,621,1,1,621,0,0,0,0.4,-0.134804972881069,-0.134804972881069,750,0,0,incongruent,0,914.621181821511,5534.82628706798
49,104,3,419,-0.5,-0.5,0.5,4,2,0.2,4,817,1,0,817,0,0,0,0.2,1.40230665406381,1.40230665406381,750,0,0,incongruent,0,4219.89933537195,408.459319078465
49,104,3,420,0.5,-0.5,0.5,2,1,0.2,2,591,1,1,591,0,0,0,NaN,-0.370077160678755,-0.370077160678755,750,0,0,incongruent,0,7650.6597128746,1667.86130617873
49,104,3,421,-0.5,0.5,0.5,3,2,0.2,4,512,0,1,NaN,0,0,0,0.4,-0.989627255212659,NaN,750,0,1,incongruent,0,5998.27571300704,3601.07321362717
49,104,3,422,0.5,0.5,0.5,2,4,0,2,581,1,1,581,1,0,0,NaN,-0.448501223277983,-0.448501223277983,750,0,0,incongruent,1,3819.75425391214,1928.01879736447
49,104,3,424,-0.5,-0.5,-0.5,4,4,0.4,4,506,1,1,506,1,0,0.8,0.2,-1.0366816927722,-1.0366816927722,750,1,0,congruent,0.1,1066.85136253161,2227.33534767365
49,104,3,425,-0.5,-0.5,0,3,NaN,0.4,3,616,1,1,616,1,0,1,0.4,-0.174017004180684,-0.174017004180684,750,0,0,neutral,0.1,951.527469621609,1066.67051391883
49,104,3,426,-0.5,0.5,-0.5,4,4,0.4,4,694,1,1,694,1,0,1.2,0.2,0.437690684093298,0.437690684093298,750,1,0,congruent,0.1,3487.52564505335,114.76151603318
49,104,3,427,-0.5,0.5,-0.5,1,1,0.6,1,474,1,1,474,1,0,1.4,0.4,-1.28763869308973,-1.28763869308973,750,1,0,congruent,0.1,3499.28498893893,1788.78128539591
49,104,3,430,-0.5,-0.5,0.5,4,3,0.8,4,639,1,1,639,1,0,0.8,0.6,0.00635833979754181,0.00635833979754181,750,0,0,incongruent,0.1,3166.37549426241,2187.61238086201
49,104,3,431,0.5,0.5,0.5,1,2,0.8,1,683,1,1,683,1,0,0.8,NaN,0.351424215234147,0.351424215234147,750,0,0,incongruent,1,5251.84195370301,1165.04276919653
49,104,3,432,-0.5,-0.5,0.5,2,3,0.8,1,891,0,0,NaN,1,0,1,0.8,1.9826447172981,NaN,750,0,1,incongruent,0.1,2748.55784540662,4009.266808938
49,104,3,433,0.5,0.5,0.5,4,1,0.8,4,731,1,1,731,1,0,1,NaN,0.727859715710444,0.727859715710444,750,0,0,incongruent,1,7871.60731661596,1621.50280273764
49,104,3,434,-0.5,-0.5,0.5,2,3,0.8,2,717,1,1,717,1,0,1.4,1,0.618066028071524,0.618066028071524,750,0,0,incongruent,0.1,2595.18161715499,1552.08114507588
49,104,3,435,0.5,0.5,-0.5,1,1,0.8,1,627,1,1,627,1,0,1.4,NaN,-0.0877505353215323,-0.0877505353215323,750,1,0,congruent,1,1746.03437729863,2505.5838935419
49,104,3,436,-0.5,-0.5,0,3,NaN,0.8,3,619,1,1,619,1,0,1.6,1,-0.150489785400915,-0.150489785400915,750,0,0,neutral,0.1,5665.80933921929,2176.28556361519
49,104,3,437,-0.5,0.5,0.5,1,4,0.8,1,869,1,0,869,0,0,1.4,0.4,1.8101117795798,1.8101117795798,750,0,0,incongruent,0,3749.04139714036,1850.02290218028
49,104,3,438,0.5,-0.5,-0.5,3,3,0.6,3,594,1,1,594,0,0,1.2,NaN,-0.346549941898986,-0.346549941898986,750,1,0,congruent,0,1954.21081787622,2612.72571531864
49,104,3,439,0.5,-0.5,0,2,NaN,0.6,2,686,1,1,686,1,0,0.8,NaN,0.374951434013916,0.374951434013916,750,0,0,neutral,1,1901.13878162109,5196.90058988688
49,104,3,440,-0.5,0.5,0.5,1,2,0.6,1,609,1,1,609,1,0,1,0.4,-0.228913848000144,-0.228913848000144,750,0,0,incongruent,0.1,5745.9531371003,618.33065942331
49,104,3,441,0.5,-0.5,-0.5,3,3,0.8,3,898,1,0,898,1,0,0.8,NaN,2.03754156111756,2.03754156111756,750,1,0,congruent,1,5226.89214511263,1203.14301449712
49,104,3,442,0.5,0.5,-0.5,4,4,0.8,4,838,1,0,838,0,0,1,NaN,1.56699718552219,1.56699718552219,750,1,0,congruent,0,1229.16440338879,1466.10895101553
49,104,3,443,-0.5,0.5,0.5,1,2,0.6,1,558,1,1,558,1,0,1,0.6,-0.628876567256209,-0.628876567256209,750,0,0,incongruent,0.1,6339.99769148524,4006.7150553912
49,104,3,444,0.5,-0.5,0.5,4,1,0.6,3,828,0,0,NaN,1,0,1.2,NaN,1.48857312292296,NaN,750,0,1,incongruent,1,2428.57244311392,1967.14385112246
49,104,3,445,0.5,-0.5,0.5,1,2,0.6,1,654,1,1,654,1,0,1.2,NaN,0.123994433696384,0.123994433696384,750,0,0,incongruent,1,5388.09802377404,2373.30266495234
49,104,3,446,-0.5,-0.5,0,4,NaN,0.6,4,608,1,1,608,1,0,1.4,1,-0.236756254260066,-0.236756254260066,750,0,0,neutral,0.1,3138.24497354675,1456.21484628611
49,104,3,447,-0.5,0.5,0.5,3,1,0.6,3,753,1,0,753,0,0,1.2,0.8,0.900392653428746,0.900392653428746,750,0,0,incongruent,0,3498.11897352268,2296.80570408621
49,104,3,448,0.5,-0.5,-0.5,2,2,0.4,2,596,1,1,596,0,0,1.2,NaN,-0.33086512937914,-0.33086512937914,750,1,0,congruent,0,5267.92430416911,1011.61918357838
49,104,3,449,-0.5,0.5,-0.5,1,1,0.4,3,623,0,1,NaN,0,0,1,0.6,-0.119120160361224,NaN,750,0,1,congruent,0,878.751602261756,12414.9627989024
49,104,3,450,-0.5,0.5,-0.5,3,3,0.4,3,678,1,1,678,1,0,0.6,0.4,0.312212183934533,0.312212183934533,750,1,0,congruent,0.1,3296.78999687814,5366.76026795293
49,104,4,451,-0.5,-0.5,-0.5,4,4,0.4,4,718,1,1,718,1,0,0.4,1,0.625908434331446,0.625908434331446,750,1,0,congruent,0.1,3577.00284206282,5012.76396019761
49,104,4,452,-0.5,-0.5,-0.5,1,1,0.4,1,463,1,1,463,0,0,0.4,1,-1.37390516194888,-1.37390516194888,750,1,0,congruent,0,1824.96349130606,952.996875083087
49,104,4,453,0.5,0.5,0.5,2,4,0.4,2,647,1,1,647,1,0,0.4,NaN,0.0690975898769246,0.0690975898769246,750,0,0,incongruent,1,14018.4238373005,4894.90982286238
49,104,4,454,-0.5,0.5,-0.5,3,3,0.6,3,540,1,1,540,1,0,0.8,0.6,-0.77003987993482,-0.77003987993482,750,1,0,congruent,0.1,4315.24964003921,2543.06561755299
49,104,4,455,0.5,0.5,0,1,NaN,0.6,1,532,1,1,532,1,0,1,NaN,-0.832779130014203,-0.832779130014203,750,0,0,neutral,1,3260.73165752129,1061.65784587627
49,104,4,456,0.5,-0.5,0.5,3,4,0.8,4,585,0,1,NaN,1,0,1.2,NaN,-0.417131598238292,NaN,750,1,0,incongruent,1,7425.31093062882,2906.16060040908
49,104,4,457,0.5,0.5,0.5,4,3,0.8,4,847,1,0,847,0,0,1.4,NaN,1.63757884186149,1.63757884186149,750,0,0,incongruent,0,1277.88361953194,5373.01193115166
49,104,4,458,0.5,0.5,-0.5,2,2,0.8,2,400,1,1,400,1,0,1.4,NaN,-1.86797675632402,-1.86797675632402,750,1,0,congruent,1,1393.73137191222,2289.510884225
49,104,4,459,0.5,0.5,0,3,NaN,0.8,1,531,0,1,NaN,0,0,1.4,NaN,-0.840621536274125,NaN,750,0,1,neutral,0,11666.6380804977,1866.06111280754
49,104,4,460,0.5,-0.5,0.5,4,1,0.6,3,618,0,1,NaN,1,0,1.2,NaN,-0.158332191660838,NaN,750,0,1,incongruent,1,1626.47193526661,701.653737905917
49,104,4,461,-0.5,0.5,0.5,1,3,0.6,2,626,0,1,NaN,0,0,1.2,0.6,-0.0955929415814552,NaN,750,0,1,incongruent,0,3980.37157600307,6430.28838827053
49,104,4,462,0.5,-0.5,-0.5,4,4,0.4,3,643,0,1,NaN,1,0,0.8,NaN,0.0377279648372332,NaN,750,0,1,congruent,1,8102.06158582406,3041.55019048085
49,104,4,463,0.5,0.5,0,2,NaN,0.4,1,507,0,1,NaN,0,0,1.2,NaN,-1.02883928651227,NaN,750,0,1,neutral,0,4893.64366393536,4395.87797669518
49,104,4,464,0.5,0.5,0.5,1,2,0.2,2,446,0,1,NaN,0,0,0.8,NaN,-1.50722606836757,NaN,750,1,0,incongruent,0,14188.4396246333,2344.3550170829
49,104,4,465,0.5,0.5,-0.5,3,3,0.2,3,537,1,1,537,1,0,0.8,NaN,-0.793567098714588,-0.793567098714588,750,1,0,congruent,1,4355.21075144702,3020.75900399752
49,104,4,466,-0.5,-0.5,0.5,4,2,0.2,4,690,1,1,690,1,0,0.8,0.8,0.406321059053607,0.406321059053607,750,0,0,incongruent,0.1,4613.70897863135,673.801004772533
49,104,4,467,-0.5,0.5,0,1,NaN,0.2,1,557,1,1,557,1,0,1,0.4,-0.636718973516131,-0.636718973516131,750,0,0,neutral,0.1,5277.6858093966,2127.5000206611
49,104,4,468,-0.5,-0.5,0.5,2,4,0.4,3,669,0,1,NaN,1,0,0.8,0.8,0.241630527595227,NaN,750,0,1,incongruent,0.1,2498.44810293974,6283.91514919738
49,104,4,469,-0.5,0.5,0,4,NaN,0.4,3,666,0,1,NaN,0,0,1,0.6,0.218103308815459,NaN,750,0,1,neutral,0,8688.3441939061,695.205227927615
49,104,4,470,-0.5,-0.5,0.5,3,1,0.4,3,819,1,0,819,1,0,1,0.8,1.41799146658365,1.41799146658365,750,0,0,incongruent,0.1,3889.47700244993,2575.20814406717
49,104,4,471,-0.5,-0.5,0,4,NaN,0.4,4,435,1,1,435,1,0,0.8,0.8,-1.59349253722672,-1.59349253722672,750,0,0,neutral,0.1,1945.406646866,2867.87681362874
49,104,4,472,-0.5,0.5,-0.5,3,3,0.4,3,529,1,1,529,1,0,0.8,0.6,-0.856306348793971,-0.856306348793971,750,1,0,congruent,0.1,3431.02458859377,4424.92833601615
49,104,4,473,0.5,0.5,0,4,NaN,0.6,4,337,1,1,337,1,0,0.8,NaN,-2.36204835069916,-2.36204835069916,750,0,0,neutral,1,1646.84882107577,1684.11732601885
49,104,4,475,-0.5,-0.5,0.5,3,4,0.8,3,789,1,0,789,1,0,1.2,1,1.18271927878597,1.18271927878597,750,0,0,incongruent,0.1,5390.05538024513,10025.337481087
49,104,4,476,0.5,-0.5,0,1,NaN,0.8,3,674,0,1,NaN,1,0,1.2,NaN,0.280842558894841,NaN,750,0,1,neutral,1,18686.0441897965,1906.36947347068
49,104,4,477,0.5,0.5,0.5,2,1,0.8,2,600,1,1,600,1,0,1.4,NaN,-0.299495504339449,-0.299495504339449,750,0,0,incongruent,1,2711.00826247351,2975.83535426555
49,104,4,478,-0.5,-0.5,0,3,NaN,0.8,4,479,0,1,NaN,1,0,1.6,1,-1.24842666179011,NaN,750,0,1,neutral,0.1,5259.05411842307,3242.6618029835
49,104,4,479,-0.5,0.5,-0.5,2,2,0.8,2,519,1,1,519,1,0,1.4,0.6,-0.934730411393199,-0.934730411393199,750,1,0,congruent,0.1,1260.45649948867,1231.16195281011
49,104,4,480,-0.5,0.5,-0.5,1,1,0.8,1,535,1,1,535,1,0,1.4,0.6,-0.809251911234434,-0.809251911234434,750,1,0,congruent,0.1,6741.03725857926,1037.46880088438
49,104,4,481,0.5,-0.5,0,4,NaN,1,4,457,1,1,457,1,0,1.4,NaN,-1.42095959950842,-1.42095959950842,750,0,0,neutral,1,5021.99904984359,5366.67030400117
49,104,4,482,0.5,0.5,-0.5,2,2,1,2,588,1,1,588,1,0,1.4,NaN,-0.393604379458523,-0.393604379458523,750,1,0,congruent,1,2927.97613487289,1486.9834867351
49,104,4,483,0.5,-0.5,-0.5,4,4,1,4,503,1,1,503,1,0,1.4,NaN,-1.06020891155197,-1.06020891155197,750,1,0,congruent,1,5081.60119343039,8355.36039217166
49,104,4,484,0.5,0.5,0.5,3,2,1,3,651,1,1,651,1,0,1.6,NaN,0.100467214916616,0.100467214916616,750,0,0,incongruent,1,1768.18103279094,3921.83461228832
49,104,4,485,-0.5,0.5,-0.5,4,4,1,4,492,1,1,492,1,0,1.8,0.8,-1.14647538041112,-1.14647538041112,750,1,0,congruent,0.1,3753.38239725619,2484.34567510459
49,104,4,486,-0.5,0.5,0,2,NaN,1,2,758,1,0,758,0,0,1.8,0.8,0.93960468472836,0.93960468472836,750,0,0,neutral,0,3132.65564844761,4482.97259956444
49,104,4,487,0.5,-0.5,-0.5,4,4,0.8,4,630,1,1,630,1,0,1.4,NaN,-0.0642233165417638,-0.0642233165417638,750,1,0,congruent,1,3602.6855230587,3159.12318221991
49,104,4,488,-0.5,0.5,0,1,NaN,0.8,1,595,1,1,595,1,0,1.4,0.8,-0.338707535639063,-0.338707535639063,750,0,0,neutral,0.1,6671.67743091635,2660.61589211437
49,104,4,489,0.5,-0.5,-0.5,2,2,0.8,2,561,1,1,561,1,0,1.2,NaN,-0.60534934847644,-0.60534934847644,750,1,0,congruent,1,6588.57735810605,1345.61394006547
49,104,4,491,0.5,0.5,-0.5,2,2,0.8,2,509,1,1,509,1,0,1.2,NaN,-1.01315447399243,-1.01315447399243,750,1,0,congruent,1,1685.4354593727,1924.46484439741
49,104,4,492,0.5,-0.5,-0.5,1,1,0.8,2,564,0,1,NaN,1,0,1.6,NaN,-0.581822129696671,NaN,750,0,1,congruent,1,2443.13599691789,2786.79721868807
49,104,4,494,-0.5,0.5,0.5,1,3,0.8,1,608,1,1,608,1,0,1.8,0.8,-0.236756254260066,-0.236756254260066,750,0,0,incongruent,0.1,1794.0351259678,5048.04179688334
49,104,4,496,0.5,0.5,-0.5,3,3,0.8,3,505,1,1,505,1,0,1.6,NaN,-1.04452409903212,-1.04452409903212,750,1,0,congruent,1,4767.88808543448,12726.8530243173
49,104,4,497,0.5,0.5,-0.5,2,2,1,2,720,1,1,720,1,0,1.6,NaN,0.641593246851292,0.641593246851292,750,1,0,congruent,1,1370.10850161448,2518.92839968269
49,104,4,499,-0.5,0.5,0.5,3,1,1,3,764,1,0,764,0,0,1.6,0.8,0.986659122287897,0.986659122287897,750,0,0,incongruent,0,2959.51772538027,1346.04159701167
49,104,4,500,-0.5,-0.5,0,4,NaN,0.8,4,599,1,1,599,1,0,1.4,1,-0.307337910599372,-0.307337910599372,750,0,0,neutral,0.1,1469.58088804181,2160.55889751578
49,104,4,501,0.5,0.5,0.5,1,2,0.8,2,594,0,1,NaN,0,0,1.4,NaN,-0.346549941898986,NaN,750,1,0,incongruent,0,2590.44915748022,2117.25016818216
49,104,4,502,0.5,-0.5,0.5,2,4,0.6,2,659,1,1,659,0,0,1,NaN,0.163206464995999,0.163206464995999,750,0,0,incongruent,0,2781.19044524301,4194.35703892094
49,104,4,503,0.5,-0.5,0,1,NaN,0.6,1,653,1,1,653,1,0,0.6,NaN,0.116152027436462,0.116152027436462,750,0,0,neutral,1,3789.97110929348,1356.98912957803
49,104,4,506,0.5,0.5,0,2,NaN,0.6,2,759,1,0,759,0,0,0.8,NaN,0.947447090988283,0.947447090988283,750,0,0,neutral,0,2893.10226107179,3923.88824253331
49,104,4,507,-0.5,0.5,0.5,1,4,0.4,1,912,1,0,912,0,0,0.8,0.6,2.14733524875648,2.14733524875648,750,0,0,incongruent,0,3618.48255847948,1087.01414132052
49,104,4,508,-0.5,-0.5,0.5,4,3,0.2,4,847,1,0,847,0,0,0.8,0.8,1.63757884186149,1.63757884186149,750,0,0,incongruent,0,11465.6776696019,2581.23099100112
49,104,4,509,-0.5,-0.5,0.5,3,2,0.2,3,944,1,0,944,0,0,0.4,0.6,2.39829224907401,2.39829224907401,750,0,0,incongruent,0,5502.91695383798,4489.55030013439
49,104,4,510,-0.5,-0.5,0,1,NaN,0.2,1,504,1,1,504,0,0,0,0.4,-1.05236650529204,-1.05236650529204,750,0,0,neutral,0,7345.25165427467,3123.78547628785
49,104,4,511,0.5,0.5,-0.5,2,2,0.2,2,580,1,1,580,1,0,0,NaN,-0.456343629537906,-0.456343629537906,750,1,0,congruent,1,5935.36448208374,5674.99165090667
49,104,4,512,0.5,-0.5,0,4,NaN,0.4,4,566,1,1,566,0,0,0.4,NaN,-0.566137317176826,-0.566137317176826,750,0,0,neutral,0,4706.48856190655,1562.54084146385
49,104,4,513,-0.5,-0.5,-0.5,3,3,0.4,3,524,1,1,524,0,0,0.4,0.2,-0.895518380093585,-0.895518380093585,750,1,0,congruent,0,4393.89367024752,1489.09051106405
49,104,4,514,-0.5,0.5,-0.5,2,2,0.4,2,591,1,1,591,1,0,0.4,0.6,-0.370077160678755,-0.370077160678755,750,1,0,congruent,0.1,4325.48536378944,1379.45393197513
49,104,4,515,0.5,-0.5,0,1,NaN,0.6,1,522,1,1,522,1,0,0.6,NaN,-0.911203192613431,-0.911203192613431,750,0,0,neutral,1,3774.36835472516,4432.0848725204
49,104,4,516,0.5,0.5,-0.5,4,4,0.6,4,555,1,1,555,1,0,1,NaN,-0.652403786035977,-0.652403786035977,750,1,0,congruent,1,3394.82439029579,1668.62310115695
49,104,4,517,0.5,-0.5,-0.5,3,3,0.6,3,880,1,0,880,0,0,1,NaN,1.89637824843895,1.89637824843895,750,1,0,congruent,0,2960.25059407236,1049.24974643654
49,104,4,518,-0.5,0.5,-0.5,2,2,0.6,1,558,0,1,NaN,0,0,1,0.6,-0.628876567256209,NaN,750,0,1,congruent,0,5613.07064531912,2192.39176436717
49,104,4,519,-0.5,-0.5,-0.5,3,3,0.6,3,627,1,1,627,1,0,1,0,-0.0877505353215323,-0.0877505353215323,750,1,0,congruent,0.1,14700.2632113103,2572.78420583729
49,104,4,520,-0.5,0.5,0.5,2,4,0.6,2,626,1,1,626,1,0,1,0.4,-0.0955929415814552,-0.0955929415814552,750,0,0,incongruent,0.1,18874.533715733,420.837487754854
49,104,4,522,-0.5,-0.5,-0.5,4,4,0.6,4,579,1,1,579,0,0,0.4,0.2,-0.464186035797829,-0.464186035797829,750,1,0,congruent,0,5267.35497773333,2666.03411420509
49,104,4,523,0.5,0.5,0,2,NaN,0.6,1,610,0,1,NaN,0,0,0.4,NaN,-0.221071441740221,NaN,750,0,1,neutral,0,7411.7375646732,3160.1527281516
49,104,4,524,0.5,0.5,0.5,4,1,0.4,4,883,1,0,883,0,0,0.4,NaN,1.91990546721872,1.91990546721872,750,0,0,incongruent,0,5333.29570827773,3985.28311500717
49,104,4,525,-0.5,0.5,0,3,NaN,0.2,4,490,0,1,NaN,0,0,0.2,0.4,-1.16216019293096,NaN,750,0,1,neutral,0,4366.04722296513,734.779968247226
49,104,4,526,0.5,-0.5,-0.5,1,1,0.2,1,569,1,1,569,0,0,0,NaN,-0.542610098397057,-0.542610098397057,750,1,0,congruent,0,4819.24329711782,5052.16387764187
49,104,4,527,0.5,-0.5,0.5,2,4,0.2,2,700,1,1,700,0,0,0,NaN,0.484745121652835,0.484745121652835,750,0,0,incongruent,0,5976.78628610601,2899.0756805538
49,104,4,528,0.5,0.5,0.5,4,1,0.2,4,653,1,1,653,1,0,0,NaN,0.116152027436462,0.116152027436462,750,0,0,incongruent,1,9153.19724504657,861.63436921048
49,104,4,529,0.5,0.5,-0.5,3,3,0.2,3,501,1,1,501,1,0,0.4,NaN,-1.07589372407181,-1.07589372407181,750,1,0,congruent,1,1266.19177945464,23960.4115759797
49,104,4,530,0.5,-0.5,-0.5,4,4,0.4,4,621,1,1,621,0,0,0.8,NaN,-0.134804972881069,-0.134804972881069,750,1,0,congruent,0,7054.54522343477,3561.11241110336
49,104,4,532,-0.5,-0.5,-0.5,1,1,0.4,1,563,1,1,563,1,0,1,0.4,-0.589664535956594,-0.589664535956594,750,1,0,congruent,0.1,3381.41305947296,2220.50294703137
49,104,4,533,0.5,-0.5,0.5,4,2,0.4,4,726,1,1,726,1,0,1.2,NaN,0.688647684410829,0.688647684410829,750,0,0,incongruent,1,3176.4501095066,1871.42420682178
49,104,4,535,-0.5,0.5,-0.5,2,2,0.4,2,647,1,1,647,1,0,0.8,0.4,0.0690975898769246,0.0690975898769246,750,1,0,congruent,0.1,7522.95453876455,3236.13233299576
49,104,4,536,0.5,0.5,-0.5,4,4,0.6,3,585,0,1,NaN,0,0,1,NaN,-0.417131598238292,NaN,750,0,1,congruent,0,4646.58313679874,7404.90415209574
49,104,4,537,0.5,0.5,0.5,1,3,0.6,1,576,1,1,576,1,0,0.8,NaN,-0.487713254577597,-0.487713254577597,750,0,0,incongruent,1,2462.21221945527,1926.65451564666
49,104,4,538,0.5,0.5,0.5,3,1,0.8,3,699,1,1,699,1,0,1,NaN,0.476902715392912,0.476902715392912,750,0,0,incongruent,1,10766.6129700939,7625.72153057837
49,104,4,539,-0.5,0.5,-0.5,2,2,0.8,3,597,0,1,NaN,0,0,1,0.4,-0.323022723119218,NaN,750,0,1,congruent,0,1202.73752624698,6650.11564619158
49,104,4,540,0.5,0.5,0.5,4,3,0.6,4,668,1,1,668,1,0,1,NaN,0.233788121335304,0.233788121335304,750,0,0,incongruent,1,5147.99366755746,11514.8057468135
49,104,4,542,0.5,-0.5,0,3,NaN,0.6,3,654,1,1,654,0,0,1.6,NaN,0.123994433696384,0.123994433696384,750,0,0,neutral,0,10356.0839856505,2220.48647205969
49,104,4,543,-0.5,-0.5,0.5,4,2,0.6,3,543,0,1,NaN,1,0,1.2,0.6,-0.746512661155051,NaN,750,0,1,incongruent,0.1,2015.86462240546,1703.97451955479
49,104,4,544,-0.5,-0.5,-0.5,3,3,0.6,3,542,1,1,542,1,0,1,0.8,-0.754355067414974,-0.754355067414974,750,1,0,congruent,0.1,4209.56820059929,748.85857821031
49,104,4,545,0.5,-0.5,0,1,NaN,0.6,1,555,1,1,555,1,0,1.2,NaN,-0.652403786035977,-0.652403786035977,750,0,0,neutral,1,5744.55839143513,2292.85719836418
49,104,4,546,0.5,0.5,0.5,2,3,0.6,3,688,0,1,NaN,0,0,1.2,NaN,0.390636246533761,NaN,750,1,0,incongruent,0,1787.96506540976,3060.84899385353
49,104,4,548,0.5,-0.5,-0.5,2,2,0.6,2,579,1,1,579,1,0,1,NaN,-0.464186035797829,-0.464186035797829,750,1,0,congruent,1,2486.59574875526,8356.72576216391
49,104,4,550,-0.5,-0.5,-0.5,2,2,0.4,3,821,0,0,NaN,1,0,1,0.8,1.4336762791035,NaN,750,0,1,congruent,0.1,2216.9769214074,573.961277128065
49,104,4,551,-0.5,0.5,0,3,NaN,0.4,2,554,0,1,NaN,0,0,0.8,0.4,-0.6602461922959,NaN,750,0,1,neutral,0,5789.44353583525,4218.04814596962
49,104,4,552,0.5,-0.5,-0.5,4,4,0.4,4,710,1,1,710,1,0,0.8,NaN,0.563169184252064,0.563169184252064,750,1,0,congruent,1,1917.74465640545,3407.42098335889
49,104,4,553,0.5,-0.5,0,2,NaN,0.4,1,443,0,1,NaN,0,0,1,NaN,-1.53075328714734,NaN,750,0,1,neutral,0,5401.08588230279,1576.01147342237
49,104,4,554,0.5,-0.5,0.5,4,2,0.4,3,731,0,1,NaN,1,0,0.6,NaN,0.727859715710444,NaN,750,0,1,incongruent,1,7296.82775155979,2659.54626847153
49,104,4,555,0.5,0.5,-0.5,1,1,0.4,1,421,1,1,421,1,0,1,NaN,-1.70328622486564,-1.70328622486564,750,1,0,congruent,1,3163.01452861397,6171.07371868427
49,104,4,556,-0.5,0.5,0,4,NaN,0.4,3,637,0,1,NaN,0,0,1.2,0.4,-0.00932647272230388,NaN,750,0,1,neutral,0,2090.33753437553,1532.8648053772
49,104,4,557,0.5,0.5,-0.5,3,3,0.4,3,550,1,1,550,1,0,1.2,NaN,-0.691615817335591,-0.691615817335591,750,1,0,congruent,1,7245.2665289509,4703.48123475287
49,104,4,559,0.5,0.5,0,3,NaN,0.4,2,791,0,0,NaN,0,0,1.2,NaN,1.19840409130581,NaN,750,0,1,neutral,0,7593.11891578168,1885.08880227718
49,104,4,560,0.5,-0.5,-0.5,1,1,0.4,1,503,1,1,503,1,0,0.8,NaN,-1.06020891155197,-1.06020891155197,750,1,0,congruent,1,4695.02657575079,8671.32854591378
49,104,4,561,-0.5,-0.5,0.5,2,3,0.4,2,674,1,1,674,1,0,0.8,1,0.280842558894841,0.280842558894841,750,0,0,incongruent,0.1,9796.34147733779,2460.69218193144
49,104,4,562,0.5,0.5,0.5,4,2,0.4,4,719,1,1,719,1,0,1,NaN,0.633750840591369,0.633750840591369,750,0,0,incongruent,1,3546.75833305608,2479.06747827725
49,104,4,563,-0.5,0.5,0,1,NaN,0.4,1,515,1,1,515,1,0,1,0.2,-0.966100036432891,-0.966100036432891,750,0,0,neutral,0.1,1200.60650679947,618.38792128815
49,104,4,564,-0.5,-0.5,-0.5,3,3,0.6,4,596,0,1,NaN,0,0,1.2,1,-0.33086512937914,NaN,750,0,1,congruent,0,9549.68036345959,1520.08709271473
49,104,4,566,-0.5,-0.5,0.5,3,4,0.4,4,628,0,1,NaN,1,0,0.8,0.8,-0.0799081290616095,NaN,750,1,0,incongruent,0.1,7845.07359962478,2085.09054631095
49,104,4,567,-0.5,0.5,-0.5,1,1,0.4,1,482,1,1,482,1,0,0.8,0.4,-1.22489944301034,-1.22489944301034,750,1,0,congruent,0.1,4597.15957251302,2963.67120524363
49,104,4,568,0.5,0.5,-0.5,4,4,0.6,4,659,1,1,659,1,0,0.6,NaN,0.163206464995999,0.163206464995999,750,1,0,congruent,1,4810.20749973563,2638.26465479837
49,104,4,569,0.5,0.5,0.5,3,1,0.8,3,679,1,1,679,1,0,0.8,NaN,0.320054590194456,0.320054590194456,750,0,0,incongruent,1,9494.30565175391,2241.76095112411
49,104,4,570,0.5,-0.5,-0.5,4,4,0.8,4,630,1,1,630,0,0,1.2,NaN,-0.0642233165417638,-0.0642233165417638,750,1,0,congruent,0,8474.09742128613,2264.88526832732
49,104,4,571,-0.5,0.5,-0.5,1,1,0.8,1,508,1,1,508,1,0,1.2,0.4,-1.02099688025235,-1.02099688025235,750,1,0,congruent,0.1,8609.94606144429,2567.49572561735
49,104,4,572,-0.5,-0.5,0,3,NaN,0.8,1,586,0,1,NaN,1,0,1.2,0.8,-0.409289191978369,NaN,750,0,1,neutral,0.1,2783.69206930564,2634.40742930201
49,104,4,573,0.5,-0.5,-0.5,1,1,0.8,1,655,1,1,655,1,0,1.2,NaN,0.131836839956307,0.131836839956307,750,1,0,congruent,1,4600.30291835146,1294.17316082561
49,104,4,574,0.5,-0.5,0.5,4,3,0.8,4,445,1,1,445,1,0,1.2,NaN,-1.51506847462749,-1.51506847462749,750,0,0,incongruent,1,3129.93440139066,2061.0139038933
49,104,4,575,0.5,-0.5,0,2,NaN,0.8,2,643,1,1,643,0,0,1.2,NaN,0.0377279648372332,0.0377279648372332,750,0,0,neutral,0,1446.5825411846,1411.24819914873
49,104,4,576,-0.5,0.5,0.5,3,1,0.8,3,607,1,1,607,1,0,1.2,0.6,-0.244598660519989,-0.244598660519989,750,0,0,incongruent,0.1,1079.96897869839,1159.29030897586
49,104,4,577,-0.5,-0.5,-0.5,2,2,1,2,657,1,1,657,1,0,1.2,0.8,0.147521652476153,0.147521652476153,750,1,0,congruent,0.1,9377.93948845646,3107.08716291162
49,104,4,578,-0.5,-0.5,-0.5,4,4,1,4,570,1,1,570,1,0,1.2,0.8,-0.534767692137134,-0.534767692137134,750,1,0,congruent,0.1,3133.59589868538,1496.7547829325
49,104,4,579,0.5,0.5,0,1,NaN,1,1,475,1,1,475,1,0,1,NaN,-1.2797962868298,-1.2797962868298,750,0,0,neutral,1,1492.3711974986,1068.1441379953
49,104,4,580,0.5,-0.5,-0.5,3,3,1,3,482,1,1,482,1,0,1,NaN,-1.22489944301034,-1.22489944301034,750,1,0,congruent,1,3432.71080747204,1055.38898265841
49,104,4,581,0.5,-0.5,0,2,NaN,1,1,516,0,1,NaN,1,0,1.4,NaN,-0.958257630172968,NaN,750,0,1,neutral,1,1886.83519542911,5174.61361039819
49,104,4,582,-0.5,0.5,-0.5,3,3,1,3,578,1,1,578,1,0,1.6,0.8,-0.472028442057752,-0.472028442057752,750,1,0,congruent,0.1,909.315800189019,1287.38912312707
49,104,4,583,-0.5,-0.5,0,1,NaN,1,1,659,1,1,659,1,0,1.6,0.8,0.163206464995999,0.163206464995999,750,0,0,neutral,0.1,1800.89650961875,3517.55683585677
49,104,4,584,0.5,-0.5,-0.5,3,3,1,3,614,1,1,614,1,0,1.6,NaN,-0.189701816700529,-0.189701816700529,750,1,0,congruent,1,4787.90069094788,2326.06512930873
49,104,4,585,-0.5,0.5,-0.5,2,2,1,2,732,1,1,732,1,0,1.6,1,0.735702121970366,0.735702121970366,750,1,0,congruent,0.1,1099.44505883266,3760.54030094659
49,104,4,586,0.5,-0.5,-0.5,1,1,1,1,528,1,1,528,1,0,1.4,NaN,-0.864148755053894,-0.864148755053894,750,1,0,congruent,1,1317.9394772205,3552.77245289263
49,104,4,587,0.5,0.5,0.5,4,2,1,4,603,1,1,603,1,0,1.4,NaN,-0.275968285559681,-0.275968285559681,750,0,0,incongruent,1,7478.26735708317,4354.8794855569
49,104,4,588,-0.5,0.5,0,3,NaN,1,3,808,1,0,808,0,0,1.6,1,1.3317249977245,1.3317249977245,750,0,0,neutral,0,4702.60837973522,1782.09320497642
49,104,4,589,0.5,0.5,-0.5,2,2,0.8,2,894,1,0,894,0,0,1.4,NaN,2.00617193607787,2.00617193607787,750,1,0,congruent,0,3449.64071990173,5640.36354287635
49,104,4,590,0.5,0.5,-0.5,4,4,0.6,4,552,1,1,552,1,0,1,NaN,-0.675931004815746,-0.675931004815746,750,1,0,congruent,1,2686.9310191378,3136.48133820052
49,104,4,591,0.5,0.5,0,2,NaN,0.6,1,730,0,1,NaN,0,0,1.2,NaN,0.720017309450521,NaN,750,0,1,neutral,0,2992.55376839796,1629.60624555898
49,104,4,593,-0.5,-0.5,0.5,4,3,0.4,4,939,1,0,939,0,0,0.4,1,2.3590802177744,2.3590802177744,750,0,0,incongruent,0,7909.9803847225,5191.19173289887
49,104,4,596,0.5,-0.5,-0.5,1,1,0.4,1,548,1,1,548,0,0,0.2,NaN,-0.707300629855437,-0.707300629855437,750,1,0,congruent,0,4826.80700710293,4622.20244775258
49,104,4,597,0.5,0.5,-0.5,4,4,0.4,4,580,1,1,580,1,0,0.2,NaN,-0.456343629537906,-0.456343629537906,750,1,0,congruent,1,5276.05721545202,2179.76260272037
49,104,4,598,-0.5,0.5,0.5,1,3,0.4,3,675,0,1,NaN,0,0,0.6,0.8,0.288684965154764,NaN,750,1,0,incongruent,0,5823.07506517614,8549.59678992086
49,104,4,599,-0.5,0.5,-0.5,4,4,0.4,4,510,1,1,510,1,0,0.6,0.6,-1.00531206773251,-1.00531206773251,750,1,0,congruent,0.1,2127.50363869983,2187.76058828003
49,104,4,600,0.5,0.5,0.5,1,2,0.6,1,520,1,1,520,1,0,0.8,NaN,-0.926888005133277,-0.926888005133277,750,0,0,incongruent,1,3117.37704654666,858.597188216427
