subid,vers,block,trial,rewlvl,efflvl,congruency,targetresp,distractorresp,rollingefflvl,resp,rt,acc,fast,accrt,isrewarded,ismiss,runavgrrgen,runavgrrcond,zrt,acczrt,rtthreshold,isdisterror,isranderror,congruence,feedback,fcz_resp_theta,fcz_resp_theta_baseline
50,104,1,1,0.5,-0.5,-0.5,3,3,0.4,3,728,1,1,728,1,0,0,NaN,0.528508952525604,0.528508952525604,750,1,0,congruent,1,7557.95123921805,5179.28078943989
50,104,1,2,0.5,0.5,0.5,2,1,0.4,2,691,1,1,691,1,0,0.4,NaN,0.269749370854278,0.269749370854278,750,0,0,incongruent,1,5116.05294888884,3488.2856056355
50,104,1,3,-0.5,0.5,-0.5,3,3,0.4,3,823,1,0,823,0,0,0.8,0,1.19289166222225,1.19289166222225,750,1,0,congruent,0,6398.68411252259,4322.76425178622
50,104,1,4,0.5,-0.5,0,2,NaN,0.3,2,586,1,1,586,0,0,0.8,NaN,-0.464568360915701,-0.464568360915701,750,0,0,neutral,0,8228.57367573969,2864.28496761421
50,104,1,5,-0.5,0.5,0.5,3,2,0.3,3,766,1,0,766,0,0,0.8,0,0.794262036404263,0.794262036404263,750,0,0,incongruent,0,2548.9345610589,3587.94135717759
50,104,1,6,-0.5,0.5,-0.5,1,1,0.3,1,651,1,1,651,1,0,0.8,0,-0.00999071743904745,-0.00999071743904745,750,1,0,congruent,0.1,5124.04924402189,2222.75214561236
50,104,1,7,0.5,-0.5,-0.5,2,2,0.5,2,679,1,1,679,1,0,0.6,NaN,0.18582734436628,0.18582734436628,750,1,0,congruent,1,1635.93712615162,4134.09297000419
50,104,1,9,-0.5,-0.5,0,2,NaN,0.5,2,855,1,0,855,0,0,0.6,0,1.41668373285691,1.41668373285691,750,0,0,neutral,0,8167.73580125089,2350.11154967894
50,104,1,11,-0.5,0.5,0.5,2,3,0.5,2,554,1,1,554,1,0,0.6,0.2,-0.688360431550362,-0.688360431550362,750,0,0,incongruent,0.1,4669.03454354274,2751.05816635987
50,104,1,12,-0.5,-0.5,0,3,NaN,0.6,3,678,1,1,678,1,0,0.6,0,0.178833842158947,0.178833842158947,750,0,0,neutral,0.1,1307.77741481351,2051.0522959133
50,104,1,13,-0.5,0.5,-0.5,2,2,0.6,2,601,1,1,601,1,0,0.4,0.4,-0.359665827805704,-0.359665827805704,750,1,0,congruent,0.1,7701.16189764772,8910.89989923555
50,104,1,14,0.5,0.5,0,4,NaN,0.6,4,728,1,1,728,1,0,0.6,NaN,0.528508952525604,0.528508952525604,750,0,0,neutral,1,464.747981105131,1619.84627430992
50,104,1,15,0.5,0.5,-0.5,2,2,0.8,2,504,1,1,504,1,0,1,NaN,-1.03803554191702,-1.03803554191702,750,1,0,congruent,1,9417.2421336238,3091.62006244579
50,104,1,16,-0.5,0.5,0.5,1,3,1,1,656,1,1,656,1,0,1.4,0.6,0.0249767935976182,0.0249767935976182,750,0,0,incongruent,0.1,5557.06743557094,1721.75646984874
50,104,1,17,0.5,-0.5,-0.5,2,2,1,2,581,1,1,581,1,0,1.4,NaN,-0.499535871952367,-0.499535871952367,750,1,0,congruent,1,3589.29908105751,1415.27441163685
50,104,1,18,0.5,-0.5,0,1,NaN,1,1,691,1,1,691,1,0,1.6,NaN,0.269749370854278,0.269749370854278,750,0,0,neutral,1,5122.65014675031,1338.82050855434
50,104,1,19,-0.5,-0.5,0.5,2,1,1,2,810,1,0,810,1,0,1.8,0.2,1.10197613352692,1.10197613352692,750,0,0,incongruent,0.1,4213.88462063686,954.387952412842
50,104,1,20,0.5,0.5,-0.5,4,4,1,4,553,1,1,553,1,0,1.6,NaN,-0.695353933757695,-0.695353933757695,750,1,0,congruent,1,5306.50764925633,1433.43364364731
50,104,1,21,0.5,-0.5,-0.5,3,3,1,3,780,1,0,780,1,0,1.6,NaN,0.892171067306927,0.892171067306927,750,1,0,congruent,1,2754.75398449519,973.855542195759
50,104,1,22,-0.5,-0.5,0,2,NaN,1,2,522,1,1,522,1,0,1.8,0.4,-0.912152502185022,-0.912152502185022,750,0,0,neutral,0.1,4800.82697304864,2375.9407708894
50,104,1,23,-0.5,0.5,0.5,3,1,1,3,802,1,0,802,0,0,1.6,0.8,1.04602811586826,1.04602811586826,750,0,0,incongruent,0,3754.43417158606,4461.78360886391
50,104,1,24,0.5,0.5,0,1,NaN,0.8,1,560,1,1,560,1,0,1.2,NaN,-0.646399418306363,-0.646399418306363,750,0,0,neutral,1,3029.34720889105,1101.89245771025
50,104,1,25,-0.5,-0.5,0.5,2,4,0.8,2,672,1,1,672,1,0,1.4,0.6,0.136872828914948,0.136872828914948,750,0,0,incongruent,0.1,1682.73733673157,1944.04350056037
50,104,1,26,-0.5,-0.5,-0.5,3,3,0.8,3,844,1,0,844,1,0,1.2,0.8,1.33975520857625,1.33975520857625,750,1,0,congruent,0.1,3406.42720527632,2332.12272576143
50,104,1,28,0.5,0.5,-0.5,3,3,0.6,3,717,1,1,717,1,0,0.8,NaN,0.45158042824494,0.45158042824494,750,1,0,congruent,1,14895.8397675334,5280.44915423771
50,104,1,29,-0.5,-0.5,0.5,1,2,0.6,1,370,1,1,370,0,0,1.2,1,-1.97516483769966,-1.97516483769966,750,0,0,incongruent,0,1756.82505221036,3817.84972413265
50,104,1,32,-0.5,0.5,-0.5,1,1,0.4,1,481,1,1,481,1,0,0.4,0.4,-1.19888609268568,-1.19888609268568,750,1,0,congruent,0.1,1622.90173057622,1571.33333221365
50,104,1,33,0.5,0.5,-0.5,2,2,0.4,2,402,1,1,402,1,0,0.6,NaN,-1.751372767065,-1.751372767065,750,1,0,congruent,1,6524.38297976044,3729.45794125861
50,104,1,34,0.5,-0.5,0,1,NaN,0.6,1,603,1,1,603,1,0,0.6,NaN,-0.345678823391038,-0.345678823391038,750,0,0,neutral,1,3233.9620231613,4058.21111841385
50,104,1,36,0.5,0.5,0,1,NaN,0.6,1,447,1,1,447,1,0,1.2,NaN,-1.43666516773501,-1.43666516773501,750,0,0,neutral,1,2801.30527548858,4287.18529705197
50,104,1,38,0.5,0.5,0.5,3,2,0.6,3,941,1,0,941,0,0,1.4,NaN,2.01812492268756,2.01812492268756,750,0,0,incongruent,0,3734.79966298189,1167.04005322826
50,104,1,39,-0.5,-0.5,-0.5,1,1,0.6,1,813,1,0,813,0,0,1,0.8,1.12295664014892,1.12295664014892,750,1,0,congruent,0,3513.68062889045,7356.28303759137
50,104,1,40,0.5,0.5,-0.5,4,4,0.6,4,647,1,1,647,1,0,0.6,NaN,-0.03796472626838,-0.03796472626838,750,1,0,congruent,1,2517.29116936471,3773.15423004454
50,104,1,41,-0.5,0.5,0,1,NaN,0.6,1,523,1,1,523,1,0,0.8,0.2,-0.905158999977689,-0.905158999977689,750,0,0,neutral,0.1,7150.82073620791,1153.73573364731
50,104,1,42,0.5,-0.5,-0.5,2,2,0.6,2,360,1,1,360,0,0,0.6,NaN,-2.04509985977299,-2.04509985977299,750,1,0,congruent,0,2597.40808167906,1141.61456760841
50,104,1,43,0.5,0.5,0,3,NaN,0.6,3,798,1,0,798,0,0,0.6,NaN,1.01805410703892,1.01805410703892,750,0,0,neutral,0,2471.91478829196,927.411571920584
50,104,1,44,-0.5,-0.5,-0.5,1,1,0.4,1,635,1,1,635,0,0,0.6,0.6,-0.121886752756378,-0.121886752756378,750,1,0,congruent,0,2707.55522731038,1775.90526421425
50,104,1,45,0.5,-0.5,0.5,4,2,0.4,3,693,0,1,NaN,1,0,0.6,NaN,0.283736375268944,NaN,750,0,1,incongruent,1,5387.50253837222,2593.43921426042
50,104,1,46,-0.5,-0.5,-0.5,1,1,0.4,1,462,1,1,462,0,0,0.6,0.4,-1.33176263462501,-1.33176263462501,750,1,0,congruent,0,11387.5103793385,2501.62392592082
50,104,1,47,0.5,0.5,0,3,NaN,0.4,3,716,1,1,716,1,0,0.4,NaN,0.444586926037607,0.444586926037607,750,0,0,neutral,1,3341.11280577832,1472.71754677633
50,104,1,48,0.5,0.5,-0.5,4,4,0.6,4,592,1,1,592,1,0,0.8,NaN,-0.422607347671703,-0.422607347671703,750,1,0,congruent,1,2678.1834675281,2492.08538047651
50,104,1,49,-0.5,0.5,0,2,NaN,0.8,2,655,1,1,655,1,0,1.2,0.4,0.0179832913902851,0.0179832913902851,750,0,0,neutral,0.1,6789.08936817035,2895.5128889117
50,104,1,50,0.5,-0.5,0.5,1,3,0.8,1,783,1,0,783,1,0,1.4,NaN,0.913151573928927,0.913151573928927,750,0,0,incongruent,1,2964.39322746148,4131.67462393519
50,104,1,51,0.5,-0.5,0,2,NaN,0.8,1,530,0,1,NaN,1,0,1.4,NaN,-0.856204484526357,NaN,750,0,1,neutral,1,16185.7382410461,3036.6915354625
50,104,1,52,-0.5,0.5,-0.5,4,4,0.8,4,581,1,1,581,1,0,1.8,0.6,-0.499535871952367,-0.499535871952367,750,1,0,congruent,0.1,1251.18505702845,2983.78094585311
50,104,1,53,-0.5,-0.5,0.5,1,3,0.8,1,838,1,0,838,1,0,1.6,0.2,1.29779419533225,1.29779419533225,750,0,0,incongruent,0.1,5266.4330608082,582.268624491872
50,104,1,54,-0.5,0.5,-0.5,2,2,0.8,2,693,1,1,693,1,0,1.4,0.8,0.283736375268944,0.283736375268944,750,1,0,congruent,0.1,2923.48195660106,794.967958467678
50,104,1,55,0.5,-0.5,0,4,NaN,1,4,649,1,1,649,1,0,1.4,NaN,-0.0239777218537137,-0.0239777218537137,750,0,0,neutral,1,5522.80150460603,3488.1121507553
50,104,1,56,-0.5,-0.5,0.5,3,2,1,3,841,1,0,841,1,0,1.4,0.4,1.31877470195425,1.31877470195425,750,0,0,incongruent,0.1,9702.19034580954,5420.25488873921
50,104,1,57,-0.5,0.5,0.5,4,1,1,4,977,1,0,977,0,0,1.2,0.8,2.26989100215156,2.26989100215156,750,0,0,incongruent,0,4981.57096506022,4060.19206760063
50,104,1,59,0.5,0.5,0,1,NaN,0.6,1,669,1,1,669,1,0,0.8,NaN,0.115892322292949,0.115892322292949,750,0,0,neutral,1,1416.87123735644,10338.2773569451
50,104,1,60,-0.5,0.5,0.5,2,4,0.6,2,888,1,0,888,0,0,1,0.6,1.64746930569891,1.64746930569891,750,0,0,incongruent,0,7228.55320022688,3061.4925187983
50,104,1,61,-0.5,0.5,0,1,NaN,0.4,1,663,1,1,663,1,0,0.6,0.4,0.0739313090489502,0.0739313090489502,750,0,0,neutral,0.1,4112.60263512529,2183.44643592486
50,104,1,62,0.5,-0.5,0.5,2,4,0.4,2,691,1,1,691,1,0,0.6,NaN,0.269749370854278,0.269749370854278,750,0,0,incongruent,1,1922.18058106697,2132.26811713373
50,104,1,63,-0.5,0.5,0.5,4,2,0.4,4,884,1,0,884,0,0,1,0.4,1.61949529686957,1.61949529686957,750,0,0,incongruent,0,4103.16825834687,13431.2517334619
50,104,1,64,-0.5,-0.5,0.5,2,4,0.4,2,671,1,1,671,0,0,1,0.4,0.129879326707615,0.129879326707615,750,0,0,incongruent,0,3395.95150889629,2876.51550353052
50,104,1,65,-0.5,-0.5,0.5,4,3,0.4,4,992,1,0,992,1,0,0.6,0.4,2.37479353526155,2.37479353526155,750,0,0,incongruent,0.1,2451.39386076643,3205.59367753225
50,104,1,68,0.5,0.5,0.5,1,4,0.4,2,753,0,0,NaN,0,0,0.6,NaN,0.703346507708933,NaN,750,0,1,incongruent,0,5866.81812327485,6673.23399331632
50,104,1,70,0.5,-0.5,0,1,NaN,0.2,1,840,1,0,840,0,0,0.6,NaN,1.31178119974692,1.31178119974692,750,0,0,neutral,0,3369.03542177748,5799.77399430459
50,104,1,73,-0.5,-0.5,0.5,1,3,0.2,2,684,0,1,NaN,0,0,0,0.4,0.220794855402946,NaN,750,0,1,incongruent,0,7292.98714969343,2117.24903102688
50,104,1,74,-0.5,0.5,0,2,NaN,0.2,2,647,1,1,647,1,0,0,0.2,-0.03796472626838,-0.03796472626838,750,0,0,neutral,0.1,2893.81376498697,808.854617440441
50,104,1,75,0.5,-0.5,-0.5,3,3,0.4,3,967,1,0,967,0,0,0.2,NaN,2.19995598007822,2.19995598007822,750,1,0,congruent,0,4390.83216023164,1868.78105346152
50,104,1,76,0.5,-0.5,-0.5,1,1,0.4,1,473,1,1,473,1,0,0.2,NaN,-1.25483411034435,-1.25483411034435,750,1,0,congruent,1,4678.03201372113,2106.21337492246
50,104,1,77,0.5,0.5,0.5,3,2,0.4,3,670,1,1,670,1,0,0.6,NaN,0.122885824500282,0.122885824500282,750,0,0,incongruent,1,2123.76766220694,1723.42542726215
50,104,1,78,0.5,0.5,0.5,2,1,0.4,2,710,1,1,710,1,0,1,NaN,0.402625912793608,0.402625912793608,750,0,0,incongruent,1,4601.71758501042,3420.49900983421
50,104,1,79,0.5,0.5,0.5,1,3,0.6,1,793,1,0,793,0,0,1.4,NaN,0.983086596002258,0.983086596002258,750,0,0,incongruent,0,4075.73941716592,2924.82316661169
50,104,1,81,-0.5,0.5,-0.5,3,3,0.6,3,542,1,1,542,1,0,1.2,0.4,-0.772282458038359,-0.772282458038359,750,1,0,congruent,0.1,4090.43777798599,2886.7271232044
50,104,1,82,-0.5,-0.5,-0.5,4,4,0.6,4,367,1,1,367,1,0,1,0.2,-1.99614534432166,-1.99614534432166,750,1,0,congruent,0.1,6022.99240591127,2215.71707462386
50,104,1,83,0.5,-0.5,-0.5,1,1,0.6,1,399,1,1,399,1,0,0.8,NaN,-1.772353273687,-1.772353273687,750,1,0,congruent,1,8663.50829121169,1150.08583515908
50,104,1,84,0.5,0.5,0.5,2,4,0.6,3,767,0,0,NaN,0,0,0.8,NaN,0.801255538611597,NaN,750,0,1,incongruent,0,2783.69712905716,1784.82889990984
50,104,1,85,-0.5,0.5,0.5,3,1,0.4,3,809,1,0,809,0,0,0.8,0.4,1.09498263131959,1.09498263131959,750,0,0,incongruent,0,4501.82231256621,3409.98130845225
50,104,1,87,-0.5,0.5,0,2,NaN,0.2,2,693,1,1,693,1,0,0.6,0.4,0.283736375268944,0.283736375268944,750,0,0,neutral,0.1,3867.67228026343,907.012312245356
50,104,1,88,0.5,-0.5,-0.5,1,1,0.4,1,579,1,1,579,0,0,0.6,NaN,-0.513522876367033,-0.513522876367033,750,1,0,congruent,0,3057.07416154732,5009.72902606899
50,104,1,89,0.5,-0.5,0,2,NaN,0.4,1,523,0,1,NaN,0,0,0.2,NaN,-0.905158999977689,NaN,750,0,1,neutral,0,15471.4739105679,1941.72335192607
50,104,1,90,-0.5,-0.5,0.5,4,3,0.4,4,800,1,0,800,1,0,0.2,0.4,1.03204111145359,1.03204111145359,750,0,0,incongruent,0.1,2432.81149793575,3372.90979462893
50,104,1,91,0.5,0.5,0.5,2,4,0.4,2,911,1,0,911,0,0,0.4,NaN,1.80831985646757,1.80831985646757,750,0,0,incongruent,0,7891.47986772113,5506.84961492972
50,104,1,92,0.5,0.5,0.5,1,3,0.2,1,756,1,0,756,0,0,0.4,NaN,0.724327014330932,0.724327014330932,750,0,0,incongruent,0,2642.98588518412,1541.40607145614
50,104,1,93,-0.5,0.5,-0.5,4,4,0.2,4,611,1,1,611,1,0,0.2,0.6,-0.289730805732373,-0.289730805732373,750,1,0,congruent,0.1,2653.02143288122,1613.41192716057
50,104,1,94,-0.5,0.5,0,3,NaN,0.4,3,945,1,0,945,0,0,0.4,0.6,2.0460989315169,2.0460989315169,750,0,0,neutral,0,7038.58887296207,3531.55644799266
50,104,1,95,-0.5,0.5,-0.5,4,4,0.4,4,632,1,1,632,1,0,0.4,0.6,-0.142867259378377,-0.142867259378377,750,1,0,congruent,0.1,2656.55309373776,3864.31805151566
50,104,1,96,-0.5,0.5,0,2,NaN,0.4,2,548,1,1,548,1,0,0.4,0.6,-0.730321444794361,-0.730321444794361,750,0,0,neutral,0.1,4563.93050173701,3501.21775132357
50,104,1,98,-0.5,0.5,0.5,4,1,0.6,4,585,1,1,585,1,0,0.6,0.8,-0.471561863123035,-0.471561863123035,750,0,0,incongruent,0.1,5670.42856381462,3940.08304374563
50,104,1,99,-0.5,-0.5,-0.5,3,3,0.6,3,942,1,0,942,0,0,0.6,0.4,2.0251184248949,2.0251184248949,750,1,0,congruent,0,2346.87222455036,6248.49065950181
50,104,1,100,0.5,-0.5,0.5,1,4,0.6,1,890,1,0,890,0,0,0.6,NaN,1.66145631011357,1.66145631011357,750,0,0,incongruent,0,4030.16964771548,1283.00935325436
50,104,1,101,0.5,-0.5,0.5,4,3,0.6,3,970,0,0,NaN,1,0,0.4,NaN,2.22093648670022,NaN,750,1,0,incongruent,1,6009.67365887903,4886.93592014514
50,104,1,102,-0.5,-0.5,-0.5,1,1,0.6,1,940,1,0,940,0,0,0.6,0.4,2.01113142048023,2.01113142048023,750,1,0,congruent,0,6223.87771186984,3851.55090956723
50,104,1,103,0.5,0.5,-0.5,2,2,0.6,2,885,1,0,885,0,0,0.6,NaN,1.62648879907691,1.62648879907691,750,1,0,congruent,0,5627.53119705835,9288.54695429483
50,104,1,104,-0.5,0.5,0.5,3,1,0.6,3,623,1,1,623,1,0,0.4,0.8,-0.205808779244375,-0.205808779244375,750,0,0,incongruent,0.1,10347.4661226169,4904.78553729276
50,104,1,105,0.5,0.5,-0.5,2,2,0.6,2,617,1,1,617,1,0,0.6,NaN,-0.247769792488374,-0.247769792488374,750,1,0,congruent,1,899.383076502421,3766.29767051643
50,104,1,106,-0.5,0.5,0,1,NaN,0.6,1,429,1,1,429,1,0,1,0.8,-1.562548207467,-1.562548207467,750,0,0,neutral,0.1,1987.29523857723,1506.12990666378
50,104,1,107,-0.5,0.5,-0.5,4,4,0.8,4,558,1,1,558,1,0,0.8,1,-0.660386422721029,-0.660386422721029,750,1,0,congruent,0.1,8747.91854468549,3881.0929509172
50,104,1,108,-0.5,0.5,0.5,2,3,0.8,2,681,1,1,681,1,0,1,1,0.199814348780947,0.199814348780947,750,0,0,incongruent,0.1,1282.40914030491,4338.75379449569
50,104,1,109,0.5,0.5,-0.5,1,1,1,1,707,1,1,707,1,0,1.2,NaN,0.381645406171608,0.381645406171608,750,1,0,congruent,1,3632.60141293845,1136.44988977801
50,104,1,110,0.5,0.5,0.5,2,4,1,2,671,1,1,671,1,0,1.4,NaN,0.129879326707615,0.129879326707615,750,0,0,incongruent,1,1994.46902915372,2331.16300232513
50,104,1,111,-0.5,0.5,0,3,NaN,1,3,724,1,1,724,1,0,1.4,1,0.500534943696272,0.500534943696272,750,0,0,neutral,0.1,5918.80260551827,2428.54507506529
50,104,1,112,-0.5,0.5,-0.5,1,1,1,1,637,1,1,637,1,0,1.4,1,-0.107899748341711,-0.107899748341711,750,1,0,congruent,0.1,5016.47977794241,2205.90495110291
50,104,1,113,-0.5,0.5,-0.5,3,3,1,3,750,1,1,750,0,0,1.4,1,0.682366001086933,0.682366001086933,750,1,0,congruent,0,3944.73950788778,1021.39677799328
50,104,1,114,-0.5,0.5,0.5,2,4,0.8,2,771,1,0,771,0,0,1.2,0.8,0.829229547440929,0.829229547440929,750,0,0,incongruent,0,6837.49938030838,6669.29886324382
50,104,1,115,-0.5,-0.5,0,4,NaN,0.6,4,618,1,1,618,1,0,0.8,0.4,-0.240776290281041,-0.240776290281041,750,0,0,neutral,0.1,8299.88901424216,3148.83655232569
50,104,1,116,-0.5,0.5,0.5,2,4,0.6,2,685,1,1,685,1,0,0.6,0.6,0.227788357610279,0.227788357610279,750,0,0,incongruent,0.1,7043.79243744388,13628.0204799822
50,104,1,117,-0.5,0.5,-0.5,3,3,0.6,3,598,1,1,598,1,0,0.6,0.6,-0.380646334427704,-0.380646334427704,750,1,0,congruent,0.1,6771.37990479339,1468.78303956906
50,104,1,118,-0.5,0.5,0,2,NaN,0.6,2,559,1,1,559,1,0,0.6,0.6,-0.653392920513696,-0.653392920513696,750,0,0,neutral,0.1,3999.89609177812,3165.97830723004
50,104,1,119,-0.5,-0.5,0.5,4,3,0.6,3,735,0,1,NaN,1,0,0.8,0.6,0.577463467976936,NaN,750,1,0,incongruent,0.1,17354.8674422059,6193.37165814751
50,104,1,120,-0.5,-0.5,0,3,NaN,0.6,3,805,1,0,805,0,0,1,0.6,1.06700862249026,1.06700862249026,750,0,0,neutral,0,6824.80049730841,6263.65380074707
50,104,1,121,0.5,-0.5,0.5,1,3,0.6,1,743,1,1,743,0,0,0.8,NaN,0.633411485635601,0.633411485635601,750,0,0,incongruent,0,8695.13996781371,1982.4411494677
50,104,1,122,-0.5,0.5,-0.5,2,2,0.6,2,534,1,1,534,1,0,0.6,0.6,-0.828230475697025,-0.828230475697025,750,1,0,congruent,0.1,12399.0710880109,1949.20474890252
50,104,1,124,0.5,-0.5,-0.5,4,4,0.8,3,894,0,0,NaN,1,0,0.4,NaN,1.68943031894291,NaN,750,0,1,congruent,1,4660.79458113304,5028.02670981316
50,104,1,126,0.5,-0.5,0.5,2,4,0.6,2,634,1,1,634,1,0,0.6,NaN,-0.128880254963711,-0.128880254963711,750,0,0,incongruent,1,4002.74472529931,3231.42842073008
50,104,1,127,0.5,0.5,0.5,3,1,0.6,3,851,1,0,851,0,0,1,NaN,1.38870972402758,1.38870972402758,750,0,0,incongruent,0,3687.21839306116,4115.78582523746
50,104,1,128,-0.5,-0.5,0,1,NaN,0.4,1,559,1,1,559,0,0,0.8,0.4,-0.653392920513696,-0.653392920513696,750,0,0,neutral,0,2930.66824711015,3281.89958123487
50,104,1,129,0.5,-0.5,-0.5,3,3,0.4,3,746,1,1,746,0,0,0.8,NaN,0.654391992257601,0.654391992257601,750,1,0,congruent,0,2565.48703281119,1087.36887864281
50,104,1,130,0.5,-0.5,0,4,NaN,0.4,4,708,1,1,708,0,0,0.4,NaN,0.388638908378941,0.388638908378941,750,0,0,neutral,0,1361.36217332378,3203.25638977989
50,104,1,131,-0.5,-0.5,-0.5,2,2,0.4,2,507,1,1,507,0,0,0.4,0.4,-1.01705503529502,-1.01705503529502,750,1,0,congruent,0,3811.26815478998,3956.03747250482
50,104,1,134,-0.5,0.5,-0.5,1,1,0,1,617,1,1,617,1,0,0,0.8,-0.247769792488374,-0.247769792488374,750,1,0,congruent,0.1,3705.52490109742,784.688244861538
50,104,1,135,0.5,0.5,0,3,NaN,0.2,3,915,1,0,915,0,0,0.2,NaN,1.8362938652969,1.8362938652969,750,0,0,neutral,0,15033.4117448246,1642.43810670765
50,104,1,137,-0.5,-0.5,0.5,3,2,0.2,3,972,1,0,972,0,0,0.2,0.4,2.23492349111489,2.23492349111489,750,0,0,incongruent,0,1083.62678934776,2056.15209915168
50,104,1,140,-0.5,-0.5,0,1,NaN,0.2,1,589,1,1,589,0,0,0,0.2,-0.443587854293702,-0.443587854293702,750,0,0,neutral,0,2885.93698350063,4736.74607080608
50,104,1,141,-0.5,0.5,-0.5,2,2,0.2,2,576,1,1,576,1,0,0,0.6,-0.534503382989033,-0.534503382989033,750,1,0,congruent,0.1,1451.24378193493,2574.45926819272
50,104,1,142,-0.5,0.5,0.5,1,3,0.2,1,742,1,1,742,1,0,0.2,0.6,0.626417983428268,0.626417983428268,750,0,0,incongruent,0.1,4159.16189773307,8888.1530470371
50,104,1,143,0.5,0.5,-0.5,4,4,0.4,4,804,1,0,804,0,0,0.4,NaN,1.06001512028292,1.06001512028292,750,1,0,congruent,0,5266.21947216662,1238.53567863202
50,104,1,144,-0.5,-0.5,-0.5,2,2,0.4,2,576,1,1,576,1,0,0.4,0,-0.534503382989033,-0.534503382989033,750,1,0,congruent,0.1,11188.0774518976,3896.13228611144
50,104,1,145,0.5,0.5,-0.5,4,4,0.4,4,628,1,1,628,1,0,0.6,NaN,-0.17084126820771,-0.17084126820771,750,1,0,congruent,1,4881.90180409132,2401.93291339854
50,104,1,146,0.5,0.5,0.5,2,3,0.6,2,698,1,1,698,1,0,1,NaN,0.31870388630561,0.31870388630561,750,0,0,incongruent,1,1068.42230418644,820.471702380635
50,104,1,147,0.5,-0.5,0.5,4,1,0.8,4,711,1,1,711,1,0,1.2,NaN,0.409619415000941,0.409619415000941,750,0,0,incongruent,1,1963.78180093921,3600.69917790471
50,104,1,149,-0.5,0.5,0.5,1,3,0.8,1,760,1,0,760,0,0,1.8,0.6,0.752301023160265,0.752301023160265,750,0,0,incongruent,0,5368.56826444485,1075.66098903204
50,104,1,150,-0.5,-0.5,-0.5,2,2,0.6,2,522,1,1,522,1,0,1.6,0.2,-0.912152502185022,-0.912152502185022,750,1,0,congruent,0.1,13247.2801934527,2153.7244488836
50,104,2,151,-0.5,-0.5,0,4,NaN,0.6,4,634,1,1,634,1,0,1.4,0.4,-0.128880254963711,-0.128880254963711,750,0,0,neutral,0.1,5232.16815903536,3433.03786773922
50,104,2,152,0.5,-0.5,0.5,3,2,0.6,3,437,1,1,437,1,0,1.2,NaN,-1.50660018980834,-1.50660018980834,750,0,0,incongruent,1,3623.79668591186,973.91250286727
50,104,2,153,0.5,-0.5,-0.5,1,1,0.6,1,358,1,1,358,1,0,1.2,NaN,-2.05908686418766,-2.05908686418766,750,1,0,congruent,1,15935.1528653285,1018.76887490904
50,104,2,154,0.5,0.5,0,2,NaN,0.6,2,429,1,1,429,1,0,1.2,NaN,-1.562548207467,-1.562548207467,750,0,0,neutral,1,4132.98436892924,2711.54510415783
50,104,2,155,0.5,-0.5,-0.5,4,4,0.6,4,526,1,1,526,1,0,1.6,NaN,-0.88417849335569,-0.88417849335569,750,1,0,congruent,1,2135.66736371218,2420.61252865325
50,104,2,156,-0.5,0.5,0.5,3,1,0.6,3,711,1,1,711,1,0,1.8,0.6,0.409619415000941,0.409619415000941,750,0,0,incongruent,0.1,6045.26018973398,6481.30143486181
50,104,2,157,-0.5,0.5,0,1,NaN,0.8,1,330,1,1,330,1,0,1.8,0.6,-2.25490492599298,-2.25490492599298,750,0,0,neutral,0.1,5499.0122004211,1084.84383489895
50,104,2,158,0.5,-0.5,0.5,2,1,0.8,2,859,1,0,859,0,0,1.6,NaN,1.44465774168625,1.44465774168625,750,0,0,incongruent,0,1650.9468195311,10642.7287764603
50,104,2,159,0.5,0.5,0.5,1,3,0.8,1,693,1,1,693,1,0,1.2,NaN,0.283736375268944,0.283736375268944,750,0,0,incongruent,1,4986.83922810543,1649.52522167141
50,104,2,160,0.5,0.5,0,4,NaN,0.8,4,524,1,1,524,1,0,1.2,NaN,-0.898165497770356,-0.898165497770356,750,0,0,neutral,1,6059.96862187008,1724.86912789187
50,104,2,161,0.5,0.5,-0.5,1,1,1,1,572,1,1,572,1,0,1.2,NaN,-0.562477391818365,-0.562477391818365,750,1,0,congruent,1,1993.96579172573,1798.47431378091
50,104,2,163,-0.5,-0.5,-0.5,2,2,0.8,2,555,1,1,555,1,0,1.2,0.6,-0.681366929343029,-0.681366929343029,750,1,0,congruent,0.1,2447.51410100762,3682.83028080818
50,104,2,165,0.5,0.5,-0.5,3,3,0.6,3,588,1,1,588,1,0,1,NaN,-0.450581356501035,-0.450581356501035,750,1,0,congruent,1,2405.72512342417,1680.78394066601
50,104,2,166,-0.5,-0.5,-0.5,4,4,0.6,4,514,1,1,514,1,0,1,0.8,-0.968100519843687,-0.968100519843687,750,1,0,congruent,0.1,2619.64826433965,1306.93904040171
50,104,2,168,-0.5,0.5,-0.5,3,3,0.6,3,735,1,1,735,1,0,0.8,0.6,0.577463467976936,0.577463467976936,750,1,0,congruent,0.1,4927.19592431823,11434.2584787151
50,104,2,169,0.5,0.5,0.5,2,1,0.6,2,895,1,0,895,0,0,0.8,NaN,1.69642382115024,1.69642382115024,750,0,0,incongruent,0,7967.10441578044,4221.26991875612
50,104,2,170,0.5,-0.5,0,4,NaN,0.4,4,533,1,1,533,0,0,0.8,NaN,-0.835223977904358,-0.835223977904358,750,0,0,neutral,0,12674.6889984527,5199.58076793501
50,104,2,171,0.5,-0.5,-0.5,3,3,0.4,3,683,1,1,683,1,0,0.4,NaN,0.213801353195613,0.213801353195613,750,1,0,congruent,1,7134.08951658619,6723.59436433095
50,104,2,172,-0.5,-0.5,-0.5,1,1,0.4,1,452,1,1,452,1,0,0.6,0.8,-1.40169765669834,-1.40169765669834,750,1,0,congruent,0.1,14861.1621574887,2404.67468106462
50,104,2,173,-0.5,-0.5,0,4,NaN,0.4,4,540,1,1,540,0,0,0.8,0.8,-0.786269462453026,-0.786269462453026,750,0,0,neutral,0,5741.75457944071,3156.74972261155
50,104,2,174,-0.5,-0.5,-0.5,3,3,0.4,3,560,1,1,560,1,0,0.6,0.6,-0.646399418306363,-0.646399418306363,750,1,0,congruent,0.1,6904.84061297605,3657.08577160802
50,104,2,175,-0.5,-0.5,-0.5,2,2,0.4,2,422,1,1,422,0,0,0.8,0.6,-1.61150272291834,-1.61150272291834,750,1,0,congruent,0,3765.3819345658,799.178684888509
50,104,2,176,0.5,-0.5,0,1,NaN,0.4,1,510,1,1,510,1,0,0.8,NaN,-0.99607452867302,-0.99607452867302,750,0,0,neutral,1,1732.17941723895,2671.47258003362
50,104,2,177,-0.5,-0.5,-0.5,3,3,0.4,3,506,1,1,506,1,0,0.8,0.4,-1.02404853750235,-1.02404853750235,750,1,0,congruent,0.1,3757.78492650283,4244.5893551084
50,104,2,178,-0.5,-0.5,-0.5,1,1,0.4,1,575,1,1,575,0,0,0.8,0.6,-0.541496885196366,-0.541496885196366,750,1,0,congruent,0,2838.22242182863,5844.66604146009
50,104,2,179,-0.5,-0.5,-0.5,3,3,0.4,3,496,1,1,496,1,0,0.8,0.4,-1.09398355957568,-1.09398355957568,750,1,0,congruent,0.1,1383.2737616769,4174.00657808092
50,104,2,180,-0.5,-0.5,-0.5,4,4,0.4,4,545,1,1,545,0,0,0.8,0.6,-0.75130195141636,-0.75130195141636,750,1,0,congruent,0,6188.21667947922,5207.70538348952
50,104,2,181,0.5,0.5,0,3,NaN,0.4,2,577,0,1,NaN,0,0,0.8,NaN,-0.5275098807817,NaN,750,0,1,neutral,0,1122.35030028215,1275.74430627698
50,104,2,182,0.5,0.5,0.5,1,4,0.4,2,810,0,0,NaN,0,0,0.4,NaN,1.10197613352692,NaN,750,0,1,incongruent,0,8200.88157950896,1612.52418740848
50,104,2,183,0.5,0.5,-0.5,3,3,0.4,3,601,1,1,601,1,0,0.2,NaN,-0.359665827805704,-0.359665827805704,750,1,0,congruent,1,1279.13904146613,1189.32072592764
50,104,2,185,0.5,0.5,0.5,4,1,0.4,4,872,1,0,872,0,0,0.4,NaN,1.53557327038158,1.53557327038158,750,0,0,incongruent,0,1487.72489771587,3253.3168281894
50,104,2,186,-0.5,0.5,0.5,1,2,0.2,1,699,1,1,699,1,0,0.4,0.6,0.325697388512943,0.325697388512943,750,0,0,incongruent,0.1,5053.72382996371,2491.14313364461
50,104,2,187,-0.5,0.5,-0.5,3,3,0.4,3,740,1,1,740,1,0,0.6,0.8,0.612430979013602,0.612430979013602,750,1,0,congruent,0.1,2606.05493617355,11971.09094848
50,104,2,188,0.5,-0.5,0.5,4,1,0.6,4,511,1,1,511,1,0,0.8,NaN,-0.989081026465687,-0.989081026465687,750,0,0,incongruent,1,4399.92831880049,4755.36784464979
50,104,2,189,-0.5,-0.5,-0.5,2,2,0.6,2,762,1,0,762,1,0,0.8,0.4,0.766288027574931,0.766288027574931,750,1,0,congruent,0.1,13146.9311181835,2366.68258499074
50,104,2,190,0.5,-0.5,-0.5,1,1,0.6,1,596,1,1,596,1,0,1,NaN,-0.39463333884237,-0.39463333884237,750,1,0,congruent,1,1556.14444476099,3300.72013998318
50,104,2,191,0.5,-0.5,0,2,NaN,0.6,2,622,1,1,622,1,0,1.4,NaN,-0.212802281451708,-0.212802281451708,750,0,0,neutral,1,2401.81565518064,5350.38054974042
50,104,2,192,0.5,-0.5,0.5,4,3,0.6,3,535,0,1,NaN,0,0,1.6,NaN,-0.821236973489691,NaN,750,1,0,incongruent,0,15774.9018850767,1074.88844112429
50,104,2,193,0.5,0.5,0,1,NaN,0.6,1,578,1,1,578,1,0,1.4,NaN,-0.520516378574367,-0.520516378574367,750,0,0,neutral,1,1421.1425775902,5455.9536985684
50,104,2,194,-0.5,0.5,0.5,4,1,0.8,4,690,1,1,690,1,0,1.4,0.8,0.262755868646945,0.262755868646945,750,0,0,incongruent,0.1,1988.25661836412,5392.36968138883
50,104,2,195,-0.5,-0.5,0,2,NaN,0.8,2,792,1,0,792,0,0,1.4,0.4,0.976093093794925,0.976093093794925,750,0,0,neutral,0,1008.87977091579,2549.10418203183
50,104,2,196,-0.5,-0.5,0.5,4,2,0.8,4,754,1,0,754,0,0,1,0.4,0.710340009916266,0.710340009916266,750,0,0,incongruent,0,4877.86804536068,1767.94672188309
50,104,2,197,-0.5,-0.5,-0.5,1,1,0.8,1,885,1,0,885,1,0,0.6,0.2,1.62648879907691,1.62648879907691,750,1,0,congruent,0.1,3556.28842915804,4586.21768036216
50,104,2,198,-0.5,0.5,-0.5,4,4,0.8,4,550,1,1,550,1,0,0.8,0.8,-0.716334440379694,-0.716334440379694,750,1,0,congruent,0.1,2978.80131427925,1296.01083475029
50,104,2,199,0.5,0.5,-0.5,2,2,1,2,556,1,1,556,1,0,0.6,NaN,-0.674373427135696,-0.674373427135696,750,1,0,congruent,1,1892.01812505434,1208.43751454551
50,104,2,200,-0.5,0.5,-0.5,1,1,1,1,647,1,1,647,1,0,0.8,1,-0.03796472626838,-0.03796472626838,750,1,0,congruent,0.1,2919.45094365879,4456.68975721397
50,104,2,201,0.5,0.5,0,3,NaN,1,3,539,1,1,539,1,0,1,NaN,-0.793262964660359,-0.793262964660359,750,0,0,neutral,1,8505.10356715306,5717.17544517646
50,104,2,202,0.5,0.5,0.5,2,4,1,2,425,1,1,425,1,0,1.4,NaN,-1.59052221629634,-1.59052221629634,750,0,0,incongruent,1,13345.7222267922,2903.49167195602
50,104,2,203,0.5,-0.5,0,3,NaN,1,4,700,0,1,NaN,1,0,1.6,NaN,0.332690890720276,NaN,750,0,1,neutral,1,7055.23176155773,2046.14896171103
50,104,2,204,0.5,-0.5,0.5,1,4,1,1,806,1,0,806,1,0,1.8,NaN,1.07400212469759,1.07400212469759,750,0,0,incongruent,1,6080.21474577758,1300.415959593
50,104,2,205,-0.5,0.5,-0.5,2,2,1,2,556,1,1,556,1,0,1.8,1,-0.674373427135696,-0.674373427135696,750,1,0,congruent,0.1,1059.38001812425,1625.99031523368
50,104,2,207,-0.5,0.5,0.5,1,4,0.8,1,903,1,0,903,0,0,1.4,1,1.7523718388089,1.7523718388089,750,0,0,incongruent,0,1931.7982919544,2953.79319353265
50,104,2,208,-0.5,-0.5,-0.5,3,3,0.6,3,862,1,0,862,1,0,1,0.4,1.46563824830824,1.46563824830824,750,1,0,congruent,0.1,5188.40064804848,2658.86447293595
50,104,2,209,0.5,0.5,0,4,NaN,0.6,1,528,0,1,NaN,0,0,0.8,NaN,-0.870191488941023,NaN,750,0,1,neutral,0,10495.6005639129,5317.53045131877
50,104,2,210,-0.5,-0.5,0.5,1,4,0.4,1,632,1,1,632,0,0,0.4,0.6,-0.142867259378377,-0.142867259378377,750,0,0,incongruent,0,2515.59188623679,1684.97778075894
50,104,2,211,-0.5,-0.5,-0.5,2,2,0.4,2,376,1,1,376,1,0,0.2,0.4,-1.93320382445566,-1.93320382445566,750,1,0,congruent,0.1,5041.71571279355,2100.27820136651
50,104,2,212,-0.5,-0.5,-0.5,3,3,0.4,3,662,1,1,662,1,0,0.4,0.6,0.0669378068416171,0.0669378068416171,750,1,0,congruent,0.1,4928.80417822516,6562.18656774654
50,104,2,213,0.5,0.5,0,4,NaN,0.4,4,353,1,1,353,1,0,0.6,NaN,-2.09405437522432,-2.09405437522432,750,0,0,neutral,1,3039.09520300107,1739.22247375185
50,104,2,214,0.5,0.5,0.5,1,3,0.4,1,420,1,1,420,1,0,0.8,NaN,-1.625489727333,-1.625489727333,750,0,0,incongruent,1,4607.88446713648,3240.7214517396
50,104,2,215,-0.5,-0.5,0,2,NaN,0.4,2,355,1,1,355,1,0,1.2,0.8,-2.08006737080966,-2.08006737080966,750,0,0,neutral,0.1,4084.92540934977,12183.085435477
50,104,2,216,-0.5,0.5,-0.5,3,3,0.4,3,401,1,1,401,1,0,1.4,0.8,-1.75836626927233,-1.75836626927233,750,1,0,congruent,0.1,2960.70162739241,1896.35024665702
50,104,2,217,0.5,-0.5,-0.5,2,2,0.6,2,559,1,1,559,1,0,1.4,NaN,-0.653392920513696,-0.653392920513696,750,1,0,congruent,1,2653.41889579372,2997.76028775055
50,104,2,218,0.5,-0.5,-0.5,3,3,0.6,2,782,0,0,NaN,1,0,1.6,NaN,0.906158071721594,NaN,750,0,1,congruent,1,8836.50368397034,10635.8519826705
50,104,2,219,-0.5,0.5,-0.5,4,4,0.6,4,515,1,1,515,1,0,1.6,0.8,-0.961107017636354,-0.961107017636354,750,1,0,congruent,0.1,4006.13725374529,4100.0110222066
50,104,2,220,0.5,-0.5,0,3,NaN,0.8,3,799,1,0,799,0,0,1.4,NaN,1.02504760924626,1.02504760924626,750,0,0,neutral,0,2738.35116191648,5485.38148553204
50,104,2,221,-0.5,0.5,-0.5,2,2,0.8,2,358,1,1,358,1,0,1.2,0.8,-2.05908686418766,-2.05908686418766,750,1,0,congruent,0.1,4338.91866488773,7782.03815654761
50,104,2,222,0.5,0.5,0.5,1,3,1,1,314,1,1,314,1,0,1.2,NaN,-2.36680096131031,-2.36680096131031,750,0,0,incongruent,1,4151.78388418537,2465.85811798596
50,104,2,223,-0.5,0.5,0,4,NaN,1,4,543,1,1,543,1,0,1.2,0.8,-0.765288955831026,-0.765288955831026,750,0,0,neutral,0.1,1968.66164853073,1377.88205608247
50,104,2,224,-0.5,0.5,-0.5,2,2,1,2,647,1,1,647,1,0,1,0.8,-0.03796472626838,-0.03796472626838,750,1,0,congruent,0.1,3716.11670599271,6478.19302819082
50,104,2,225,0.5,-0.5,0,4,NaN,1,4,569,1,1,569,1,0,1,NaN,-0.583457898440365,-0.583457898440365,750,0,0,neutral,1,2760.65293989011,1813.91599692002
50,104,2,226,0.5,-0.5,-0.5,1,1,1,1,462,1,1,462,1,0,1.4,NaN,-1.33176263462501,-1.33176263462501,750,1,0,congruent,1,3334.16078682071,2392.9086557318
50,104,2,227,0.5,-0.5,-0.5,2,2,1,2,424,1,1,424,1,0,1.6,NaN,-1.59751571850367,-1.59751571850367,750,1,0,congruent,1,3329.15140747482,3828.76547228566
50,104,2,228,-0.5,-0.5,0.5,1,4,1,4,453,0,1,NaN,1,0,1.6,0.8,-1.39470415449101,NaN,750,1,0,incongruent,0.1,3484.36841272325,1597.98735153989
50,104,2,229,-0.5,-0.5,0,2,NaN,1,2,558,1,1,558,1,0,1.6,0.8,-0.660386422721029,-0.660386422721029,750,0,0,neutral,0.1,1794.55969209314,1954.53536441341
50,104,2,231,0.5,-0.5,-0.5,2,2,1,2,477,1,1,477,1,0,1.6,NaN,-1.22686010151501,-1.22686010151501,750,1,0,congruent,1,1912.26003461464,1549.64036950962
50,104,2,232,-0.5,-0.5,0,3,NaN,1,3,597,1,1,597,1,0,1.6,1,-0.387639836635037,-0.387639836635037,750,0,0,neutral,0.1,12850.454116565,4483.31682077825
50,104,2,233,-0.5,-0.5,-0.5,4,4,1,4,527,1,1,527,1,0,1.4,1,-0.877184991148357,-0.877184991148357,750,1,0,congruent,0.1,3478.47105582648,3121.68549148813
50,104,2,235,0.5,0.5,0.5,2,4,1,2,879,1,0,879,0,0,1.6,NaN,1.58452778583291,1.58452778583291,750,0,0,incongruent,0,5423.75898199187,4496.96671587373
50,104,2,237,0.5,-0.5,0.5,1,2,0.6,1,965,1,0,965,1,0,0.8,NaN,2.18596897566356,2.18596897566356,750,0,0,incongruent,1,3087.20106868268,3755.26945446786
50,104,2,239,-0.5,0.5,-0.5,1,1,0.4,1,552,1,1,552,1,0,0.8,0.6,-0.702347435965028,-0.702347435965028,750,1,0,congruent,0.1,1084.50362124682,3411.71649791626
50,104,2,240,0.5,-0.5,0,2,NaN,0.4,2,508,1,1,508,1,0,0.6,NaN,-1.01006153308769,-1.01006153308769,750,0,0,neutral,1,7595.4274905217,5002.36203674305
50,104,2,241,0.5,0.5,-0.5,4,4,0.4,4,469,1,1,469,1,0,1,NaN,-1.28280811917368,-1.28280811917368,750,1,0,congruent,1,2631.98699357276,868.588264200294
50,104,2,242,0.5,-0.5,-0.5,3,3,0.4,3,740,1,1,740,0,0,1.4,NaN,0.612430979013602,0.612430979013602,750,1,0,congruent,0,3708.81903870451,3156.08337250309
50,104,2,243,-0.5,0.5,0,2,NaN,0.4,2,911,1,0,911,0,0,1,0.6,1.80831985646757,1.80831985646757,750,0,0,neutral,0,5984.47375890457,1584.81634551495
50,104,2,244,-0.5,0.5,-0.5,4,4,0.4,4,578,1,1,578,1,0,1,0.4,-0.520516378574367,-0.520516378574367,750,1,0,congruent,0.1,1876.89380570578,6494.18336020169
50,104,2,245,0.5,0.5,-0.5,2,2,0.6,2,592,1,1,592,1,0,1,NaN,-0.422607347671703,-0.422607347671703,750,1,0,congruent,1,5500.09634150483,1208.95516805063
50,104,2,246,-0.5,0.5,-0.5,4,4,0.8,4,568,1,1,568,1,0,1,0.4,-0.590451400647698,-0.590451400647698,750,1,0,congruent,0.1,3671.10577472645,2188.2600306799
50,104,2,247,0.5,0.5,-0.5,3,3,0.8,2,766,0,0,NaN,0,0,0.8,NaN,0.794262036404263,NaN,750,0,1,congruent,0,1306.67384730814,3233.6337984455
50,104,2,248,-0.5,0.5,0.5,2,4,0.6,2,814,1,0,814,0,0,0.8,0.6,1.12995014235625,1.12995014235625,750,0,0,incongruent,0,2491.94077074629,4834.44135064788
50,104,2,250,0.5,-0.5,0,2,NaN,0.6,2,658,1,1,658,1,0,0.6,NaN,0.0389637980122845,0.0389637980122845,750,0,0,neutral,1,3906.57586944432,2505.69005764712
50,104,2,251,-0.5,-0.5,-0.5,1,1,0.6,1,514,1,1,514,0,0,0.6,0.8,-0.968100519843687,-0.968100519843687,750,1,0,congruent,0,3118.27665448707,1962.25008958547
50,104,2,252,0.5,-0.5,-0.5,2,2,0.6,2,584,1,1,584,1,0,0.4,NaN,-0.478555365330368,-0.478555365330368,750,1,0,congruent,1,2851.75546289807,3651.40118074147
50,104,2,253,-0.5,0.5,0.5,1,3,0.6,2,635,0,1,NaN,0,0,0.8,0.6,-0.121886752756378,NaN,750,0,1,incongruent,0,9875.09378155857,3394.47073112921
50,104,2,254,-0.5,-0.5,-0.5,4,4,0.4,4,609,1,1,609,1,0,0.8,0.6,-0.303717810147039,-0.303717810147039,750,1,0,congruent,0.1,892.601628187532,2134.54454250341
50,104,2,255,0.5,0.5,0,1,NaN,0.4,1,709,1,1,709,1,0,1,NaN,0.395632410586275,0.395632410586275,750,0,0,neutral,1,851.694735118372,2267.20561309623
50,104,2,256,-0.5,0.5,-0.5,4,4,0.4,4,567,1,1,567,1,0,1,0.4,-0.597444902855031,-0.597444902855031,750,1,0,congruent,0.1,1491.38373481604,3430.37096003736
50,104,2,259,-0.5,0.5,-0.5,4,4,0.4,4,559,1,1,559,1,0,1.2,0.6,-0.653392920513696,-0.653392920513696,750,1,0,congruent,0.1,3047.85894180772,1143.68542966374
50,104,2,260,-0.5,0.5,0,1,NaN,0.6,1,459,1,1,459,1,0,1.2,0.6,-1.35274314124701,-1.35274314124701,750,0,0,neutral,0.1,2963.03244873473,16347.2983746223
50,104,2,261,0.5,-0.5,-0.5,2,2,0.8,2,471,1,1,471,0,0,1,NaN,-1.26882111475901,-1.26882111475901,750,1,0,congruent,0,3137.48948600456,7776.49950840593
50,104,2,262,-0.5,-0.5,-0.5,1,1,0.8,1,554,1,1,554,1,0,0.8,0.4,-0.688360431550362,-0.688360431550362,750,1,0,congruent,0.1,3413.62301745136,2373.05661070473
50,104,2,263,0.5,-0.5,0,3,NaN,0.8,3,754,1,0,754,1,0,0.6,NaN,0.710340009916266,0.710340009916266,750,0,0,neutral,1,6488.607024164,2059.93763289656
50,104,2,264,0.5,-0.5,0.5,4,3,0.8,4,801,1,0,801,1,0,1,NaN,1.03903461366092,1.03903461366092,750,0,0,incongruent,1,2980.76368144592,5036.25016061192
50,104,2,266,0.5,-0.5,-0.5,4,4,0.8,4,587,1,1,587,0,0,1.2,NaN,-0.457574858708368,-0.457574858708368,750,1,0,congruent,0,706.671480455431,5716.00479070777
50,104,2,267,0.5,0.5,0.5,3,2,0.8,3,660,1,1,660,1,0,1.2,NaN,0.0529508024269508,0.0529508024269508,750,0,0,incongruent,1,8064.09729838978,1795.48490974829
50,104,2,268,0.5,-0.5,0.5,2,4,1,2,824,1,0,824,1,0,1.4,NaN,1.19988516442959,1.19988516442959,750,0,0,incongruent,1,5656.04070554027,3255.04796672327
50,104,2,269,-0.5,0.5,0.5,4,3,1,4,935,1,0,935,0,0,1.4,0.6,1.97616390944356,1.97616390944356,750,0,0,incongruent,0,7974.40181532199,5812.69019113522
50,104,2,270,-0.5,0.5,0,1,NaN,0.8,1,561,1,1,561,1,0,1,0.6,-0.63940591609903,-0.63940591609903,750,0,0,neutral,0.1,2917.67469616467,1509.41213726033
50,104,2,271,0.5,-0.5,0.5,2,3,0.8,2,575,1,1,575,1,0,1,NaN,-0.541496885196366,-0.541496885196366,750,0,0,incongruent,1,5331.52849263437,14204.8997454103
50,104,2,272,-0.5,0.5,0.5,4,2,0.8,4,776,1,0,776,0,0,1.4,0.8,0.864197058477595,0.864197058477595,750,0,0,incongruent,0,3445.84148759292,6534.18630785589
50,104,2,274,0.5,-0.5,-0.5,2,2,0.6,2,527,1,1,527,1,0,1,NaN,-0.877184991148357,-0.877184991148357,750,1,0,congruent,1,3711.37781906099,6064.19077452943
50,104,2,275,-0.5,0.5,0.5,1,4,0.6,1,774,1,0,774,0,0,1.4,0.6,0.850210054062929,0.850210054062929,750,0,0,incongruent,0,2366.03459143689,2462.83898914835
50,104,2,276,0.5,-0.5,-0.5,3,3,0.4,3,997,1,0,997,0,0,1.2,NaN,2.40976104629822,2.40976104629822,750,1,0,congruent,0,3631.64398854153,4129.67726709781
50,104,2,277,0.5,-0.5,0,4,NaN,0.4,4,644,1,1,644,0,0,0.8,NaN,-0.0589452328903794,-0.0589452328903794,750,0,0,neutral,0,2869.16118702423,1318.73522055194
50,104,2,279,0.5,-0.5,0.5,4,3,0.2,4,750,1,1,750,0,0,0.4,NaN,0.682366001086933,0.682366001086933,750,0,0,incongruent,0,3887.41984680038,2394.06672951512
50,104,2,280,0.5,0.5,-0.5,2,2,0.2,2,435,1,1,435,1,0,0,NaN,-1.52058719422301,-1.52058719422301,750,1,0,congruent,1,5348.84291711778,6840.23605529437
50,104,2,281,0.5,-0.5,0,3,NaN,0.4,3,670,1,1,670,1,0,0.4,NaN,0.122885824500282,0.122885824500282,750,0,0,neutral,1,6350.38868391592,3803.10150251467
50,104,2,282,0.5,0.5,-0.5,2,2,0.4,2,517,1,1,517,1,0,0.8,NaN,-0.947120013221688,-0.947120013221688,750,1,0,congruent,1,3437.57982889181,1746.31744140297
50,104,2,283,0.5,0.5,-0.5,3,3,0.4,3,617,1,1,617,1,0,1.2,NaN,-0.247769792488374,-0.247769792488374,750,1,0,congruent,1,3508.81789060059,3173.75121813594
50,104,2,284,-0.5,-0.5,0.5,1,4,0.6,1,700,1,1,700,0,0,1.6,0.6,0.332690890720276,0.332690890720276,750,0,0,incongruent,0,6653.06268194502,801.620091572904
50,104,2,285,0.5,0.5,0.5,2,1,0.6,2,345,1,1,345,1,0,1.6,NaN,-2.15000239288299,-2.15000239288299,750,0,0,incongruent,1,10728.2361623329,1618.6406605557
50,104,2,286,-0.5,-0.5,-0.5,4,4,0.8,4,776,1,0,776,1,0,1.6,0.6,0.864197058477595,0.864197058477595,750,1,0,congruent,0.1,1049.75352421919,2232.28100042963
50,104,2,287,0.5,-0.5,-0.5,1,1,0.8,1,557,1,1,557,0,0,1.4,NaN,-0.667379924928362,-0.667379924928362,750,1,0,congruent,0,4447.01411627287,615.144359460676
50,104,2,288,-0.5,0.5,0.5,4,3,0.8,4,949,1,0,949,0,0,1,0.4,2.07407294034623,2.07407294034623,750,0,0,incongruent,0,2928.4253321217,6569.11090732922
50,104,2,289,0.5,0.5,-0.5,2,2,0.8,2,624,1,1,624,1,0,0.6,NaN,-0.198815277037042,-0.198815277037042,750,1,0,congruent,1,331.002279480659,3633.11901859237
50,104,2,290,-0.5,-0.5,0.5,1,4,0.8,1,826,1,0,826,0,0,1,0.6,1.21387216884425,1.21387216884425,750,0,0,incongruent,0,11262.735402315,4299.69257518879
50,104,2,292,0.5,0.5,0,4,NaN,0.6,4,845,1,0,845,0,0,0.4,NaN,1.34674871078358,1.34674871078358,750,0,0,neutral,0,1144.98817352801,8495.96000225368
50,104,2,294,0.5,-0.5,0.5,4,1,0.2,4,849,1,0,849,0,0,0.4,NaN,1.37472271961291,1.37472271961291,750,0,0,incongruent,0,2229.66392049059,7034.68236763854
50,104,2,295,0.5,-0.5,0.5,1,2,0.2,2,847,0,0,NaN,0,0,0,NaN,1.36073571519825,NaN,750,1,0,incongruent,0,10411.4659204027,2359.33862462634
50,104,2,296,0.5,0.5,0,3,NaN,0.2,3,898,1,0,898,0,0,0,NaN,1.71740432777224,1.71740432777224,750,0,0,neutral,0,5185.89811794413,6304.81973461256
50,104,2,297,-0.5,0.5,-0.5,1,1,0.2,1,604,1,1,604,1,0,0,0.2,-0.338685321183705,-0.338685321183705,750,1,0,congruent,0.1,4834.88305136262,3149.28168149046
50,104,2,298,-0.5,0.5,0.5,4,3,0.2,4,893,1,0,893,0,0,0.2,0.2,1.68243681673557,1.68243681673557,750,0,0,incongruent,0,7445.72718090929,4033.13032086368
50,104,2,300,-0.5,-0.5,0,1,NaN,0.2,1,503,1,1,503,0,0,0.2,0.6,-1.04502904412435,-1.04502904412435,750,0,0,neutral,0,5648.49636676624,8354.13344591007
50,104,3,301,0.5,0.5,0.5,2,1,0.2,2,634,1,1,634,1,0,0.2,NaN,-0.128880254963711,-0.128880254963711,750,0,0,incongruent,1,5802.40173000663,3457.85707062915
50,104,3,303,-0.5,-0.5,-0.5,4,4,0.4,4,481,1,1,481,1,0,0.4,0.2,-1.19888609268568,-1.19888609268568,750,1,0,congruent,0.1,3092.61847977862,1365.68132001905
50,104,3,304,0.5,0.5,0,3,NaN,0.4,2,460,0,1,NaN,0,0,0.6,NaN,-1.34574963903968,NaN,750,0,1,neutral,0,9494.44117605335,6048.49373518412
50,104,3,305,0.5,-0.5,-0.5,4,4,0.4,4,584,1,1,584,0,0,0.6,NaN,-0.478555365330368,-0.478555365330368,750,1,0,congruent,0,1599.56625336682,1712.57883746128
50,104,3,306,-0.5,-0.5,0,1,NaN,0.4,1,546,1,1,546,0,0,0.6,0.4,-0.744308449209027,-0.744308449209027,750,0,0,neutral,0,3485.23245297848,8477.40068975926
50,104,3,307,-0.5,-0.5,-0.5,4,4,0.4,4,526,1,1,526,0,0,0.2,0.2,-0.88417849335569,-0.88417849335569,750,1,0,congruent,0,2342.97156563657,9841.43140019656
50,104,3,308,-0.5,-0.5,-0.5,2,2,0.4,2,678,1,1,678,0,0,0.2,0.2,0.178833842158947,0.178833842158947,750,1,0,congruent,0,2465.50468592992,4235.41667089903
50,104,3,309,-0.5,-0.5,-0.5,4,4,0.4,4,659,1,1,659,0,0,0,0.2,0.0459573002196176,0.0459573002196176,750,1,0,congruent,0,3598.78972854307,14505.0576962047
50,104,3,310,-0.5,0.5,-0.5,3,3,0.4,3,428,1,1,428,1,0,0,0.2,-1.56954170967434,-1.56954170967434,750,1,0,congruent,0.1,15590.459700302,433.248935136798
50,104,3,311,0.5,0.5,-0.5,2,2,0.4,2,667,1,1,667,1,0,0.2,NaN,0.101905317878283,0.101905317878283,750,1,0,congruent,1,4430.33954452298,4447.40728058062
50,104,3,312,0.5,0.5,-0.5,4,4,0.6,4,532,1,1,532,1,0,0.6,NaN,-0.842217480111691,-0.842217480111691,750,1,0,congruent,1,4644.3660069882,5397.33095168851
50,104,3,314,-0.5,-0.5,0,1,NaN,0.8,1,595,1,1,595,1,0,1.2,0.2,-0.401626841049703,-0.401626841049703,750,0,0,neutral,0.1,691.491490563619,1623.03947969958
50,104,3,315,0.5,0.5,-0.5,2,2,0.8,2,499,1,1,499,1,0,1.4,NaN,-1.07300305295368,-1.07300305295368,750,1,0,congruent,1,10051.0509865444,2317.53725827682
50,104,3,316,-0.5,0.5,-0.5,1,1,0.8,1,612,1,1,612,1,0,1.6,0.4,-0.28273730352504,-0.28273730352504,750,1,0,congruent,0.1,4140.87995987137,1235.09747213353
50,104,3,317,0.5,-0.5,-0.5,3,3,1,3,681,1,1,681,1,0,1.4,NaN,0.199814348780947,0.199814348780947,750,1,0,congruent,1,2824.0486177195,14778.2003434141
50,104,3,318,0.5,0.5,0,1,NaN,1,1,550,1,1,550,1,0,1.4,NaN,-0.716334440379694,-0.716334440379694,750,0,0,neutral,1,1759.7662986973,619.890308112418
50,104,3,319,-0.5,0.5,0.5,3,1,1,3,980,1,0,980,0,0,1.6,0.6,2.29087150877355,2.29087150877355,750,0,0,incongruent,0,5649.67079469462,2561.6718812182
50,104,3,320,0.5,-0.5,0,4,NaN,0.8,4,303,1,1,303,0,0,1.4,NaN,-2.44372948559098,-2.44372948559098,750,0,0,neutral,0,3248.60983079059,1078.00468295025
50,104,3,322,-0.5,-0.5,0.5,2,1,0.8,2,695,1,1,695,1,0,1,0.6,0.297723379683611,0.297723379683611,750,0,0,incongruent,0.1,5062.88734192292,3218.93989271227
50,104,3,324,0.5,0.5,0,3,NaN,0.6,3,838,1,0,838,0,0,0.4,NaN,1.29779419533225,1.29779419533225,750,0,0,neutral,0,3852.66542408645,9219.55327606329
50,104,3,325,0.5,-0.5,-0.5,4,4,0.4,4,508,1,1,508,0,0,0.4,NaN,-1.01006153308769,-1.01006153308769,750,1,0,congruent,0,3958.22270286935,1916.93793744033
50,104,3,326,-0.5,-0.5,-0.5,3,3,0.4,3,515,1,1,515,0,0,0.4,0.8,-0.961107017636354,-0.961107017636354,750,1,0,congruent,0,11246.6863629743,1345.85102959317
50,104,3,327,-0.5,-0.5,0.5,4,1,0.4,4,640,1,1,640,0,0,0.2,0.8,-0.086919241719712,-0.086919241719712,750,0,0,incongruent,0,2176.89296686405,2570.995634703
50,104,3,328,0.5,0.5,0.5,3,2,0.4,3,755,1,0,755,0,0,0,NaN,0.717333512123599,0.717333512123599,750,0,0,incongruent,0,3686.26195385959,15551.2520037148
50,104,3,329,-0.5,0.5,0.5,2,4,0.2,3,723,0,1,NaN,0,0,0,0.4,0.493541441488938,NaN,750,0,1,incongruent,0,8827.82069235795,1506.62859561522
50,104,3,330,-0.5,-0.5,-0.5,1,1,0,1,360,1,1,360,0,0,0,0.6,-2.04509985977299,-2.04509985977299,750,1,0,congruent,0,1908.05460687971,3574.90681910644
50,104,3,331,0.5,0.5,0,3,NaN,0,3,595,1,1,595,1,0,0,NaN,-0.401626841049703,-0.401626841049703,750,0,0,neutral,1,6347.12668985949,3008.3125889035
50,104,3,332,0.5,-0.5,0.5,2,4,0.2,2,827,1,0,827,1,0,0.4,NaN,1.22086567105158,1.22086567105158,750,0,0,incongruent,1,3589.32129030792,1783.22208047783
50,104,3,333,0.5,-0.5,-0.5,1,1,0.2,1,520,1,1,520,0,0,0.8,NaN,-0.926139506599689,-0.926139506599689,750,1,0,congruent,0,3036.69483363558,2143.11955113739
50,104,3,334,-0.5,-0.5,-0.5,4,4,0.2,4,541,1,1,541,0,0,0.8,0.4,-0.779275960245693,-0.779275960245693,750,1,0,congruent,0,4012.58188066293,2363.64343801539
50,104,3,335,0.5,-0.5,0.5,3,2,0.2,3,674,1,1,674,0,0,0.8,NaN,0.150859833329615,0.150859833329615,750,0,0,incongruent,0,9604.45338742946,17154.343368219
50,104,3,336,-0.5,0.5,0,2,NaN,0.2,3,745,0,1,NaN,0,0,0.8,0.4,0.647398490050268,NaN,750,0,1,neutral,0,6704.34640961005,9169.46614443015
50,104,3,337,0.5,-0.5,-0.5,3,3,0.2,3,591,1,1,591,0,0,0.4,NaN,-0.429600849879036,-0.429600849879036,750,1,0,congruent,0,2574.26035833735,3381.79512978732
50,104,3,338,-0.5,-0.5,0,1,NaN,0.2,1,536,1,1,536,0,0,0,0.2,-0.814243471282358,-0.814243471282358,750,0,0,neutral,0,6684.6134379665,4638.32707334525
50,104,3,339,-0.5,-0.5,-0.5,2,2,0.2,2,547,1,1,547,0,0,0,0,-0.737314947001694,-0.737314947001694,750,1,0,congruent,0,922.708653001077,5740.8386748552
50,104,3,341,-0.5,-0.5,0.5,2,4,0.2,2,605,1,1,605,0,0,0,0,-0.331691818976372,-0.331691818976372,750,0,0,incongruent,0,4597.80437478948,4233.51769477127
50,104,3,342,-0.5,-0.5,0.5,1,3,0.2,1,629,1,1,629,0,0,0,0,-0.163847766000376,-0.163847766000376,750,0,0,incongruent,0,2034.12133149403,4960.90582947826
50,104,3,343,0.5,-0.5,0.5,3,1,0.2,3,787,1,0,787,0,0,0,NaN,0.941125582758259,0.941125582758259,750,0,0,incongruent,0,3214.41573329353,6630.46538021494
50,104,3,344,0.5,-0.5,-0.5,2,2,0.2,2,696,1,1,696,1,0,0,NaN,0.304716881890944,0.304716881890944,750,1,0,congruent,1,3567.78038323928,1167.31019042367
50,104,3,345,0.5,-0.5,0,3,NaN,0.2,3,557,1,1,557,0,0,0.4,NaN,-0.667379924928362,-0.667379924928362,750,0,0,neutral,0,8497.07650336417,1648.70967071078
50,104,3,346,0.5,-0.5,-0.5,1,1,0.2,1,731,1,1,731,0,0,0.4,NaN,0.549489459147604,0.549489459147604,750,1,0,congruent,0,2108.69465222741,3811.90067269422
50,104,3,348,0.5,-0.5,-0.5,2,2,0.2,2,653,1,1,653,0,0,0.4,NaN,0.00399628697561882,0.00399628697561882,750,1,0,congruent,0,2753.33316320825,3095.81261309721
50,104,3,349,0.5,-0.5,-0.5,3,3,0.2,3,624,1,1,624,0,0,0.4,NaN,-0.198815277037042,-0.198815277037042,750,1,0,congruent,0,8647.53830497832,4187.93327586643
50,104,3,350,0.5,0.5,0.5,1,2,0.2,1,895,1,0,895,0,0,0,NaN,1.69642382115024,1.69642382115024,750,0,0,incongruent,0,3223.27395016735,8111.92977151921
50,104,3,351,-0.5,0.5,0.5,2,4,0.2,2,750,1,1,750,0,0,0,0.4,0.682366001086933,0.682366001086933,750,0,0,incongruent,0,6108.07845160787,16756.2668215213
50,104,3,352,0.5,0.5,0.5,4,3,0.2,4,719,1,1,719,1,0,0,NaN,0.465567432659606,0.465567432659606,750,0,0,incongruent,1,3357.07841245809,5719.14678178868
50,104,3,353,-0.5,0.5,0.5,1,4,0.2,2,710,0,1,NaN,0,0,0.4,0.2,0.402625912793608,NaN,750,0,1,incongruent,0,4604.13420847675,6051.33870663634
50,104,3,355,-0.5,-0.5,0,2,NaN,0.2,2,888,1,0,888,0,0,0.4,0,1.64746930569891,1.64746930569891,750,0,0,neutral,0,3391.8298507682,3324.83724361704
50,104,3,356,0.5,0.5,-0.5,1,1,0.2,1,591,1,1,591,1,0,0.4,NaN,-0.429600849879036,-0.429600849879036,750,1,0,congruent,1,3788.65004615595,2673.64442506012
50,104,3,357,0.5,0.5,-0.5,2,2,0.4,2,628,1,1,628,1,0,0.8,NaN,-0.17084126820771,-0.17084126820771,750,1,0,congruent,1,3131.77483794903,9308.42852238094
50,104,3,358,0.5,0.5,0.5,4,1,0.6,4,897,1,0,897,0,0,0.8,NaN,1.7104108255649,1.7104108255649,750,0,0,incongruent,0,2830.40502584073,6451.12423690681
50,104,3,359,-0.5,-0.5,0,3,NaN,0.4,3,775,1,0,775,1,0,0.8,0,0.857203556270262,0.857203556270262,750,0,0,neutral,0.1,10211.7381974976,4118.32690775582
50,104,3,360,-0.5,0.5,-0.5,2,2,0.4,2,415,1,1,415,1,0,1,0,-1.66045723836967,-1.66045723836967,750,1,0,congruent,0.1,13887.7236801874,2977.24658761832
50,104,3,362,-0.5,-0.5,0.5,4,3,0.6,4,715,1,1,715,1,0,1.2,0.2,0.437593423830273,0.437593423830273,750,0,0,incongruent,0.1,1796.77337281837,3455.36797326058
50,104,3,363,0.5,-0.5,0,1,NaN,0.6,1,484,1,1,484,0,0,1,NaN,-1.17790558606368,-1.17790558606368,750,0,0,neutral,0,2641.48572809579,22282.2733328039
50,104,3,366,-0.5,-0.5,-0.5,1,1,0.6,1,674,1,1,674,0,0,0.6,0.4,0.150859833329615,0.150859833329615,750,1,0,congruent,0,3267.92009250662,11921.8181352374
50,104,3,367,0.5,-0.5,-0.5,4,4,0.6,4,702,1,1,702,1,0,0.2,NaN,0.346677895134943,0.346677895134943,750,1,0,congruent,1,3361.96929342289,6812.08960148521
50,104,3,370,-0.5,0.5,-0.5,2,2,0.6,2,534,1,1,534,1,0,1,0.2,-0.828230475697025,-0.828230475697025,750,1,0,congruent,0.1,2215.91407278262,2164.84289379978
50,104,3,371,0.5,0.5,0.5,3,1,0.6,3,775,1,0,775,0,0,1.2,NaN,0.857203556270262,0.857203556270262,750,0,0,incongruent,0,2414.78955511334,4044.77177969764
50,104,3,373,0.5,-0.5,0.5,3,2,0.4,3,828,1,0,828,1,0,0.8,NaN,1.22785917325892,1.22785917325892,750,0,0,incongruent,1,724.432368363091,1376.18595607745
50,104,3,374,-0.5,-0.5,0,2,NaN,0.4,2,581,1,1,581,0,0,1,0.6,-0.499535871952367,-0.499535871952367,750,0,0,neutral,0,8329.08226599762,2404.83737225747
50,104,3,375,0.5,-0.5,-0.5,4,4,0.4,4,641,1,1,641,0,0,0.6,NaN,-0.0799257395123788,-0.0799257395123788,750,1,0,congruent,0,1924.34616898462,1750.1961653684
50,104,3,376,-0.5,0.5,0.5,2,3,0.4,2,695,1,1,695,1,0,0.4,0.4,0.297723379683611,0.297723379683611,750,0,0,incongruent,0.1,2565.1991789979,2373.2384979679
50,104,3,377,0.5,-0.5,0,1,NaN,0.6,1,537,1,1,537,0,0,0.6,NaN,-0.807249969075025,-0.807249969075025,750,0,0,neutral,0,1749.42306257192,2337.9162654392
50,104,3,378,0.5,-0.5,0.5,4,3,0.6,4,623,1,1,623,0,0,0.6,NaN,-0.205808779244375,-0.205808779244375,750,0,0,incongruent,0,4695.69666052324,1117.06269700247
50,104,3,380,0.5,0.5,0.5,4,1,0.4,4,984,1,0,984,0,0,0.2,NaN,2.31884551760289,2.31884551760289,750,0,0,incongruent,0,2326.85650752566,4699.6961092837
50,104,3,381,-0.5,-0.5,-0.5,2,2,0.4,2,669,1,1,669,1,0,0.2,0.6,0.115892322292949,0.115892322292949,750,1,0,congruent,0.1,5723.53660781405,8464.44884763966
50,104,3,382,-0.5,-0.5,0.5,3,4,0.4,3,706,1,1,706,0,0,0.2,0.6,0.374651903964275,0.374651903964275,750,0,0,incongruent,0,1400.94173800603,1215.33010645408
50,104,3,383,-0.5,-0.5,-0.5,1,1,0.4,1,603,1,1,603,0,0,0.2,0.4,-0.345678823391038,-0.345678823391038,750,1,0,congruent,0,2626.68100941413,5142.03195277292
50,104,3,384,0.5,-0.5,0.5,4,2,0.4,4,665,1,1,665,1,0,0.2,NaN,0.0879183134636165,0.0879183134636165,750,0,0,incongruent,1,4026.43583797761,774.728342246122
50,104,3,385,-0.5,0.5,0,1,NaN,0.4,1,548,1,1,548,1,0,0.6,0.6,-0.730321444794361,-0.730321444794361,750,0,0,neutral,0.1,694.865205270678,2279.93483480472
50,104,3,386,0.5,0.5,-0.5,4,4,0.4,4,520,1,1,520,1,0,0.8,NaN,-0.926139506599689,-0.926139506599689,750,1,0,congruent,1,8135.01696684489,3297.70466133854
50,104,3,387,0.5,-0.5,0,2,NaN,0.6,2,631,1,1,631,0,0,1,NaN,-0.14986076158571,-0.14986076158571,750,0,0,neutral,0,2584.69970940241,2406.35827100501
50,104,3,388,-0.5,0.5,-0.5,4,4,0.6,4,955,1,0,955,0,0,1,0.8,2.11603395359023,2.11603395359023,750,1,0,congruent,0,15904.8872581654,4795.72037587636
50,104,3,389,0.5,0.5,0,3,NaN,0.4,3,595,1,1,595,1,0,1,NaN,-0.401626841049703,-0.401626841049703,750,0,0,neutral,1,4574.23264699679,3200.17622473408
50,104,3,390,0.5,0.5,-0.5,4,4,0.6,4,633,1,1,633,1,0,1,NaN,-0.135873757171044,-0.135873757171044,750,1,0,congruent,1,1846.32771981044,5145.35863549213
50,104,3,391,-0.5,0.5,0.5,2,3,0.8,2,721,1,1,721,1,0,1.2,0.8,0.479554437074272,0.479554437074272,750,0,0,incongruent,0.1,1942.09882216553,1585.34111161745
50,104,3,392,-0.5,-0.5,0.5,3,4,0.8,3,755,1,0,755,0,0,1,0.4,0.717333512123599,0.717333512123599,750,0,0,incongruent,0,7298.85683099222,3633.66313394392
50,104,3,393,-0.5,-0.5,0,2,NaN,0.8,2,511,1,1,511,1,0,1,0.2,-0.989081026465687,-0.989081026465687,750,0,0,neutral,0.1,1901.92939271227,2020.64809588868
50,104,3,394,-0.5,0.5,-0.5,4,4,0.8,4,600,1,1,600,1,0,1.2,0.8,-0.366659330013038,-0.366659330013038,750,1,0,congruent,0.1,1695.17123665009,2421.28825504879
50,104,3,395,-0.5,-0.5,-0.5,3,3,0.8,3,801,1,0,801,1,0,1,0.4,1.03903461366092,1.03903461366092,750,1,0,congruent,0.1,14701.9472119471,5836.53076686104
50,104,3,396,0.5,-0.5,-0.5,1,1,0.8,1,538,1,1,538,1,0,0.8,NaN,-0.800256466867692,-0.800256466867692,750,1,0,congruent,1,3294.59829506358,5252.10518940458
50,104,3,397,-0.5,-0.5,0,3,NaN,0.8,3,546,1,1,546,1,0,1,0.4,-0.744308449209027,-0.744308449209027,750,0,0,neutral,0.1,3498.649942486,3021.38675718849
50,104,3,398,-0.5,-0.5,-0.5,4,4,0.8,4,519,1,1,519,1,0,1.2,0.6,-0.933133008807022,-0.933133008807022,750,1,0,congruent,0.1,3207.72928966466,1338.26720010473
50,104,3,399,0.5,-0.5,0.5,2,3,0.8,2,520,1,1,520,1,0,1.2,NaN,-0.926139506599689,-0.926139506599689,750,0,0,incongruent,1,3977.4061599813,1789.04944970606
50,104,3,400,-0.5,0.5,0.5,4,1,0.8,3,743,0,1,NaN,0,0,1.4,0.8,0.633411485635601,NaN,750,0,1,incongruent,0,3745.61196547882,3507.6073329846
50,104,3,401,-0.5,0.5,-0.5,3,3,0.8,2,867,0,0,NaN,0,0,1.2,0.6,1.50060575934491,NaN,750,0,1,congruent,0,5999.0267764011,2750.66205245586
50,104,3,402,0.5,0.5,-0.5,1,1,0.6,1,636,1,1,636,1,0,0.8,NaN,-0.114893250549045,-0.114893250549045,750,1,0,congruent,1,3727.10679682764,2601.04201900868
50,104,3,403,0.5,0.5,0.5,3,4,0.6,4,766,0,0,NaN,0,0,1,NaN,0.794262036404263,NaN,750,1,0,incongruent,0,12056.9764007341,2156.77636206809
50,104,3,404,0.5,-0.5,-0.5,2,2,0.4,2,843,1,0,843,1,0,0.8,NaN,1.33276170636892,1.33276170636892,750,1,0,congruent,1,8373.03768079933,7338.82032545571
50,104,3,405,0.5,-0.5,0.5,3,4,0.4,3,841,1,0,841,0,0,0.8,NaN,1.31877470195425,1.31877470195425,750,0,0,incongruent,0,2441.04391168165,4541.54847632726
50,104,3,406,-0.5,0.5,0,4,NaN,0.4,4,302,1,1,302,1,0,0.8,0.4,-2.45072298779831,-2.45072298779831,750,0,0,neutral,0.1,3571.22697280225,4157.86288137651
50,104,3,407,0.5,-0.5,-0.5,1,1,0.4,1,662,1,1,662,0,0,1,NaN,0.0669378068416171,0.0669378068416171,750,1,0,congruent,0,917.412089249162,2471.04451348289
50,104,3,408,-0.5,0.5,0.5,2,3,0.4,2,332,1,1,332,1,0,0.6,0.6,-2.24091792157832,-2.24091792157832,750,0,0,incongruent,0.1,9966.72939243777,1009.33428772675
50,104,3,409,-0.5,0.5,0,1,NaN,0.6,1,610,1,1,610,1,0,0.8,0.6,-0.296724307939706,-0.296724307939706,750,0,0,neutral,0.1,6530.77015454156,1327.51506916958
50,104,3,410,0.5,0.5,0.5,3,4,0.8,3,733,1,1,733,1,0,0.6,NaN,0.56347646356227,0.56347646356227,750,0,0,incongruent,1,1555.6034472033,1633.14895363605
50,104,3,411,0.5,-0.5,0.5,1,2,0.8,1,827,1,0,827,1,0,1,NaN,1.22086567105158,1.22086567105158,750,0,0,incongruent,1,9302.53793281955,2200.42750334865
50,104,3,412,-0.5,-0.5,0.5,3,1,0.8,3,736,1,1,736,1,0,1.2,0.8,0.584456970184269,0.584456970184269,750,0,0,incongruent,0.1,3407.21819750728,6658.60645229551
50,104,3,413,-0.5,-0.5,0.5,4,2,0.8,4,750,1,1,750,1,0,1.4,1,0.682366001086933,0.682366001086933,750,0,0,incongruent,0.1,4806.07737212931,7491.78968253743
50,104,3,415,-0.5,-0.5,-0.5,4,4,0.8,4,679,1,1,679,1,0,1.2,1,0.18582734436628,0.18582734436628,750,1,0,congruent,0.1,1071.12054667151,3799.66697001989
50,104,3,416,0.5,-0.5,-0.5,1,1,0.8,1,657,1,1,657,1,0,1,NaN,0.0319702958049514,0.0319702958049514,750,1,0,congruent,1,1451.90709041964,2259.57122303713
50,104,3,417,0.5,0.5,0.5,3,4,0.8,3,774,1,0,774,0,0,1,NaN,0.850210054062929,0.850210054062929,750,0,0,incongruent,0,3338.68454283173,1624.75161121751
50,104,3,418,0.5,0.5,-0.5,1,1,0.6,2,680,0,1,NaN,0,0,0.8,NaN,0.192820846573614,NaN,750,0,1,congruent,0,6283.16248353151,498.598178453986
50,104,3,419,0.5,-0.5,0,3,NaN,0.4,3,616,1,1,616,0,0,0.6,NaN,-0.254763294695707,-0.254763294695707,750,0,0,neutral,0,7797.72730554403,2587.50208807129
50,104,3,420,-0.5,0.5,-0.5,1,1,0.4,1,496,1,1,496,1,0,0.6,0.6,-1.09398355957568,-1.09398355957568,750,1,0,congruent,0.1,954.278067130834,3328.40816558249
50,104,3,421,0.5,-0.5,0.5,3,4,0.4,3,615,1,1,615,0,0,0.6,NaN,-0.26175679690304,-0.26175679690304,750,0,0,incongruent,0,10340.4941039087,6437.50779735103
50,104,3,422,0.5,0.5,0,2,NaN,0.4,2,772,1,0,772,0,0,0.2,NaN,0.836223049648262,0.836223049648262,750,0,0,neutral,0,2904.74512204325,4266.80309047806
50,104,3,423,0.5,0.5,0.5,3,4,0.2,3,585,1,1,585,1,0,0.2,NaN,-0.471561863123035,-0.471561863123035,750,0,0,incongruent,1,6296.34178246046,21966.9855589668
50,104,3,424,0.5,-0.5,0,2,NaN,0.4,2,654,1,1,654,0,0,0.6,NaN,0.010989789182952,0.010989789182952,750,0,0,neutral,0,5699.02156880964,1441.87438073096
50,104,3,425,-0.5,0.5,0.5,3,2,0.4,3,634,1,1,634,1,0,0.6,0.8,-0.128880254963711,-0.128880254963711,750,0,0,incongruent,0.1,7644.60327297245,4844.66655199025
50,104,3,426,0.5,-0.5,0,2,NaN,0.6,2,601,1,1,601,1,0,0.6,NaN,-0.359665827805704,-0.359665827805704,750,0,0,neutral,1,5206.68700850018,4059.47795399272
50,104,3,427,0.5,-0.5,-0.5,3,3,0.6,3,654,1,1,654,1,0,1,NaN,0.010989789182952,0.010989789182952,750,1,0,congruent,1,9548.70517730824,1776.85505483536
50,104,3,428,0.5,0.5,0,4,NaN,0.6,4,424,1,1,424,1,0,1.4,NaN,-1.59751571850367,-1.59751571850367,750,0,0,neutral,1,5701.709986094,1983.87890320815
50,104,3,429,-0.5,0.5,-0.5,2,2,0.8,2,551,1,1,551,1,0,1.4,1,-0.709340938172361,-0.709340938172361,750,1,0,congruent,0.1,5108.0584343652,1640.28997299729
50,104,3,430,-0.5,-0.5,0,3,NaN,0.8,3,628,1,1,628,1,0,1.6,1,-0.17084126820771,-0.17084126820771,750,0,0,neutral,0.1,1145.2131365978,1741.54976953053
50,104,3,431,0.5,0.5,-0.5,1,1,0.8,1,448,1,1,448,1,0,1.6,NaN,-1.42967166552767,-1.42967166552767,750,1,0,congruent,1,4009.6966205426,5365.51150532412
50,104,3,432,-0.5,0.5,0,3,NaN,1,3,531,1,1,531,1,0,1.6,1,-0.849210982319024,-0.849210982319024,750,0,0,neutral,0.1,3056.87417432127,814.157989616047
50,104,3,433,-0.5,0.5,-0.5,4,4,1,4,658,1,1,658,1,0,1.4,1,0.0389637980122845,0.0389637980122845,750,1,0,congruent,0.1,1032.83777161692,9569.28052170336
50,104,3,434,-0.5,0.5,0,1,NaN,1,1,583,1,1,583,1,0,1.2,1,-0.485548867537701,-0.485548867537701,750,0,0,neutral,0.1,3806.6299442604,7496.32277926329
50,104,3,435,-0.5,-0.5,0.5,3,4,1,3,780,1,0,780,1,0,1.2,1,0.892171067306927,0.892171067306927,750,0,0,incongruent,0.1,2265.53247117729,1412.26109240919
50,104,3,436,-0.5,0.5,0,1,NaN,1,1,573,1,1,573,1,0,1.2,1,-0.555483889611032,-0.555483889611032,750,0,0,neutral,0.1,1884.69797626151,2710.56199316136
50,104,3,437,-0.5,0.5,-0.5,2,2,1,2,561,1,1,561,1,0,1,1,-0.63940591609903,-0.63940591609903,750,1,0,congruent,0.1,1994.67558851561,10715.9238615257
50,104,3,438,-0.5,0.5,-0.5,3,3,1,3,392,1,1,392,1,0,1,1,-1.82130778913833,-1.82130778913833,750,1,0,congruent,0.1,4533.82350158478,1272.70662919448
50,104,3,439,-0.5,-0.5,-0.5,4,4,1,4,566,1,1,566,1,0,1,1,-0.604438405062364,-0.604438405062364,750,1,0,congruent,0.1,1050.3427585469,1696.89515541208
50,104,3,440,0.5,0.5,0.5,2,3,1,2,737,1,1,737,1,0,1,NaN,0.591450472391602,0.591450472391602,750,0,0,incongruent,1,3123.26614851529,3446.00339462509
50,104,3,441,-0.5,0.5,0,4,NaN,1,4,485,1,1,485,1,0,1.2,1,-1.17091208385635,-1.17091208385635,750,0,0,neutral,0.1,1950.94296893915,3088.79363278736
50,104,3,442,-0.5,-0.5,0.5,3,1,1,3,664,1,1,664,1,0,1.2,1,0.0809248112562833,0.0809248112562833,750,0,0,incongruent,0.1,3960.80909188037,1116.40951678825
50,104,3,443,0.5,0.5,0,4,NaN,1,4,519,1,1,519,1,0,1.2,NaN,-0.933133008807022,-0.933133008807022,750,0,0,neutral,1,7120.77031537365,2156.07353223244
50,104,3,444,-0.5,0.5,-0.5,1,1,1,1,673,1,1,673,1,0,1.4,1,0.143866331122282,0.143866331122282,750,1,0,congruent,0.1,1471.07904032395,15872.0063374437
50,104,3,446,0.5,-0.5,0.5,2,1,1,2,754,1,0,754,1,0,1.2,NaN,0.710340009916266,0.710340009916266,750,0,0,incongruent,1,4946.64811665972,668.19334411257
50,104,3,447,-0.5,0.5,-0.5,3,3,1,3,665,1,1,665,1,0,1.4,1,0.0879183134636165,0.0879183134636165,750,1,0,congruent,0.1,3271.54150775125,2148.7783053506
50,104,3,448,-0.5,-0.5,0.5,2,1,1,2,565,1,1,565,1,0,1.4,1,-0.611431907269697,-0.611431907269697,750,0,0,incongruent,0.1,6378.37625263868,2012.27656850031
50,104,3,449,0.5,-0.5,0.5,1,4,1,1,761,1,0,761,1,0,1.2,NaN,0.759294525367598,0.759294525367598,750,0,0,incongruent,1,2254.66585440209,2504.40060729745
50,104,3,450,0.5,-0.5,0,2,NaN,1,2,654,1,1,654,1,0,1.4,NaN,0.010989789182952,0.010989789182952,750,0,0,neutral,1,1773.34321973919,3198.71206755486
50,104,4,451,-0.5,-0.5,0.5,4,1,1,4,622,1,1,622,1,0,1.6,1,-0.212802281451708,-0.212802281451708,750,0,0,incongruent,0.1,3274.31788119146,3351.82041345621
50,104,4,452,-0.5,0.5,0.5,2,4,1,2,738,1,1,738,1,0,1.4,1,0.598443974598936,0.598443974598936,750,0,0,incongruent,0.1,5245.72281509194,1091.29542300881
50,104,4,453,0.5,0.5,0,3,NaN,1,3,693,1,1,693,1,0,1.4,NaN,0.283736375268944,0.283736375268944,750,0,0,neutral,1,5083.30338366788,4871.00268371419
50,104,4,454,-0.5,0.5,-0.5,1,1,1,1,476,1,1,476,1,0,1.6,1,-1.23385360372235,-1.23385360372235,750,1,0,congruent,0.1,1891.87114806611,2076.40101535525
50,104,4,455,-0.5,0.5,0.5,3,2,1,3,754,1,0,754,0,0,1.4,1,0.710340009916266,0.710340009916266,750,0,0,incongruent,0,3236.47060441236,6695.18427253665
50,104,4,456,-0.5,0.5,0.5,2,1,0.8,2,579,1,1,579,1,0,1,0.8,-0.513522876367033,-0.513522876367033,750,0,0,incongruent,0.1,2836.74506989502,1682.02307102505
50,104,4,457,-0.5,0.5,-0.5,3,3,0.8,3,456,1,1,456,1,0,1,0.8,-1.37372364786901,-1.37372364786901,750,1,0,congruent,0.1,4204.40936341532,2275.19546890881
50,104,4,458,0.5,-0.5,0.5,1,2,0.8,1,678,1,1,678,1,0,1,NaN,0.178833842158947,0.178833842158947,750,0,0,incongruent,1,6326.40665830259,2742.57781400239
50,104,4,459,0.5,-0.5,0,2,NaN,0.8,2,511,1,1,511,1,0,1,NaN,-0.989081026465687,-0.989081026465687,750,0,0,neutral,1,2137.66658197373,5883.88737001849
50,104,4,460,-0.5,-0.5,-0.5,3,3,0.8,3,410,1,1,410,1,0,1.2,1,-1.69542474940633,-1.69542474940633,750,1,0,congruent,0.1,6063.44503833274,2103.39346449916
50,104,4,461,-0.5,0.5,0,2,NaN,0.8,2,565,1,1,565,1,0,1.4,0.8,-0.611431907269697,-0.611431907269697,750,0,0,neutral,0.1,2348.10400774546,3129.39776239688
50,104,4,462,0.5,0.5,-0.5,3,3,0.8,3,543,1,1,543,1,0,1.4,NaN,-0.765288955831026,-0.765288955831026,750,1,0,congruent,1,1558.12259616536,3465.56607246769
50,104,4,463,0.5,0.5,0.5,2,4,0.8,2,668,1,1,668,1,0,1.6,NaN,0.108898820085616,0.108898820085616,750,0,0,incongruent,1,3187.76866141731,1614.84854728205
50,104,4,464,0.5,-0.5,-0.5,1,1,1,1,569,1,1,569,1,0,1.6,NaN,-0.583457898440365,-0.583457898440365,750,1,0,congruent,1,1758.09910710943,4030.30596335063
50,104,4,465,0.5,-0.5,0,3,NaN,1,3,686,1,1,686,1,0,1.6,NaN,0.234781859817612,0.234781859817612,750,0,0,neutral,1,15413.3359832669,883.769408813839
50,104,4,466,-0.5,-0.5,0.5,2,3,1,2,624,1,1,624,1,0,1.8,1,-0.198815277037042,-0.198815277037042,750,0,0,incongruent,0.1,1721.96486728843,2230.82105403882
50,104,4,467,0.5,-0.5,0.5,4,1,1,3,772,0,0,NaN,1,0,1.8,NaN,0.836223049648262,NaN,750,0,1,incongruent,1,6400.87106923561,3567.47491738033
50,104,4,468,-0.5,0.5,0.5,1,3,1,2,715,0,1,NaN,0,0,1.8,0.8,0.437593423830273,NaN,750,0,1,incongruent,0,8004.56560702226,1379.40469709313
50,104,4,469,0.5,-0.5,0.5,3,2,0.8,2,663,0,1,NaN,1,0,1.4,NaN,0.0739313090489502,NaN,750,1,0,incongruent,1,9841.31017527727,5953.38595542431
50,104,4,470,0.5,-0.5,-0.5,4,4,0.8,4,715,1,1,715,1,0,1.4,NaN,0.437593423830273,0.437593423830273,750,1,0,congruent,1,9815.59833981494,5005.71135479061
50,104,4,471,0.5,0.5,0,1,NaN,0.8,1,687,1,1,687,1,0,1.4,NaN,0.241775362024946,0.241775362024946,750,0,0,neutral,1,2800.22527137386,2300.08644093009
50,104,4,472,-0.5,-0.5,-0.5,4,4,0.8,4,755,1,0,755,1,0,1.6,1,0.717333512123599,0.717333512123599,750,1,0,congruent,0.1,941.12688287686,2993.91805656369
50,104,4,473,0.5,-0.5,0.5,3,1,0.8,3,800,1,0,800,1,0,1.4,NaN,1.03204111145359,1.03204111145359,750,0,0,incongruent,1,2381.24982863955,2882.46177700746
50,104,4,474,0.5,-0.5,0,1,NaN,0.8,1,904,1,0,904,0,0,1.8,NaN,1.75936534101624,1.75936534101624,750,0,0,neutral,0,3814.17857708933,2677.60420297463
50,104,4,475,0.5,0.5,-0.5,4,4,0.8,4,560,1,1,560,1,0,1.4,NaN,-0.646399418306363,-0.646399418306363,750,1,0,congruent,1,2579.88768622688,3671.94653726789
50,104,4,477,0.5,0.5,0.5,1,2,0.8,1,908,1,0,908,0,0,1.2,NaN,1.78733934984557,1.78733934984557,750,0,0,incongruent,0,14911.8954698217,3381.6184548141
50,104,4,478,-0.5,0.5,0.5,2,4,0.6,2,606,1,1,606,1,0,1,0.6,-0.324698316769039,-0.324698316769039,750,0,0,incongruent,0.1,3423.45808231317,4031.41738830815
50,104,4,479,0.5,-0.5,0,3,NaN,0.6,3,630,1,1,630,1,0,0.8,NaN,-0.156854263793043,-0.156854263793043,750,0,0,neutral,1,4210.48894425967,3162.64456020735
50,104,4,480,0.5,-0.5,0.5,1,2,0.6,1,803,1,0,803,0,0,1.2,NaN,1.05302161807559,1.05302161807559,750,0,0,incongruent,0,1733.73751534931,3241.68571757337
50,104,4,481,-0.5,-0.5,-0.5,4,4,0.6,4,544,1,1,544,0,0,0.8,1,-0.758295453623693,-0.758295453623693,750,1,0,congruent,0,1296.32683177129,2748.16926597881
50,104,4,482,-0.5,-0.5,0,3,NaN,0.6,3,725,1,1,725,0,0,0.6,0.8,0.507528445903605,0.507528445903605,750,0,0,neutral,0,9587.77304496906,10856.8534775935
50,104,4,483,0.5,0.5,-0.5,1,1,0.6,1,688,1,1,688,1,0,0.6,NaN,0.248768864232279,0.248768864232279,750,1,0,congruent,1,1376.60282532676,6807.39600937598
50,104,4,484,0.5,-0.5,0.5,4,3,0.8,4,771,1,0,771,0,0,0.8,NaN,0.829229547440929,0.829229547440929,750,0,0,incongruent,0,5778.3197377441,5081.44068619832
50,104,4,485,-0.5,-0.5,0,2,NaN,0.8,3,669,0,1,NaN,1,0,0.4,0.6,0.115892322292949,NaN,750,0,1,neutral,0.1,15017.6487722458,3619.91896487316
50,104,4,486,0.5,0.5,0.5,3,2,0.8,3,850,1,0,850,0,0,0.6,NaN,1.38171622182025,1.38171622182025,750,0,0,incongruent,0,2747.81378334143,14307.287340177
50,104,4,487,0.5,0.5,0,1,NaN,0.6,1,681,1,1,681,1,0,0.6,NaN,0.199814348780947,0.199814348780947,750,0,0,neutral,1,3377.2939348753,5381.71016982346
50,104,4,488,0.5,-0.5,0.5,4,1,0.6,4,736,1,1,736,1,0,1,NaN,0.584456970184269,0.584456970184269,750,0,0,incongruent,1,1549.79931809975,8392.42437275185
50,104,4,489,-0.5,-0.5,-0.5,2,2,0.6,2,668,1,1,668,0,0,1,0.6,0.108898820085616,0.108898820085616,750,1,0,congruent,0,1377.06705473058,2427.48643083185
50,104,4,490,0.5,0.5,-0.5,3,3,0.6,3,577,1,1,577,1,0,1,NaN,-0.5275098807817,-0.5275098807817,750,1,0,congruent,1,4411.19355216041,3394.73351049942
50,104,4,491,-0.5,0.5,0.5,2,1,0.8,2,609,1,1,609,1,0,1.2,0.8,-0.303717810147039,-0.303717810147039,750,0,0,incongruent,0.1,1657.98880299481,604.833757735284
50,104,4,492,-0.5,-0.5,0,4,NaN,0.8,4,465,1,1,465,1,0,1.4,0.4,-1.31078212800301,-1.31078212800301,750,0,0,neutral,0.1,1422.37683014968,8246.37672568591
50,104,4,493,-0.5,0.5,-0.5,2,2,0.8,2,575,1,1,575,1,0,1.2,0.8,-0.541496885196366,-0.541496885196366,750,1,0,congruent,0.1,2671.42928210522,2395.81457820539
50,104,4,494,-0.5,-0.5,0,1,NaN,0.8,1,710,1,1,710,1,0,1,0.4,0.402625912793608,0.402625912793608,750,0,0,neutral,0.1,2503.67107705226,3543.99096905644
50,104,4,495,0.5,-0.5,-0.5,2,2,0.8,2,571,1,1,571,1,0,1.2,NaN,-0.569470894025699,-0.569470894025699,750,1,0,congruent,1,943.227870800296,2332.83047673756
50,104,4,496,-0.5,0.5,0,1,NaN,0.8,1,702,1,1,702,1,0,1.2,0.8,0.346677895134943,0.346677895134943,750,0,0,neutral,0.1,7604.70191915651,7770.46283755094
50,104,4,497,0.5,-0.5,0.5,2,1,1,2,642,1,1,642,1,0,1.2,NaN,-0.0729322373050457,-0.0729322373050457,750,0,0,incongruent,1,2344.14804816932,4242.88858933084
50,104,4,498,-0.5,-0.5,0,3,NaN,1,3,702,1,1,702,1,0,1.4,0.6,0.346677895134943,0.346677895134943,750,0,0,neutral,0.1,1343.53872884419,4067.86392660564
50,104,4,499,0.5,0.5,0.5,4,3,1,4,533,1,1,533,1,0,1.4,NaN,-0.835223977904358,-0.835223977904358,750,0,0,incongruent,1,13925.3972750466,3325.75421022422
50,104,4,500,-0.5,-0.5,-0.5,2,2,1,2,510,1,1,510,1,0,1.6,0.8,-0.99607452867302,-0.99607452867302,750,1,0,congruent,0.1,7909.02412679397,755.776603537007
50,104,4,501,0.5,0.5,0,4,NaN,1,4,484,1,1,484,1,0,1.4,NaN,-1.17790558606368,-1.17790558606368,750,0,0,neutral,1,3286.25353377347,1718.77758179769
50,104,4,502,-0.5,-0.5,-0.5,3,3,1,3,529,1,1,529,1,0,1.6,0.8,-0.86319798673369,-0.86319798673369,750,1,0,congruent,0.1,1890.3930357571,2248.5534229488
50,104,4,503,0.5,0.5,0.5,4,2,1,4,753,1,0,753,0,0,1.4,NaN,0.703346507708933,0.703346507708933,750,0,0,incongruent,0,5807.45537679251,12087.3957106597
50,104,4,504,-0.5,-0.5,0.5,2,3,0.8,2,681,1,1,681,0,0,1.2,1,0.199814348780947,0.199814348780947,750,0,0,incongruent,0,3559.44240209726,6807.33308018786
50,104,4,505,-0.5,0.5,-0.5,1,1,0.8,1,581,1,1,581,1,0,0.8,0.8,-0.499535871952367,-0.499535871952367,750,1,0,congruent,0.1,1507.05590798357,1907.07150006875
50,104,4,506,-0.5,-0.5,-0.5,3,3,0.8,2,832,0,0,NaN,1,0,0.8,0.8,1.25583318208825,NaN,750,0,1,congruent,0.1,4243.42406541636,3740.18314097594
50,104,4,507,-0.5,0.5,0,1,NaN,0.8,2,765,0,0,NaN,0,0,0.6,1,0.78726853419693,NaN,750,0,1,neutral,0,26926.867721068,2396.99601218205
50,104,4,508,-0.5,-0.5,-0.5,3,3,0.6,2,985,0,0,NaN,1,0,0.4,0.8,2.32583901981022,NaN,750,0,1,congruent,0.1,752.162256563866,645.388860600489
50,104,4,509,0.5,-0.5,0,1,NaN,0.6,1,562,1,1,562,0,0,0.6,NaN,-0.632412413891697,-0.632412413891697,750,0,0,neutral,0,1867.65109619468,1082.01547852793
50,104,4,510,0.5,-0.5,-0.5,2,2,0.6,2,597,1,1,597,1,0,0.6,NaN,-0.387639836635037,-0.387639836635037,750,1,0,congruent,1,3013.04692474001,4697.83295599173
50,104,4,511,0.5,-0.5,0,1,NaN,0.6,1,663,1,1,663,1,0,0.8,NaN,0.0739313090489502,0.0739313090489502,750,0,0,neutral,1,5484.1882366596,2811.62822641922
50,104,4,513,0.5,0.5,0,2,NaN,0.4,2,601,1,1,601,1,0,1,NaN,-0.359665827805704,-0.359665827805704,750,0,0,neutral,1,4130.77394385959,3630.13313222932
50,104,4,514,-0.5,0.5,-0.5,4,4,0.4,4,595,1,1,595,1,0,1.2,0.6,-0.401626841049703,-0.401626841049703,750,1,0,congruent,0.1,3634.44942810913,4614.11477484786
50,104,4,515,-0.5,-0.5,-0.5,1,1,0.6,1,544,1,1,544,1,0,1.4,0.8,-0.758295453623693,-0.758295453623693,750,1,0,congruent,0.1,2297.75587388543,8407.28664036142
50,104,4,516,-0.5,-0.5,0,4,NaN,0.6,3,871,0,0,NaN,0,0,1.2,0.8,1.52857976817424,NaN,750,0,1,neutral,0,4055.50727066175,5213.73001993437
50,104,4,518,0.5,0.5,0,4,NaN,0.6,4,747,1,1,747,1,0,1.2,NaN,0.661385494464934,0.661385494464934,750,0,0,neutral,1,4500.89937372688,9158.57676589615
50,104,4,519,0.5,-0.5,0.5,3,4,0.6,3,953,1,0,953,0,0,1.2,NaN,2.10204694917556,2.10204694917556,750,0,0,incongruent,0,1906.78773614125,5064.46789136277
50,104,4,520,0.5,0.5,-0.5,2,2,0.6,2,642,1,1,642,1,0,1,NaN,-0.0729322373050457,-0.0729322373050457,750,1,0,congruent,1,6083.29654195611,1674.83380654954
50,104,4,521,-0.5,0.5,-0.5,4,4,0.8,4,556,1,1,556,1,0,1.2,0.6,-0.674373427135696,-0.674373427135696,750,1,0,congruent,0.1,5713.16328768316,2455.04240694599
50,104,4,523,-0.5,-0.5,-0.5,4,4,1,4,614,1,1,614,1,0,1.4,0.6,-0.268750299110374,-0.268750299110374,750,1,0,congruent,0.1,3363.11150920391,3839.76441454775
50,104,4,524,0.5,0.5,0,3,NaN,1,2,899,0,0,NaN,0,0,1.2,NaN,1.72439782997957,NaN,750,0,1,neutral,0,10842.7273086173,9966.3516998544
50,104,4,525,0.5,-0.5,-0.5,2,2,0.8,2,574,1,1,574,0,0,1.2,NaN,-0.548490387403699,-0.548490387403699,750,1,0,congruent,0,2267.79326062371,1897.17122145536
50,104,4,526,0.5,-0.5,0,3,NaN,0.8,3,802,1,0,802,1,0,0.8,NaN,1.04602811586826,1.04602811586826,750,0,0,neutral,1,2414.82898146144,6146.45204690741
50,104,4,527,-0.5,0.5,0.5,1,2,0.8,2,714,0,1,NaN,0,0,1,0.6,0.43059992162294,NaN,750,1,0,incongruent,0,2771.13468464476,2148.5383112027
50,104,4,528,0.5,-0.5,0,3,NaN,0.6,3,513,1,1,513,1,0,0.6,NaN,-0.97509402205102,-0.97509402205102,750,0,0,neutral,1,2255.15378450975,3075.13763665962
50,104,4,529,0.5,-0.5,-0.5,1,1,0.6,1,551,1,1,551,1,0,0.8,NaN,-0.709340938172361,-0.709340938172361,750,1,0,congruent,1,1548.05765427946,2786.87575157894
50,104,4,530,-0.5,0.5,-0.5,2,2,0.6,2,540,1,1,540,1,0,1.2,0.4,-0.786269462453026,-0.786269462453026,750,1,0,congruent,0.1,1792.03655990992,14016.1180617065
50,104,4,531,0.5,-0.5,-0.5,3,3,0.6,3,531,1,1,531,1,0,1.4,NaN,-0.849210982319024,-0.849210982319024,750,1,0,congruent,1,4256.91277435581,4343.52349678616
50,104,4,532,0.5,0.5,0.5,2,1,0.6,2,713,1,1,713,1,0,1.4,NaN,0.423606419415607,0.423606419415607,750,0,0,incongruent,1,10608.5889582931,3986.59141916203
50,104,4,533,-0.5,-0.5,0,1,NaN,0.6,2,791,0,0,NaN,1,0,1.8,0.8,0.969099591587592,NaN,750,0,1,neutral,0.1,2992.36796156349,4416.40957725806
50,104,4,534,-0.5,0.5,0.5,3,2,0.6,3,780,1,0,780,0,0,1.6,0.6,0.892171067306927,0.892171067306927,750,0,0,incongruent,0,2089.16542323018,4354.38430485884
50,104,4,535,-0.5,0.5,0,1,NaN,0.4,1,527,1,1,527,1,0,1.2,0.6,-0.877184991148357,-0.877184991148357,750,0,0,neutral,0.1,1312.2547128831,1225.72808866333
50,104,4,536,-0.5,0.5,-0.5,3,3,0.6,3,624,1,1,624,1,0,1.2,0.6,-0.198815277037042,-0.198815277037042,750,1,0,congruent,0.1,4958.3297111954,2496.10885861945
50,104,4,537,-0.5,-0.5,-0.5,4,4,0.8,4,478,1,1,478,1,0,1,0.8,-1.21986659930768,-1.21986659930768,750,1,0,congruent,0.1,3303.10882909049,1295.8071308056
50,104,4,538,0.5,0.5,-0.5,3,3,0.8,3,528,1,1,528,1,0,0.8,NaN,-0.870191488941023,-0.870191488941023,750,1,0,congruent,1,6452.85441968468,4048.51881772487
50,104,4,539,-0.5,-0.5,-0.5,4,4,0.8,4,580,1,1,580,1,0,1,0.8,-0.5065293741597,-0.5065293741597,750,1,0,congruent,0.1,11327.1352767539,9776.83039924041
50,104,4,540,-0.5,0.5,-0.5,2,2,0.8,2,594,1,1,594,1,0,1.2,0.6,-0.408620343257036,-0.408620343257036,750,1,0,congruent,0.1,2867.02445932768,1549.07799722336
50,104,4,541,-0.5,0.5,0.5,1,3,0.8,1,258,1,1,258,1,0,1.2,0.8,-2.75843708492097,-2.75843708492097,750,0,0,incongruent,0.1,10069.3228282613,7930.13044323982
50,104,4,542,-0.5,-0.5,-0.5,2,2,1,2,616,1,1,616,1,0,1.2,0.8,-0.254763294695707,-0.254763294695707,750,1,0,congruent,0.1,2912.62540351429,7132.31134475397
50,104,4,543,0.5,0.5,-0.5,4,4,1,4,661,1,1,661,1,0,1.2,NaN,0.0599443046342839,0.0599443046342839,750,1,0,congruent,1,3837.15824069575,4892.4190420699
50,104,4,544,0.5,0.5,-0.5,2,2,1,2,568,1,1,568,1,0,1.2,NaN,-0.590451400647698,-0.590451400647698,750,1,0,congruent,1,3012.2720823456,5889.49393447441
50,104,4,545,0.5,0.5,-0.5,4,4,1,4,428,1,1,428,1,0,1.4,NaN,-1.56954170967434,-1.56954170967434,750,1,0,congruent,1,4361.792002493,4647.77491507854
50,104,4,546,0.5,0.5,0,2,NaN,1,2,647,1,1,647,1,0,1.6,NaN,-0.03796472626838,-0.03796472626838,750,0,0,neutral,1,4750.94404096152,2400.77373803936
50,104,4,547,0.5,0.5,0.5,4,2,1,4,626,1,1,626,1,0,1.8,NaN,-0.184828272622376,-0.184828272622376,750,0,0,incongruent,1,1466.23055456887,1453.05812531457
50,104,4,548,0.5,-0.5,0.5,1,4,1,1,718,1,1,718,1,0,2,NaN,0.458573930452273,0.458573930452273,750,0,0,incongruent,1,2831.2709395068,4972.27461749453
50,104,4,550,-0.5,-0.5,-0.5,1,1,1,1,516,1,1,516,1,0,2,1,-0.954113515429021,-0.954113515429021,750,1,0,congruent,0.1,1870.06819239889,785.138543612746
50,104,4,551,-0.5,-0.5,-0.5,4,4,1,4,510,1,1,510,1,0,1.8,1,-0.99607452867302,-0.99607452867302,750,1,0,congruent,0.1,2668.06553801975,10293.8714880171
50,104,4,552,0.5,-0.5,0,3,NaN,1,3,398,1,1,398,1,0,1.6,NaN,-1.77934677589433,-1.77934677589433,750,0,0,neutral,1,1770.79413717931,1514.86675858004
50,104,4,553,0.5,-0.5,0.5,4,1,1,4,594,1,1,594,1,0,1.6,NaN,-0.408620343257036,-0.408620343257036,750,0,0,incongruent,1,3517.52194769386,2773.60723047089
50,104,4,554,0.5,-0.5,0,3,NaN,1,3,716,1,1,716,1,0,1.6,NaN,0.444586926037607,0.444586926037607,750,0,0,neutral,1,4017.7889336976,6928.94247394844
50,104,4,555,0.5,0.5,-0.5,2,2,1,2,683,1,1,683,1,0,1.6,NaN,0.213801353195613,0.213801353195613,750,1,0,congruent,1,2632.04234561247,2253.45542271599
50,104,4,556,0.5,-0.5,-0.5,3,3,1,3,631,1,1,631,1,0,1.8,NaN,-0.14986076158571,-0.14986076158571,750,1,0,congruent,1,3782.44841655292,3870.83300793378
50,104,4,557,-0.5,-0.5,0.5,4,2,1,4,657,1,1,657,1,0,2,1,0.0319702958049514,0.0319702958049514,750,0,0,incongruent,0.1,2615.06060691164,3910.62730820238
50,104,4,558,0.5,-0.5,0,3,NaN,1,3,933,1,0,933,1,0,1.8,NaN,1.9621769050289,1.9621769050289,750,0,0,neutral,1,3956.09832109718,6352.83963485357
50,104,4,559,0.5,0.5,0.5,4,2,1,4,835,1,0,835,0,0,1.8,NaN,1.27681368871025,1.27681368871025,750,0,0,incongruent,0,1813.54892416746,7130.15711895164
50,104,4,560,0.5,0.5,0,2,NaN,0.8,2,885,1,0,885,0,0,1.4,NaN,1.62648879907691,1.62648879907691,750,0,0,neutral,0,2322.17894732338,6624.61198741478
50,104,4,561,0.5,0.5,0.5,3,2,0.6,3,913,1,0,913,0,0,1,NaN,1.82230686088223,1.82230686088223,750,0,0,incongruent,0,19185.9242225694,2018.42923681042
50,104,4,562,-0.5,0.5,-0.5,1,1,0.4,1,676,1,1,676,1,0,0.6,0.8,0.164846837744281,0.164846837744281,750,1,0,congruent,0.1,2189.26553439352,1089.87720930165
50,104,4,564,0.5,-0.5,0.5,4,3,0.4,4,757,1,0,757,1,0,0.2,NaN,0.731320516538265,0.731320516538265,750,0,0,incongruent,1,1654.83616065864,2062.48929369473
50,104,4,565,-0.5,0.5,-0.5,2,2,0.4,2,556,1,1,556,1,0,0.6,1,-0.674373427135696,-0.674373427135696,750,1,0,congruent,0.1,2276.72505383156,1297.77696910851
50,104,4,566,-0.5,-0.5,-0.5,3,3,0.4,3,609,1,1,609,1,0,0.8,1,-0.303717810147039,-0.303717810147039,750,1,0,congruent,0.1,4014.46953355068,2197.51309902336
50,104,4,567,0.5,0.5,-0.5,1,1,0.4,1,546,1,1,546,1,0,1,NaN,-0.744308449209027,-0.744308449209027,750,1,0,congruent,1,8590.11163857837,12713.7780375756
50,104,4,568,0.5,0.5,-0.5,4,4,0.6,4,637,1,1,637,1,0,1.2,NaN,-0.107899748341711,-0.107899748341711,750,1,0,congruent,1,987.494243396123,2584.22389731256
50,104,4,569,0.5,0.5,0,2,NaN,0.8,2,562,1,1,562,1,0,1.6,NaN,-0.632412413891697,-0.632412413891697,750,0,0,neutral,1,5387.17150764943,3010.09039939016
50,104,4,570,0.5,0.5,-0.5,1,1,1,1,584,1,1,584,1,0,1.6,NaN,-0.478555365330368,-0.478555365330368,750,1,0,congruent,1,4379.85138840153,957.663623328502
50,104,4,571,0.5,0.5,-0.5,2,2,1,2,525,1,1,525,1,0,1.8,NaN,-0.891171995563023,-0.891171995563023,750,1,0,congruent,1,3266.46141213279,1669.9280813393
50,104,4,573,0.5,-0.5,0.5,3,2,0.8,3,633,1,1,633,1,0,1.6,NaN,-0.135873757171044,-0.135873757171044,750,0,0,incongruent,1,1737.13754648205,4123.76740889988
50,104,4,576,-0.5,-0.5,0.5,3,2,0.4,3,719,1,1,719,1,0,0.8,1,0.465567432659606,0.465567432659606,750,0,0,incongruent,0.1,3060.12414181392,3898.49277413302
50,104,4,577,-0.5,-0.5,0,1,NaN,0.4,1,705,1,1,705,1,0,0.6,1,0.367658401756942,0.367658401756942,750,0,0,neutral,0.1,1436.54788005386,3994.4541385596
50,104,4,578,-0.5,0.5,-0.5,4,4,0.4,4,524,1,1,524,1,0,0.8,0.8,-0.898165497770356,-0.898165497770356,750,1,0,congruent,0.1,4249.27220331853,2284.11409463423
50,104,4,579,-0.5,0.5,-0.5,1,1,0.4,2,795,0,0,NaN,0,0,0.6,0.8,0.997073600416924,NaN,750,0,1,congruent,0,4109.55105187989,4867.2240119324
50,104,4,580,0.5,-0.5,0,3,NaN,0.2,3,945,1,0,945,0,0,0.6,NaN,2.0460989315169,2.0460989315169,750,0,0,neutral,0,1761.64587583614,2663.98573968454
50,104,4,581,-0.5,0.5,0.5,1,2,0.2,1,606,1,1,606,1,0,0.6,0.6,-0.324698316769039,-0.324698316769039,750,0,0,incongruent,0.1,4708.82786842741,3465.25791932268
50,104,4,582,0.5,0.5,0,3,NaN,0.4,3,705,1,1,705,1,0,0.6,NaN,0.367658401756942,0.367658401756942,750,0,0,neutral,1,2074.05929931165,1652.14621386781
50,104,4,583,-0.5,0.5,-0.5,1,1,0.6,1,573,1,1,573,1,0,0.8,0.6,-0.555483889611032,-0.555483889611032,750,1,0,congruent,0.1,471.566914868434,2961.76430902457
50,104,4,584,-0.5,-0.5,-0.5,4,4,0.8,4,549,1,1,549,0,0,0.8,1,-0.723327942587028,-0.723327942587028,750,1,0,congruent,0,697.291298940617,3131.57763768019
50,104,4,585,-0.5,0.5,-0.5,2,2,0.8,2,863,1,0,863,0,0,0.8,0.6,1.47263175051558,1.47263175051558,750,1,0,congruent,0,8192.55863151113,1392.84098678547
50,104,4,586,0.5,-0.5,0,1,NaN,0.6,1,527,1,1,527,1,0,0.8,NaN,-0.877184991148357,-0.877184991148357,750,0,0,neutral,1,4871.81292681123,1650.94237978668
50,104,4,587,-0.5,-0.5,-0.5,4,4,0.6,4,350,1,1,350,1,0,1,0.8,-2.11503488184632,-2.11503488184632,750,1,0,congruent,0.1,3022.74598081619,2897.69592703399
50,104,4,588,-0.5,-0.5,0,2,NaN,0.6,2,640,1,1,640,1,0,0.8,0.8,-0.086919241719712,-0.086919241719712,750,0,0,neutral,0.1,2347.13984506352,2343.49842084076
50,104,4,589,-0.5,0.5,-0.5,4,4,0.6,4,746,1,1,746,1,0,0.8,0.6,0.654391992257601,0.654391992257601,750,1,0,congruent,0.1,2088.18611480807,2817.40629229395
50,104,4,590,-0.5,0.5,0,2,NaN,0.8,2,582,1,1,582,1,0,1,0.6,-0.492542369745034,-0.492542369745034,750,0,0,neutral,0.1,6459.72173903833,7274.50796184602
50,104,4,591,-0.5,-0.5,0.5,1,3,0.8,3,839,0,0,NaN,0,0,1.2,0.8,1.30478769753958,NaN,750,1,0,incongruent,0,3888.22633798482,9597.83791168782
50,104,4,592,-0.5,-0.5,-0.5,2,2,0.8,2,564,1,1,564,1,0,0.8,0.6,-0.618425409477031,-0.618425409477031,750,1,0,congruent,0.1,1833.91317349956,1821.84499645646
50,104,4,593,-0.5,-0.5,0.5,1,4,0.8,1,702,1,1,702,1,0,0.8,0.6,0.346677895134943,0.346677895134943,750,0,0,incongruent,0.1,3548.80308282881,7986.21813536676
50,104,4,594,0.5,0.5,0,4,NaN,0.8,3,834,0,0,NaN,0,0,0.8,NaN,1.26982018650292,NaN,750,0,1,neutral,0,7241.65462798452,1763.05488611252
50,104,4,595,-0.5,0.5,-0.5,3,3,0.6,3,813,1,0,813,0,0,0.6,0.8,1.12295664014892,1.12295664014892,750,1,0,congruent,0,2491.53417106109,2792.66277414077
50,104,4,596,0.5,0.5,-0.5,2,2,0.4,2,649,1,1,649,1,0,0.4,NaN,-0.0239777218537137,-0.0239777218537137,750,1,0,congruent,1,6479.26622221137,3334.57739269332
50,104,4,597,0.5,0.5,0,4,NaN,0.6,4,644,1,1,644,1,0,0.8,NaN,-0.0589452328903794,-0.0589452328903794,750,0,0,neutral,1,2284.54481723008,1893.84759499657
50,104,4,598,0.5,-0.5,0.5,3,2,0.6,3,857,1,0,857,0,0,1,NaN,1.43067073727158,1.43067073727158,750,0,0,incongruent,0,1246.532572612,2566.28994823571
50,104,4,599,0.5,-0.5,0.5,4,3,0.6,4,762,1,0,762,0,0,0.8,NaN,0.766288027574931,0.766288027574931,750,0,0,incongruent,0,4534.77163335363,1989.65672973815
50,104,4,600,0.5,0.5,0.5,1,4,0.6,1,943,1,0,943,0,0,0.8,NaN,2.03211192710223,2.03211192710223,750,0,0,incongruent,0,3193.79293827052,3303.71066554071
