subid,vers,block,trial,rewlvl,efflvl,congruency,targetresp,distractorresp,rollingefflvl,resp,rt,acc,fast,accrt,isrewarded,ismiss,runavgrrgen,runavgrrcond,zrt,acczrt,rtthreshold,isdisterror,isranderror,congruence,feedback,fcz_resp_theta,fcz_resp_theta_baseline
53,104,1,1,-0.5,-0.5,0,3,NaN,0.5,3,850,1,0,850,1,0,0,0,1.81652460637047,1.81652460637047,750,0,0,neutral,0.1,6797.96670531453,2356.98401834737
53,104,1,2,-0.5,0.5,-0.5,4,4,0.5,4,317,1,1,317,1,0,0.2,0,-1.61173833886718,-1.61173833886718,750,1,0,congruent,0.1,2669.88467289522,2145.49736791439
53,104,1,3,0.5,-0.5,-0.5,1,1,0.6,2,661,0,1,NaN,0,0,0.4,NaN,0.600874143612651,NaN,750,0,1,congruent,0,6669.10753329462,4125.02582085663
53,104,1,4,-0.5,-0.5,-0.5,3,3,0.6,3,561,1,1,561,0,0,0.4,0.2,-0.0423271594338117,-0.0423271594338117,750,1,0,congruent,0,4835.06353989397,2696.77507587303
53,104,1,5,-0.5,0.5,0.5,2,1,0.6,2,828,1,0,828,0,0,0.4,0.2,1.67502031970024,1.67502031970024,750,0,0,incongruent,0,7989.94945104398,2635.20961528976
53,104,1,6,-0.5,-0.5,-0.5,3,3,0.5,3,692,1,1,692,1,0,0.4,0.2,0.800266547557055,0.800266547557055,750,1,0,congruent,0.1,3991.56527257831,2660.29159208001
53,104,1,7,0.5,-0.5,0.5,4,2,0.5,1,706,0,1,NaN,1,0,0.4,NaN,0.89031472998356,NaN,750,0,1,incongruent,1,6166.35426991014,1460.7399449297
53,104,1,8,0.5,0.5,-0.5,1,1,0.5,1,605,1,1,605,1,0,0.6,NaN,0.240681413906632,0.240681413906632,750,1,0,congruent,1,8465.90521712508,3242.94103661782
53,104,1,9,-0.5,0.5,0.5,4,3,0.6,4,903,1,0,903,0,0,1,0.2,2.15742129698509,2.15742129698509,750,0,0,incongruent,0,3543.57647030558,13367.8566757604
53,104,1,10,0.5,-0.5,0.5,3,1,0.5,3,768,1,0,768,1,0,1,NaN,1.28909953787237,1.28909953787237,750,0,0,incongruent,1,1550.60613855021,2121.24808936394
53,104,1,12,-0.5,-0.5,0,3,NaN,0.5,3,620,1,1,620,0,0,1.2,0.4,0.337161609363601,0.337161609363601,750,0,0,neutral,0,1958.3408829475,1987.87239060475
53,104,1,13,-0.5,-0.5,-0.5,4,4,0.5,4,337,1,1,337,0,0,0.8,0.4,-1.48309807825789,-1.48309807825789,750,1,0,congruent,0,3859.87310874691,1303.74894501302
53,104,1,14,-0.5,-0.5,0.5,3,1,0.5,3,544,1,1,544,1,0,0.4,0.4,-0.15167138095171,-0.15167138095171,750,0,0,incongruent,0.1,6744.44730306821,2401.77783640254
53,104,1,15,-0.5,0.5,0,2,NaN,0.5,2,827,1,0,827,0,0,0.6,0.2,1.66858830666978,1.66858830666978,750,0,0,neutral,0,1082.50442881522,3133.24459110545
53,104,1,16,-0.5,-0.5,-0.5,4,4,0.4,4,467,1,1,467,0,0,0.2,0.4,-0.646936384297487,-0.646936384297487,750,1,0,congruent,0,4633.59925588584,926.838952462418
53,104,1,17,0.5,-0.5,0,3,NaN,0.4,3,481,1,1,481,0,0,0.2,NaN,-0.556888201870982,-0.556888201870982,750,0,0,neutral,0,5911.23729508785,1453.39205150061
53,104,1,18,-0.5,0.5,-0.5,2,2,0.4,3,638,0,1,NaN,0,0,0.2,0.2,0.452937843911965,NaN,750,0,1,congruent,0,9101.96134817116,4719.26291010425
53,104,1,19,0.5,-0.5,0,3,NaN,0.2,3,666,1,1,666,1,0,0.2,NaN,0.633034208764975,0.633034208764975,750,0,0,neutral,1,3078.43384033059,2217.36221126569
53,104,1,20,0.5,0.5,-0.5,2,2,0.2,2,589,1,1,589,1,0,0.4,NaN,0.137769205419198,0.137769205419198,750,1,0,congruent,1,1438.49286444242,3719.00399970456
53,104,1,21,-0.5,-0.5,0.5,1,3,0.4,3,959,0,0,NaN,0,0,0.8,0.4,2.51761402669111,NaN,750,1,0,incongruent,0,973.448730579216,15594.8256974712
53,104,1,22,0.5,-0.5,-0.5,4,4,0.4,4,700,1,1,700,0,0,0.8,NaN,0.851722651800772,0.851722651800772,750,1,0,congruent,0,11718.845346963,1724.098010639
53,104,1,23,-0.5,-0.5,-0.5,3,3,0.4,3,505,1,1,505,0,0,0.8,0.2,-0.402519889139831,-0.402519889139831,750,1,0,congruent,0,2899.24317264011,2023.25994481165
53,104,1,24,-0.5,0.5,-0.5,4,4,0.4,4,580,1,1,580,1,0,0.8,0.2,0.0798810881450162,0.0798810881450162,750,1,0,congruent,0.1,3914.42324801633,9648.76570609089
53,104,1,25,-0.5,-0.5,-0.5,2,2,0.4,2,713,1,1,713,0,0,0.6,0.2,0.935338821196812,0.935338821196812,750,1,0,congruent,0,5400.42456463277,3012.92354354832
53,104,1,26,0.5,-0.5,-0.5,1,1,0.4,1,744,1,1,744,0,0,0.2,NaN,1.13473122514122,1.13473122514122,750,1,0,congruent,0,1122.44946257276,3212.91762209705
53,104,1,27,0.5,0.5,-0.5,2,2,0.4,2,582,1,1,582,1,0,0.2,NaN,0.0927451142059455,0.0927451142059455,750,1,0,congruent,1,2077.18861040261,2797.7370308737
53,104,1,28,0.5,-0.5,0,3,NaN,0.6,3,801,1,0,801,0,0,0.6,NaN,1.5013559678777,1.5013559678777,750,0,0,neutral,0,7480.44527092445,2162.05390614683
53,104,1,29,-0.5,-0.5,-0.5,1,1,0.6,1,702,1,1,702,0,0,0.6,0.2,0.864586677861701,0.864586677861701,750,1,0,congruent,0,1013.85361246991,1492.06330692683
53,104,1,30,0.5,0.5,0,2,NaN,0.6,2,657,1,1,657,1,0,0.4,NaN,0.575146091490793,0.575146091490793,750,0,0,neutral,1,677.262404076132,2699.73265155015
53,104,1,31,-0.5,-0.5,0.5,1,2,0.8,4,998,0,0,NaN,0,0,0.8,0,2.76846253487923,NaN,750,0,1,incongruent,0,19609.8127729773,4522.59466054793
53,104,1,32,-0.5,0.5,0,3,NaN,0.8,3,666,1,1,666,1,0,0.8,0.2,0.633034208764975,0.633034208764975,750,0,0,neutral,0.1,10135.3769901067,3437.72146730773
53,104,1,33,0.5,0.5,0.5,2,3,1,3,924,0,0,NaN,0,0,0.6,NaN,2.29249357062485,NaN,750,1,0,incongruent,0,6302.74989139149,3728.90632433586
53,104,1,34,0.5,-0.5,-0.5,4,4,0.8,4,624,1,1,624,1,0,0.6,NaN,0.36288966148546,0.36288966148546,750,1,0,congruent,1,3841.90373911683,3786.64272913248
53,104,1,35,-0.5,0.5,-0.5,1,1,0.8,1,822,1,0,822,0,0,1,0.4,1.63642824151746,1.63642824151746,750,1,0,congruent,0,2933.49429080006,3354.77218805733
53,104,1,36,0.5,0.5,0.5,2,4,0.6,4,645,0,1,NaN,0,0,0.6,NaN,0.497961935125217,NaN,750,1,0,incongruent,0,2700.01741100838,2066.98045408989
53,104,1,37,-0.5,0.5,-0.5,3,3,0.4,3,612,1,1,612,1,0,0.6,0.4,0.285705505119884,0.285705505119884,750,1,0,congruent,0.1,7804.29430858167,11401.5668226687
53,104,1,38,0.5,0.5,-0.5,2,2,0.4,2,811,1,0,811,0,0,0.6,NaN,1.56567609818235,1.56567609818235,750,1,0,congruent,0,1546.43244367154,481.502045864226
53,104,1,39,0.5,-0.5,0.5,4,3,0.2,3,740,0,1,NaN,1,0,0.6,NaN,1.10900317301936,NaN,750,1,0,incongruent,1,4484.30056459626,5772.55444495364
53,104,1,40,-0.5,0.5,0,3,NaN,0.2,2,725,0,1,NaN,0,0,0.6,0.6,1.01252297756239,NaN,750,0,1,neutral,0,12730.4888420188,11099.4726638953
53,104,1,42,-0.5,-0.5,0,3,NaN,0.2,3,551,1,1,551,0,0,0.6,0,-0.106647289738458,-0.106647289738458,750,0,0,neutral,0,2301.13201993752,1052.90713945431
53,104,1,44,-0.5,-0.5,0.5,4,3,0.2,3,844,0,0,NaN,1,0,0.6,0.2,1.77793252818768,NaN,750,1,0,incongruent,0.1,1556.39769194095,6322.42349488263
53,104,1,45,0.5,0.5,0,1,NaN,0.2,1,859,1,0,859,0,0,0.4,NaN,1.87441272364465,1.87441272364465,750,0,0,neutral,0,2666.31603477256,2124.33356335338
53,104,1,46,0.5,-0.5,-0.5,2,2,0.2,2,647,1,1,647,0,0,0.4,NaN,0.510825961186147,0.510825961186147,750,1,0,congruent,0,1323.25748474874,11793.6055491357
53,104,1,47,0.5,-0.5,-0.5,4,4,0.2,4,785,1,0,785,1,0,0.4,NaN,1.39844375939027,1.39844375939027,750,1,0,congruent,1,848.074623384646,2487.11605258981
53,104,1,48,-0.5,0.5,-0.5,2,2,0.2,2,589,1,1,589,1,0,0.8,0.6,0.137769205419198,0.137769205419198,750,1,0,congruent,0.1,1282.19421106663,3396.70315948688
53,104,1,49,0.5,-0.5,0,1,NaN,0.4,3,640,0,1,NaN,1,0,0.8,NaN,0.465801869972894,NaN,750,0,1,neutral,1,1661.54514468877,1869.93794975594
53,104,1,50,-0.5,-0.5,-0.5,2,2,0.4,2,616,1,1,616,0,0,1,0.4,0.311433557241743,0.311433557241743,750,1,0,congruent,0,2086.85805356412,3310.35451951447
53,104,1,51,-0.5,-0.5,0,1,NaN,0.4,1,727,1,1,727,1,0,1,0.4,1.02538700362332,1.02538700362332,750,0,0,neutral,0.1,700.919011228017,16601.1427727191
53,104,1,52,0.5,-0.5,-0.5,4,4,0.4,4,919,1,0,919,0,0,1.2,NaN,2.26033350547253,2.26033350547253,750,1,0,congruent,0,6059.09216635533,2052.97664100182
53,104,1,53,-0.5,-0.5,-0.5,1,1,0.4,1,633,1,1,633,1,0,0.8,0.6,0.420777778759642,0.420777778759642,750,1,0,congruent,0.1,3631.43513170959,2714.81907770889
53,104,1,54,-0.5,0.5,-0.5,3,3,0.4,3,828,1,0,828,0,0,0.8,0.6,1.67502031970024,1.67502031970024,750,1,0,congruent,0,8299.10872477712,3285.36344001631
53,104,1,55,-0.5,-0.5,-0.5,2,2,0.2,2,507,1,1,507,1,0,0.4,0.8,-0.389655863078902,-0.389655863078902,750,1,0,congruent,0.1,1436.75130582157,2044.10412019431
53,104,1,56,0.5,0.5,0,1,NaN,0.2,1,755,1,0,755,0,0,0.6,NaN,1.20548336847633,1.20548336847633,750,0,0,neutral,0,642.674315902333,9796.10267550382
53,104,1,57,-0.5,0.5,-0.5,3,3,0.2,3,574,1,1,574,1,0,0.4,0.4,0.0412890099622285,0.0412890099622285,750,1,0,congruent,0.1,3823.30840515155,2050.4926931832
53,104,1,59,-0.5,-0.5,0.5,1,2,0.4,4,855,0,0,NaN,0,0,0.4,0.8,1.84868467152279,NaN,750,0,1,incongruent,0,9383.36325530099,1434.79562054144
53,104,1,60,-0.5,0.5,0,4,NaN,0.4,3,659,0,1,NaN,0,0,0.4,0.6,0.588010117551722,NaN,750,0,1,neutral,0,7505.30266106313,4597.56579662857
53,104,1,61,-0.5,-0.5,0.5,2,3,0.2,3,914,0,0,NaN,1,0,0.2,0.6,2.2281734403202,NaN,750,1,0,incongruent,0.1,1450.44005370674,5889.23254121613
53,104,1,62,0.5,-0.5,0,3,NaN,0.2,3,641,1,1,641,0,0,0.4,NaN,0.472233883003359,0.472233883003359,750,0,0,neutral,0,6057.83134939234,8545.34125343005
53,104,1,63,0.5,-0.5,-0.5,2,2,0.2,2,535,1,1,535,0,0,0.2,NaN,-0.209559498225892,-0.209559498225892,750,1,0,congruent,0,3317.63546457078,3009.11533133245
53,104,1,64,0.5,-0.5,0,4,NaN,0.2,3,743,0,1,NaN,0,0,0.2,NaN,1.12829921211075,NaN,750,0,1,neutral,0,4423.87732544901,4865.74919390945
53,104,1,65,-0.5,-0.5,0.5,2,4,0.2,4,760,0,0,NaN,0,0,0.2,0.8,1.23764343362865,NaN,750,1,0,incongruent,0,11226.4331625069,7206.00200462284
53,104,1,66,0.5,0.5,-0.5,3,3,0.2,3,668,1,1,668,1,0,0.2,NaN,0.645898234825904,0.645898234825904,750,1,0,congruent,1,6860.86544110711,2103.02960690082
53,104,1,67,0.5,0.5,0,2,NaN,0.4,2,678,1,1,678,1,0,0.4,NaN,0.71021836513055,0.71021836513055,750,0,0,neutral,1,8834.53545768745,1634.50362563949
53,104,1,68,-0.5,-0.5,0.5,1,3,0.6,1,731,1,1,731,1,0,0.8,0.6,1.05111505574518,1.05111505574518,750,0,0,incongruent,0.1,3291.17172914828,4191.27902160274
53,104,1,69,0.5,-0.5,0.5,2,4,0.6,4,826,0,0,NaN,0,0,1,NaN,1.66215629363932,NaN,750,1,0,incongruent,0,4793.37956508249,2894.85159533417
53,104,1,70,-0.5,-0.5,0.5,1,3,0.6,2,632,0,1,NaN,1,0,1,0.6,0.414345765729177,NaN,750,0,1,incongruent,0.1,3329.51609332427,3322.58666109907
53,104,1,71,-0.5,-0.5,-0.5,2,2,0.6,2,563,1,1,563,0,0,1.2,0.6,-0.0294631333728825,-0.0294631333728825,750,1,0,congruent,0,3465.16616804562,2708.55466536156
53,104,1,72,0.5,0.5,0.5,3,4,0.6,4,889,0,0,NaN,0,0,0.8,NaN,2.06737311455859,NaN,750,1,0,incongruent,0,4530.67317259548,3054.66537493912
53,104,1,73,-0.5,-0.5,-0.5,2,2,0.4,2,616,1,1,616,1,0,0.4,0.6,0.311433557241743,0.311433557241743,750,1,0,congruent,0.1,2655.44117288191,2707.09156249721
53,104,1,74,0.5,-0.5,0,1,NaN,0.4,1,743,1,1,743,0,0,0.4,NaN,1.12829921211075,1.12829921211075,750,0,0,neutral,0,10085.2157016794,2476.95859735577
53,104,1,75,0.5,0.5,-0.5,3,3,0.4,3,663,1,1,663,1,0,0.4,NaN,0.613738169673581,0.613738169673581,750,1,0,congruent,1,1443.36072447688,2303.1400409517
53,104,1,77,0.5,0.5,0,2,NaN,0.6,2,611,1,1,611,1,0,1,NaN,0.27927349208942,0.27927349208942,750,0,0,neutral,1,11468.3628510764,2112.99560620412
53,104,1,78,-0.5,-0.5,-0.5,3,3,0.8,4,954,0,0,NaN,1,0,1.4,0.6,2.48545396153879,NaN,750,0,1,congruent,0.1,1090.77666737374,3596.40185034505
53,104,1,80,-0.5,0.5,0,3,NaN,0.6,2,546,0,1,NaN,0,0,1.4,0.4,-0.138807354890781,NaN,750,0,1,neutral,0,4040.73369372177,2833.5052043792
53,104,1,81,0.5,-0.5,-0.5,2,2,0.4,2,864,1,0,864,0,0,1,NaN,1.90657278879697,1.90657278879697,750,1,0,congruent,0,2073.10673138597,432.741929299532
53,104,1,82,-0.5,0.5,0,3,NaN,0.4,2,566,0,1,NaN,0,0,0.6,0.2,-0.0101670942814886,NaN,750,0,1,neutral,0,14726.7543595087,1254.87796445175
53,104,1,83,0.5,0.5,0.5,1,2,0.4,1,808,1,0,808,0,0,0.2,NaN,1.54638005909095,1.54638005909095,750,0,0,incongruent,0,6108.05384012608,6343.37690740386
53,104,1,84,0.5,0.5,0,2,NaN,0.2,2,690,1,1,690,1,0,0,NaN,0.787402521496126,0.787402521496126,750,0,0,neutral,1,3459.96763393953,3674.30688492413
53,104,1,85,-0.5,-0.5,-0.5,4,4,0.2,4,582,1,1,582,0,0,0.4,0.8,0.0927451142059455,0.0927451142059455,750,1,0,congruent,0,3629.47402499915,2738.37790914091
53,104,1,86,-0.5,-0.5,-0.5,2,2,0.2,3,503,0,1,NaN,0,0,0.4,0.6,-0.41538391520076,NaN,750,0,1,congruent,0,8745.5531035016,2114.67346081341
53,104,1,87,-0.5,0.5,-0.5,4,4,0.2,4,635,1,1,635,1,0,0.4,0.2,0.433641804820571,0.433641804820571,750,1,0,congruent,0.1,1746.15048617155,2096.13829136413
53,104,1,88,-0.5,0.5,0,3,NaN,0.4,3,722,1,1,722,1,0,0.6,0.2,0.993226938470994,0.993226938470994,750,0,0,neutral,0.1,3637.89933047264,863.430715274011
53,104,1,89,-0.5,-0.5,-0.5,2,2,0.6,2,565,1,1,565,1,0,0.8,0.4,-0.0165991073119532,-0.0165991073119532,750,1,0,congruent,0.1,3677.75659604849,1993.1240726888
53,104,1,90,-0.5,-0.5,0,4,NaN,0.6,4,581,1,1,581,0,0,0.6,0.6,0.0863131011754809,0.0863131011754809,750,0,0,neutral,0,6923.27807370381,2167.22822924935
53,104,1,91,-0.5,-0.5,-0.5,3,3,0.6,1,734,0,1,NaN,1,0,0.6,0.4,1.07041109483657,NaN,750,0,1,congruent,0.1,10771.1861866521,2712.72001819089
53,104,1,92,-0.5,0.5,-0.5,4,4,0.6,4,577,1,1,577,1,0,0.8,0.4,0.0605850490536224,0.0605850490536224,750,1,0,congruent,0.1,4380.6628560128,6747.16460732637
53,104,1,93,0.5,-0.5,0.5,1,3,0.8,4,711,0,1,NaN,1,0,0.8,NaN,0.922474795135883,NaN,750,0,1,incongruent,1,2422.2070971964,2235.66662491052
53,104,1,94,-0.5,0.5,0,2,NaN,0.8,2,688,1,1,688,1,0,1,0.6,0.774538495435196,0.774538495435196,750,0,0,neutral,0.1,1105.68838355167,2825.06542792474
53,104,1,95,-0.5,-0.5,-0.5,4,4,1,4,591,1,1,591,1,0,1,0.4,0.150633231480127,0.150633231480127,750,1,0,congruent,0.1,5144.98183444109,4786.52331452995
53,104,1,96,0.5,0.5,-0.5,2,2,1,2,505,1,1,505,1,0,1.2,NaN,-0.402519889139831,-0.402519889139831,750,1,0,congruent,1,8683.49547676155,1293.18286877742
53,104,1,98,0.5,0.5,-0.5,3,3,1,3,594,1,1,594,1,0,1.6,NaN,0.169929270571521,0.169929270571521,750,1,0,congruent,1,5857.77683828372,2781.61592616093
53,104,1,101,-0.5,-0.5,-0.5,1,1,0.8,2,642,0,1,NaN,1,0,1.4,0.8,0.478665896033823,NaN,750,0,1,congruent,0.1,5104.368586954,2818.8587563275
53,104,1,102,-0.5,-0.5,0.5,4,3,0.8,4,602,1,1,602,1,0,1.2,0.8,0.221385374815238,0.221385374815238,750,0,0,incongruent,0.1,6944.21633266571,6319.64415554957
53,104,1,103,0.5,0.5,-0.5,2,2,0.8,3,407,0,1,NaN,0,0,1,NaN,-1.03285716612536,NaN,750,0,1,congruent,0,7754.46901698404,608.350210338026
53,104,1,104,-0.5,-0.5,0.5,1,3,0.6,3,778,0,0,NaN,0,0,0.6,1,1.35341966817701,NaN,750,1,0,incongruent,0,1898.82680519226,4287.6595211346
53,104,1,105,0.5,-0.5,0.5,2,4,0.6,4,750,0,1,NaN,1,0,0.4,NaN,1.173323303324,NaN,750,1,0,incongruent,1,5504.19058792875,3796.47993486076
53,104,1,106,0.5,-0.5,0,4,NaN,0.6,3,884,0,0,NaN,0,0,0.8,NaN,2.03521304940626,NaN,750,0,1,neutral,0,5758.38922020228,5856.01093589663
53,104,1,107,0.5,0.5,0.5,3,2,0.6,2,878,0,0,NaN,0,0,0.6,NaN,1.99662097122348,NaN,750,1,0,incongruent,0,4246.67164002595,1931.61990963665
53,104,1,108,-0.5,-0.5,-0.5,1,1,0.4,1,661,1,1,661,0,0,0.4,0.8,0.600874143612651,0.600874143612651,750,1,0,congruent,0,11908.9794902221,4238.47207653764
53,104,1,109,-0.5,0.5,0.5,2,3,0.4,4,745,0,1,NaN,0,0,0.4,0.8,1.14116323817168,NaN,750,0,1,incongruent,0,6102.70851796496,9526.79191451621
53,104,1,111,0.5,-0.5,-0.5,4,4,0,4,606,1,1,606,0,0,0,NaN,0.247113426937097,0.247113426937097,750,1,0,congruent,0,5853.57538858971,2907.4400660809
53,104,1,112,0.5,-0.5,-0.5,2,2,0,2,587,1,1,587,0,0,0,NaN,0.124905179358269,0.124905179358269,750,1,0,congruent,0,8032.65405932429,1073.49523381963
53,104,1,113,0.5,0.5,0,3,NaN,0,3,603,1,1,603,1,0,0,NaN,0.227817387845703,0.227817387845703,750,0,0,neutral,1,5418.40898711871,3682.69354157395
53,104,1,114,0.5,-0.5,-0.5,1,1,0.2,4,881,0,0,NaN,1,0,0.4,NaN,2.01591701031487,NaN,750,0,1,congruent,1,11866.0174772127,3181.81719491474
53,104,1,115,-0.5,-0.5,-0.5,3,3,0.2,4,764,0,0,NaN,1,0,0.8,0.6,1.26337148575051,NaN,750,0,1,congruent,0.1,12070.7319115769,1588.62328024407
53,104,1,116,0.5,0.5,0,2,NaN,0.2,2,608,1,1,608,1,0,1,NaN,0.259977452998026,0.259977452998026,750,0,0,neutral,1,4436.38289858212,6060.32069921569
53,104,1,118,-0.5,0.5,0,1,NaN,0.4,2,604,0,1,NaN,0,0,1.8,0.8,0.234249400876167,NaN,750,0,1,neutral,0,4532.91967354656,3829.88158857371
53,104,1,119,-0.5,-0.5,0.5,4,2,0.4,4,634,1,1,634,0,0,1.4,0.6,0.427209791790106,0.427209791790106,750,0,0,incongruent,0,1393.91052403352,2666.7687309674
53,104,1,120,0.5,-0.5,-0.5,3,3,0.4,3,590,1,1,590,0,0,1,NaN,0.144201218449663,0.144201218449663,750,1,0,congruent,0,8973.00047584278,1599.52117864607
53,104,1,121,-0.5,-0.5,0,2,NaN,0.4,2,551,1,1,551,1,0,0.8,0.4,-0.106647289738458,-0.106647289738458,750,0,0,neutral,0.1,5517.87857145217,3538.87501893089
53,104,1,123,0.5,0.5,-0.5,4,4,0.4,4,652,1,1,652,1,0,0.2,NaN,0.54298602633847,0.54298602633847,750,1,0,congruent,1,3260.53169490293,1152.10735199282
53,104,1,124,0.5,0.5,-0.5,3,3,0.6,3,710,1,1,710,1,0,0.6,NaN,0.916042782105418,0.916042782105418,750,1,0,congruent,1,2048.64007915438,1903.84399974392
53,104,1,125,0.5,0.5,0,1,NaN,0.6,1,679,1,1,679,1,0,1,NaN,0.716650378161015,0.716650378161015,750,0,0,neutral,1,2762.38008822822,705.163077385577
53,104,1,126,-0.5,0.5,-0.5,4,4,0.6,4,563,1,1,563,1,0,1.4,0.6,-0.0294631333728825,-0.0294631333728825,750,1,0,congruent,0.1,5132.47211403679,8469.19728579116
53,104,1,127,0.5,0.5,-0.5,3,3,0.8,3,609,1,1,609,1,0,1.4,NaN,0.266409466028491,0.266409466028491,750,1,0,congruent,1,1807.73818319101,8890.28699922596
53,104,1,128,0.5,-0.5,0.5,2,1,1,2,647,1,1,647,1,0,1.8,NaN,0.510825961186147,0.510825961186147,750,0,0,incongruent,1,5383.5790556588,12018.6495879948
53,104,1,129,-0.5,0.5,0.5,1,2,1,1,349,1,1,349,1,0,1.8,0.6,-1.40591392189231,-1.40591392189231,750,0,0,incongruent,0.1,2367.17812558019,1890.89174817533
53,104,1,130,-0.5,0.5,0.5,3,4,1,4,583,0,1,NaN,0,0,1.6,0.6,0.0991771272364101,NaN,750,1,0,incongruent,0,3644.02888538364,5257.03955568874
53,104,1,131,0.5,0.5,0,4,NaN,0.8,4,368,1,1,368,1,0,1.2,NaN,-1.28370567431349,-1.28370567431349,750,0,0,neutral,1,5568.54878168775,4651.26335253818
53,104,1,132,0.5,-0.5,-0.5,2,2,0.8,2,318,1,1,318,1,0,1.4,NaN,-1.60530632583672,-1.60530632583672,750,1,0,congruent,1,9275.73554027629,3038.94927878687
53,104,1,133,-0.5,-0.5,0,4,NaN,0.8,1,246,0,1,NaN,1,0,1.4,0.4,-2.06841126403017,NaN,750,0,1,neutral,0.1,4563.69019716215,3106.17648661667
53,104,1,134,-0.5,-0.5,-0.5,2,2,0.8,2,551,1,1,551,1,0,1.2,0.6,-0.106647289738458,-0.106647289738458,750,1,0,congruent,0.1,5928.90570761492,4719.17971988352
53,104,1,135,0.5,-0.5,-0.5,3,3,0.8,3,525,1,1,525,1,0,1.2,NaN,-0.273879628530538,-0.273879628530538,750,1,0,congruent,1,5971.20301233661,1328.69496950003
53,104,1,136,0.5,-0.5,0,1,NaN,0.8,2,556,0,1,NaN,1,0,1.6,NaN,-0.0744872245861349,NaN,750,0,1,neutral,1,6312.28770272902,2573.02930342346
53,104,1,137,0.5,-0.5,-0.5,4,4,0.8,4,558,1,1,558,0,0,1.6,NaN,-0.0616231985252056,-0.0616231985252056,750,1,0,congruent,0,22234.4950418187,4420.29858136334
53,104,1,138,0.5,0.5,0,2,NaN,0.8,2,808,1,0,808,0,0,1.2,NaN,1.54638005909095,1.54638005909095,750,0,0,neutral,0,10922.8954788892,1922.14089092081
53,104,1,139,-0.5,-0.5,-0.5,4,4,0.6,4,851,1,0,851,1,0,1,0.8,1.82295661940093,1.82295661940093,750,1,0,congruent,0.1,1613.88530124314,11030.0163749762
53,104,1,140,-0.5,0.5,0.5,3,1,0.6,3,708,1,1,708,1,0,1,0.4,0.903178756044489,0.903178756044489,750,0,0,incongruent,0.1,6768.26130511607,1932.59263413153
53,104,1,141,-0.5,-0.5,0,4,NaN,0.6,4,643,1,1,643,0,0,0.8,0.8,0.485097909064288,0.485097909064288,750,0,0,neutral,0,7368.65041934161,3837.74640076482
53,104,1,142,-0.5,0.5,-0.5,3,3,0.6,3,778,1,0,778,0,0,0.4,0.6,1.35341966817701,1.35341966817701,750,1,0,congruent,0,2690.37225980393,1096.34260575379
53,104,1,144,-0.5,-0.5,-0.5,2,2,0.4,1,701,0,1,NaN,0,0,0.4,0.8,0.858154664831237,NaN,750,0,1,congruent,0,3895.56598459642,4988.6146462216
53,104,1,145,-0.5,-0.5,0.5,1,3,0.4,4,506,0,1,NaN,0,0,0.2,0.6,-0.396087876109366,NaN,750,0,1,incongruent,0,7281.31822735864,2297.78745408451
53,104,1,146,-0.5,-0.5,0.5,4,2,0.4,2,872,0,0,NaN,0,0,0,0.4,1.95802889304069,NaN,750,1,0,incongruent,0,1506.42135702451,2337.48813527864
53,104,1,147,-0.5,-0.5,0,1,NaN,0.4,1,650,1,1,650,0,0,0,0.2,0.53012200027754,0.53012200027754,750,0,0,neutral,0,1290.98787083522,2288.0521742176
53,104,1,148,-0.5,0.5,0.5,3,2,0.4,3,403,1,1,403,1,0,0,0.6,-1.05858521824722,-1.05858521824722,750,0,0,incongruent,0.1,15042.969432342,2841.29188295177
53,104,1,149,0.5,-0.5,-0.5,4,4,0.6,4,500,1,1,500,0,0,0.2,NaN,-0.434679954292154,-0.434679954292154,750,1,0,congruent,0,4423.51166881747,7127.2029011543
53,104,1,150,0.5,-0.5,0,3,NaN,0.6,2,741,0,1,NaN,0,0,0.2,NaN,1.11543518604982,NaN,750,0,1,neutral,0,9810.42412248294,7176.39551082205
53,104,2,152,-0.5,0.5,0,3,NaN,0.6,4,348,0,1,NaN,0,0,0.2,0.6,-1.41234593492278,NaN,750,0,1,neutral,0,13179.4639262784,1438.64490121352
53,104,2,153,-0.5,-0.5,-0.5,1,1,0.4,1,582,1,1,582,1,0,0.2,0,0.0927451142059455,0.0927451142059455,750,1,0,congruent,0.1,6420.5685040115,1516.92824542289
53,104,2,154,-0.5,0.5,0.5,4,3,0.4,3,706,0,1,NaN,0,0,0.2,0.4,0.89031472998356,NaN,750,1,0,incongruent,0,3003.26870009004,3709.12768333656
53,104,2,156,0.5,0.5,0.5,2,3,0.4,4,639,0,1,NaN,0,0,0.6,NaN,0.459369856942429,NaN,750,0,1,incongruent,0,3801.56469433999,6123.02046011498
53,104,2,157,-0.5,-0.5,0,3,NaN,0.4,3,515,1,1,515,0,0,0.6,0.2,-0.338199758835185,-0.338199758835185,750,0,0,neutral,0,8365.96327080997,7545.97420338378
53,104,2,158,0.5,-0.5,-0.5,2,2,0.4,2,717,1,1,717,0,0,0.6,NaN,0.961066873318671,0.961066873318671,750,1,0,congruent,0,1031.91372225357,2200.98329597014
53,104,2,159,0.5,0.5,-0.5,1,1,0.4,1,729,1,1,729,1,0,0.4,NaN,1.03825102968425,1.03825102968425,750,1,0,congruent,1,8859.93754936859,12069.8439440835
53,104,2,160,0.5,-0.5,0,2,NaN,0.4,1,614,0,1,NaN,0,0,0.8,NaN,0.298569531180814,NaN,750,0,1,neutral,0,7272.29606455985,6583.11359626188
53,104,2,161,0.5,0.5,-0.5,1,1,0.4,2,514,0,1,NaN,0,0,0.4,NaN,-0.344631771865649,NaN,750,0,1,congruent,0,2329.74857537121,4679.00438325005
53,104,2,162,-0.5,0.5,-0.5,2,2,0.4,1,552,0,1,NaN,0,0,0.4,0.4,-0.100215276707993,NaN,750,0,1,congruent,0,2760.32099029189,971.746328086926
53,104,2,163,0.5,0.5,0.5,1,3,0.4,4,622,0,1,NaN,0,0,0.4,NaN,0.350025635424531,NaN,750,0,1,incongruent,0,2065.72856060239,6152.37910394022
53,104,2,164,0.5,0.5,-0.5,2,2,0.2,3,604,0,1,NaN,0,0,0.4,NaN,0.234249400876167,NaN,750,0,1,congruent,0,3344.51663126452,2066.74026767028
53,104,2,165,-0.5,0.5,0.5,1,4,0.2,4,858,0,0,NaN,0,0,0,0.2,1.86798071061418,NaN,750,1,0,incongruent,0,15359.0215693759,1915.15281556121
53,104,2,166,-0.5,0.5,0,3,NaN,0,3,479,1,1,479,1,0,0,0.2,-0.569752227931911,-0.569752227931911,750,0,0,neutral,0.1,2164.78847938551,1848.28750162496
53,104,2,167,-0.5,-0.5,-0.5,1,1,0.2,2,640,0,1,NaN,0,0,0.2,0.2,0.465801869972894,NaN,750,0,1,congruent,0,2261.68885712751,2277.92356036351
53,104,2,168,0.5,0.5,0.5,4,3,0.2,3,646,0,1,NaN,0,0,0.2,NaN,0.504393948155682,NaN,750,1,0,incongruent,0,4691.19396902395,1978.24344836554
53,104,2,169,0.5,0.5,0.5,1,4,0.2,1,775,1,0,775,0,0,0.2,NaN,1.33412362908562,1.33412362908562,750,0,0,incongruent,0,4740.43331874485,2322.89059988239
53,104,2,170,-0.5,0.5,-0.5,2,2,0.2,2,575,1,1,575,1,0,0.2,0.2,0.0477210229926931,0.0477210229926931,750,1,0,congruent,0.1,997.545563002767,1570.5978111754
53,104,2,171,0.5,0.5,0,3,NaN,0.4,3,607,1,1,607,1,0,0.4,NaN,0.253545439967561,0.253545439967561,750,0,0,neutral,1,11358.3497228164,1905.38719573999
53,104,2,172,0.5,-0.5,-0.5,2,2,0.6,2,541,1,1,541,1,0,0.6,NaN,-0.170967420043104,-0.170967420043104,750,1,0,congruent,1,7516.48421372006,14373.3794952254
53,104,2,173,-0.5,-0.5,0,3,NaN,0.6,3,487,1,1,487,1,0,1,0.2,-0.518296123688194,-0.518296123688194,750,0,0,neutral,0.1,2748.60048695471,3932.81691439983
53,104,2,174,-0.5,-0.5,0.5,4,2,0.6,3,927,0,0,NaN,1,0,1.2,0.4,2.31178960971624,NaN,750,0,1,incongruent,0.1,4637.0887954615,2826.20042830804
53,104,2,176,-0.5,0.5,-0.5,4,4,0.4,3,804,0,0,NaN,0,0,1.2,0.4,1.52065200696909,NaN,750,0,1,congruent,0,6368.42152741864,5456.40221437239
53,104,2,178,-0.5,-0.5,0.5,4,2,0.4,3,408,0,1,NaN,1,0,0.4,0.6,-1.0264251530949,NaN,750,0,1,incongruent,0.1,4870.67973716568,3136.41048814992
53,104,2,179,0.5,-0.5,0.5,2,4,0.4,2,711,1,1,711,0,0,0.4,NaN,0.922474795135883,0.922474795135883,750,0,0,incongruent,0,9899.35620864295,888.725898799934
53,104,2,180,0.5,0.5,-0.5,1,1,0.4,1,585,1,1,585,1,0,0.2,NaN,0.112041153297339,0.112041153297339,750,1,0,congruent,1,3343.92593620524,9875.41832119484
53,104,2,181,-0.5,0.5,0.5,4,2,0.6,4,602,1,1,602,1,0,0.6,0.4,0.221385374815238,0.221385374815238,750,0,0,incongruent,0.1,5292.92089365834,1749.72110570785
53,104,2,182,0.5,-0.5,0,1,NaN,0.6,1,618,1,1,618,0,0,0.8,NaN,0.324297583302672,0.324297583302672,750,0,0,neutral,0,1855.01392738862,671.283037855896
53,104,2,184,0.5,-0.5,-0.5,2,2,0.4,3,586,0,1,NaN,0,0,0.6,NaN,0.118473166327804,NaN,750,0,1,congruent,0,9031.88158074714,974.537548305999
53,104,2,185,0.5,-0.5,-0.5,3,3,0.4,2,480,0,1,NaN,1,0,0.6,NaN,-0.563320214901447,NaN,750,0,1,congruent,1,3872.82531882416,1668.39701361828
53,104,2,186,0.5,0.5,-0.5,4,4,0.4,4,640,1,1,640,1,0,0.6,NaN,0.465801869972894,0.465801869972894,750,1,0,congruent,1,8714.08262926629,3050.31198304989
53,104,2,187,-0.5,0.5,-0.5,2,2,0.6,2,525,1,1,525,1,0,0.8,0.6,-0.273879628530538,-0.273879628530538,750,1,0,congruent,0.1,5144.09014089799,2235.89652507486
53,104,2,188,0.5,0.5,-0.5,1,1,0.8,1,672,1,1,672,1,0,1,NaN,0.671626286947762,0.671626286947762,750,1,0,congruent,1,1988.74465263738,8536.97690520132
53,104,2,189,-0.5,0.5,0,2,NaN,0.8,2,684,1,1,684,1,0,1.4,0.8,0.748810443313338,0.748810443313338,750,0,0,neutral,0.1,1251.59251061435,7573.22677861456
53,104,2,190,0.5,0.5,0.5,4,1,0.8,4,572,1,1,572,1,0,1.6,NaN,0.0284249839012992,0.0284249839012992,750,0,0,incongruent,1,10034.1348497491,7781.15161042792
53,104,2,192,-0.5,-0.5,0.5,3,2,1,3,571,1,1,571,1,0,1.6,0.6,0.0219929708708346,0.0219929708708346,750,0,0,incongruent,0.1,2528.98838080247,2311.62603276158
53,104,2,193,0.5,-0.5,0,4,NaN,1,4,348,1,1,348,1,0,1.6,NaN,-1.41234593492278,-1.41234593492278,750,0,0,neutral,1,1902.14236890226,822.071558468459
53,104,2,194,-0.5,-0.5,0.5,3,4,1,3,518,1,1,518,1,0,1.6,0.8,-0.318903719743791,-0.318903719743791,750,0,0,incongruent,0.1,2718.48005309844,2867.59609198514
53,104,2,195,0.5,-0.5,-0.5,1,1,1,1,453,1,1,453,1,0,1.6,NaN,-0.736984566723992,-0.736984566723992,750,1,0,congruent,1,1512.62520287606,3265.79887034992
53,104,2,196,-0.5,0.5,-0.5,2,2,1,2,400,1,1,400,1,0,1.6,0.8,-1.07788125733862,-1.07788125733862,750,1,0,congruent,0.1,8837.75393009864,1987.82447942899
53,104,2,197,-0.5,0.5,-0.5,3,3,1,3,476,1,1,476,1,0,1.4,0.8,-0.589048267023305,-0.589048267023305,750,1,0,congruent,0.1,5497.42895451214,1142.04275979292
53,104,2,198,0.5,0.5,0,2,NaN,1,2,498,1,1,498,1,0,1.4,NaN,-0.447543980353083,-0.447543980353083,750,0,0,neutral,1,3206.18964650832,2049.50827019375
53,104,2,199,0.5,-0.5,0.5,4,3,1,4,647,1,1,647,1,0,1.4,NaN,0.510825961186147,0.510825961186147,750,0,0,incongruent,1,4633.44191562707,2367.57855197978
53,104,2,200,0.5,-0.5,0.5,1,2,1,1,331,1,1,331,1,0,1.6,NaN,-1.52169015644068,-1.52169015644068,750,0,0,incongruent,1,1962.2434186455,3174.0443435905
53,104,2,201,0.5,0.5,0,2,NaN,1,2,424,1,1,424,1,0,1.6,NaN,-0.923512944607466,-0.923512944607466,750,0,0,neutral,1,5412.44649119081,3680.65689070492
53,104,2,202,0.5,-0.5,0.5,1,3,1,3,604,0,1,NaN,1,0,1.8,NaN,0.234249400876167,NaN,750,1,0,incongruent,1,1735.53500342057,4796.24260121227
53,104,2,203,-0.5,0.5,-0.5,4,4,1,1,418,0,1,NaN,0,0,2,1,-0.962105022790254,NaN,750,0,1,congruent,0,5198.83450569094,3665.59031758026
53,104,2,204,0.5,-0.5,-0.5,2,2,0.8,2,551,1,1,551,1,0,1.6,NaN,-0.106647289738458,-0.106647289738458,750,1,0,congruent,1,5413.32262501756,4524.25612355432
53,104,2,205,0.5,-0.5,0.5,1,3,0.8,4,655,0,1,NaN,1,0,1.6,NaN,0.562282065429864,NaN,750,0,1,incongruent,1,5595.95286405009,11351.9878337952
53,104,2,206,-0.5,0.5,0.5,3,1,0.8,3,641,1,1,641,1,0,1.6,0.8,0.472233883003359,0.472233883003359,750,0,0,incongruent,0.1,7685.39643295108,3442.1145897618
53,104,2,207,0.5,-0.5,0,4,NaN,0.8,1,557,0,1,NaN,1,0,1.4,NaN,-0.0680552115556703,NaN,750,0,1,neutral,1,1895.85431999583,6391.38798578887
53,104,2,208,-0.5,-0.5,-0.5,1,1,0.8,1,567,1,1,567,1,0,1.4,1,-0.00373508125102396,-0.00373508125102396,750,1,0,congruent,0.1,2778.06244653487,4065.37317777599
53,104,2,209,0.5,-0.5,0,2,NaN,0.8,2,637,1,1,637,1,0,1.6,NaN,0.4465058308815,0.4465058308815,750,0,0,neutral,1,3809.45080800599,618.22154133506
53,104,2,210,-0.5,-0.5,0.5,1,2,0.8,2,626,0,1,NaN,1,0,1.6,1,0.375753687546389,NaN,750,1,0,incongruent,0.1,3983.32918300114,4154.12171888546
53,104,2,211,0.5,-0.5,-0.5,4,4,0.8,4,508,1,1,508,1,0,1.4,NaN,-0.383223850048437,-0.383223850048437,750,1,0,congruent,1,11947.4682533073,1826.42001366612
53,104,2,212,-0.5,0.5,-0.5,1,1,0.8,2,619,0,1,NaN,0,0,1.6,0.8,0.330729596333137,NaN,750,0,1,congruent,0,6058.01610327075,7746.35428585041
53,104,2,213,-0.5,-0.5,-0.5,2,2,0.6,1,506,0,1,NaN,1,0,1.2,1,-0.396087876109366,NaN,750,0,1,congruent,0.1,1333.84274803966,1133.4001555999
53,104,2,214,-0.5,-0.5,0.5,4,1,0.6,4,537,1,1,537,0,0,1.2,1,-0.196695472164963,-0.196695472164963,750,0,0,incongruent,0,6476.69347701597,2537.95224882421
53,104,2,215,0.5,0.5,0.5,3,2,0.6,3,582,1,1,582,1,0,0.8,NaN,0.0927451142059455,0.0927451142059455,750,0,0,incongruent,1,4598.02260175728,1552.42599917996
53,104,2,216,-0.5,0.5,0,1,NaN,0.6,1,424,1,1,424,1,0,1,0.6,-0.923512944607466,-0.923512944607466,750,0,0,neutral,0.1,4975.72048780867,2309.01930613427
53,104,2,217,-0.5,0.5,0.5,3,1,0.6,3,573,1,1,573,1,0,0.8,0.6,0.0348569969317638,0.0348569969317638,750,0,0,incongruent,0.1,7769.8850605017,1773.72244624357
53,104,2,218,0.5,-0.5,-0.5,2,2,0.8,2,606,1,1,606,1,0,1,NaN,0.247113426937097,0.247113426937097,750,1,0,congruent,1,2825.90261864225,5078.67357928098
53,104,2,219,0.5,-0.5,0,3,NaN,0.8,2,495,0,1,NaN,1,0,1.2,NaN,-0.466840019444477,NaN,750,0,1,neutral,1,9875.91319677277,3006.4508451021
53,104,2,220,0.5,-0.5,-0.5,1,1,0.8,3,524,0,1,NaN,1,0,1.6,NaN,-0.280311641561003,NaN,750,0,1,congruent,1,5742.71940855294,1908.26369447507
53,104,2,222,-0.5,-0.5,0.5,1,2,0.8,1,536,1,1,536,1,0,1.8,0.8,-0.203127485195428,-0.203127485195428,750,0,0,incongruent,0.1,15741.1631706489,2058.063541057
53,104,2,223,0.5,-0.5,0.5,2,1,0.8,2,484,1,1,484,0,0,1.8,NaN,-0.537592162779588,-0.537592162779588,750,0,0,incongruent,0,9278.65488579093,2530.31567732206
53,104,2,224,0.5,0.5,0.5,3,2,0.8,3,600,1,1,600,1,0,1.4,NaN,0.208521348754309,0.208521348754309,750,0,0,incongruent,1,6220.01456116516,3585.49439004105
53,104,2,225,-0.5,-0.5,-0.5,1,1,0.8,1,551,1,1,551,1,0,1.4,0.8,-0.106647289738458,-0.106647289738458,750,1,0,congruent,0.1,5627.38499888989,5251.00730408778
53,104,2,226,-0.5,-0.5,0,4,NaN,0.8,4,846,1,0,846,1,0,1.2,0.8,1.79079655424861,1.79079655424861,750,0,0,neutral,0.1,1358.23839367616,1461.66917461691
53,104,2,227,-0.5,0.5,0.5,3,2,0.8,3,587,1,1,587,1,0,1,0.6,0.124905179358269,0.124905179358269,750,0,0,incongruent,0.1,841.04021556572,7002.24856798159
53,104,2,229,-0.5,-0.5,0.5,4,1,0.8,4,563,1,1,563,1,0,1,0.8,-0.0294631333728825,-0.0294631333728825,750,0,0,incongruent,0.1,1773.33335373882,4810.20995772651
53,104,2,230,-0.5,-0.5,0.5,2,4,0.8,3,503,0,1,NaN,1,0,0.8,0.8,-0.41538391520076,NaN,750,0,1,incongruent,0.1,2562.96795670928,713.382129879194
53,104,2,232,-0.5,-0.5,-0.5,3,3,0.8,3,554,1,1,554,0,0,0.8,1,-0.0873512506470642,-0.0873512506470642,750,1,0,congruent,0,4430.73103591999,2962.70327426881
53,104,2,233,0.5,-0.5,0,1,NaN,0.8,1,503,1,1,503,1,0,0.6,NaN,-0.41538391520076,-0.41538391520076,750,0,0,neutral,1,3986.67464137591,3194.99772632008
53,104,2,234,-0.5,-0.5,0.5,3,1,0.8,4,414,0,1,NaN,1,0,1,0.8,-0.987833074912112,NaN,750,0,1,incongruent,0.1,2995.27546729765,2509.8730281212
53,104,2,235,0.5,-0.5,0.5,1,3,0.8,3,453,0,1,NaN,1,0,1,NaN,-0.736984566723992,NaN,750,1,0,incongruent,1,7078.36111962901,1596.07098250969
53,104,2,236,0.5,0.5,0,3,NaN,0.8,1,487,0,1,NaN,0,0,1.2,NaN,-0.518296123688194,NaN,750,0,1,neutral,0,5583.31393209743,4066.24269341697
53,104,2,237,0.5,-0.5,-0.5,4,4,0.6,4,493,1,1,493,1,0,1,NaN,-0.479704045505407,-0.479704045505407,750,1,0,congruent,1,938.686950667886,953.470825901829
53,104,2,238,0.5,0.5,0,2,NaN,0.6,3,402,0,1,NaN,0,0,1.4,NaN,-1.06501723127769,NaN,750,0,1,neutral,0,5831.7060944368,751.185494078887
53,104,2,239,-0.5,-0.5,-0.5,1,1,0.4,1,696,1,1,696,0,0,1,0.8,0.825994599678913,0.825994599678913,750,1,0,congruent,0,4073.82397700704,4058.14565336518
53,104,2,240,0.5,0.5,0.5,4,3,0.4,4,530,1,1,530,1,0,0.8,NaN,-0.241719563378215,-0.241719563378215,750,0,0,incongruent,1,2176.59592773909,2803.93855946114
53,104,2,241,-0.5,-0.5,0.5,3,4,0.4,3,525,1,1,525,0,0,0.8,0.6,-0.273879628530538,-0.273879628530538,750,0,0,incongruent,0,1222.59418399923,1797.73943334937
53,104,2,242,0.5,-0.5,0,2,NaN,0.4,1,530,0,1,NaN,1,0,0.8,NaN,-0.241719563378215,NaN,750,0,1,neutral,1,2320.41320335068,690.947250349378
53,104,2,243,-0.5,0.5,-0.5,3,3,0.4,4,373,0,1,NaN,0,0,0.8,0.8,-1.25154560916116,NaN,750,0,1,congruent,0,1942.26220449174,5180.13814151047
53,104,2,244,0.5,-0.5,0.5,1,4,0.2,4,625,0,1,NaN,0,0,0.8,NaN,0.369321674515925,NaN,750,1,0,incongruent,0,5259.59680293584,2578.31587977956
53,104,2,245,0.5,-0.5,-0.5,2,2,0.2,2,661,1,1,661,1,0,0.8,NaN,0.600874143612651,0.600874143612651,750,1,0,congruent,1,1155.16521700122,2865.85797353681
53,104,2,246,-0.5,0.5,0,1,NaN,0.2,1,526,1,1,526,1,0,0.8,0.6,-0.267447615500074,-0.267447615500074,750,0,0,neutral,0.1,7594.06206203913,868.426904308087
53,104,2,248,0.5,-0.5,0,4,NaN,0.4,4,581,1,1,581,0,0,0.6,NaN,0.0863131011754809,0.0863131011754809,750,0,0,neutral,0,5845.56329542693,1276.37434452578
53,104,2,249,-0.5,-0.5,-0.5,2,2,0.4,2,470,1,1,470,1,0,0.6,0.4,-0.627640345206093,-0.627640345206093,750,1,0,congruent,0.1,7777.76701348453,1001.5954358112
53,104,2,250,-0.5,-0.5,0.5,4,3,0.4,4,698,1,1,698,0,0,0.8,0.4,0.838858625739843,0.838858625739843,750,0,0,incongruent,0,1829.32851856812,2513.61488088975
53,104,2,252,-0.5,-0.5,-0.5,1,1,0.4,2,649,0,1,NaN,0,0,0.2,0.4,0.523689987247076,NaN,750,0,1,congruent,0,1048.33720052347,1684.37912345917
53,104,2,253,0.5,-0.5,0.5,4,3,0.4,4,691,1,1,691,1,0,0.2,NaN,0.79383453452659,0.79383453452659,750,0,0,incongruent,1,3318.10326227389,12354.5949209297
53,104,2,254,0.5,-0.5,-0.5,2,2,0.4,2,666,1,1,666,1,0,0.6,NaN,0.633034208764975,0.633034208764975,750,1,0,congruent,1,8655.50489090806,1954.73578495892
53,104,2,255,0.5,-0.5,0.5,1,3,0.4,3,763,0,0,NaN,0,0,0.8,NaN,1.25693947272004,NaN,750,1,0,incongruent,0,6460.11589448793,460.527601999813
53,104,2,256,-0.5,0.5,0,2,NaN,0.4,2,635,1,1,635,1,0,0.8,0.6,0.433641804820571,0.433641804820571,750,0,0,neutral,0.1,3188.98874311789,5740.49957312545
53,104,2,257,0.5,-0.5,0.5,4,1,0.6,4,764,1,0,764,0,0,1,NaN,1.26337148575051,1.26337148575051,750,0,0,incongruent,0,2577.74609879935,2341.77608704913
53,104,2,258,0.5,-0.5,-0.5,2,2,0.6,1,568,0,1,NaN,0,0,1,NaN,0.00269693177944067,NaN,750,0,1,congruent,0,3378.76301248749,3209.78490621922
53,104,2,260,0.5,-0.5,-0.5,1,1,0.6,3,724,0,1,NaN,0,0,0.4,NaN,1.00609096453192,NaN,750,0,1,congruent,0,14772.3803333934,5765.44975338594
53,104,2,261,0.5,0.5,0.5,4,2,0.6,4,647,1,1,647,1,0,0.4,NaN,0.510825961186147,0.510825961186147,750,0,0,incongruent,1,3404.98731440024,2693.28087557541
53,104,2,262,-0.5,0.5,-0.5,1,1,0.8,3,689,0,1,NaN,0,0,0.6,0.6,0.780970508465661,NaN,750,0,1,congruent,0,2848.36926339888,1756.88299888279
53,104,2,263,0.5,-0.5,0.5,3,4,0.6,4,511,0,1,NaN,0,0,0.6,NaN,-0.363927810957043,NaN,750,1,0,incongruent,0,5703.40449992111,520.582180749878
53,104,2,264,0.5,0.5,-0.5,2,2,0.6,2,583,1,1,583,1,0,0.6,NaN,0.0991771272364101,0.0991771272364101,750,1,0,congruent,1,6031.38777663123,2806.08108667371
53,104,2,265,-0.5,-0.5,0,1,NaN,0.8,1,537,1,1,537,1,0,0.8,0.2,-0.196695472164963,-0.196695472164963,750,0,0,neutral,0.1,7035.53119016282,4316.0556855744
53,104,2,266,0.5,-0.5,-0.5,4,4,0.8,4,353,1,1,353,1,0,1,NaN,-1.38018586977045,-1.38018586977045,750,1,0,congruent,1,5882.51962740282,1595.99505299691
53,104,2,267,0.5,0.5,0,1,NaN,0.8,4,435,0,1,NaN,0,0,1,NaN,-0.852760801272355,NaN,750,0,1,neutral,0,6383.8035944618,1097.82730983991
53,104,2,268,-0.5,-0.5,-0.5,4,4,0.6,4,594,1,1,594,0,0,1,0.4,0.169929270571521,0.169929270571521,750,1,0,congruent,0,6393.04565271877,6253.09739654874
53,104,2,269,0.5,-0.5,0,3,NaN,0.6,3,570,1,1,570,0,0,1,NaN,0.0155609578403699,0.0155609578403699,750,0,0,neutral,0,6819.72147527653,1945.58244760704
53,104,2,270,-0.5,-0.5,-0.5,2,2,0.6,4,516,0,1,NaN,1,0,0.6,0.4,-0.33176774580472,NaN,750,0,1,congruent,0.1,2856.49979188858,2439.26150084881
53,104,2,271,-0.5,-0.5,-0.5,1,1,0.6,1,701,1,1,701,1,0,0.6,0.4,0.858154664831237,0.858154664831237,750,1,0,congruent,0.1,1855.76229591725,5784.81941375665
53,104,2,272,-0.5,0.5,0,2,NaN,0.6,1,469,0,1,NaN,0,0,0.4,0.6,-0.634072358236558,NaN,750,0,1,neutral,0,6701.83160046077,1177.84282704684
53,104,2,273,-0.5,0.5,0.5,3,1,0.4,4,468,0,1,NaN,0,0,0.4,0.4,-0.640504371267022,NaN,750,0,1,incongruent,0,1756.95239349114,4827.56235052258
53,104,2,274,0.5,0.5,-0.5,2,2,0.2,1,444,0,1,NaN,0,0,0.4,NaN,-0.794872683998174,NaN,750,0,1,congruent,0,3213.51901697235,571.002881750155
53,104,2,275,0.5,-0.5,-0.5,3,3,0.2,3,560,1,1,560,0,0,0.4,NaN,-0.0487591724642764,-0.0487591724642764,750,1,0,congruent,0,5090.99141130318,5841.50085926014
53,104,2,276,0.5,-0.5,-0.5,4,4,0.2,4,350,1,1,350,0,0,0.2,NaN,-1.39948190886185,-1.39948190886185,750,1,0,congruent,0,7435.8469983556,1833.95129708043
53,104,2,277,-0.5,-0.5,-0.5,2,2,0.2,3,563,0,1,NaN,0,0,0,0.6,-0.0294631333728825,NaN,750,0,1,congruent,0,2168.96109231074,3417.38961718488
53,104,2,278,0.5,0.5,0.5,3,4,0.2,4,662,0,1,NaN,0,0,0,NaN,0.607306156643116,NaN,750,1,0,incongruent,0,2574.8981505411,4613.26545529189
53,104,2,279,0.5,0.5,0.5,4,1,0,3,624,0,1,NaN,0,0,0,NaN,0.36288966148546,NaN,750,0,1,incongruent,0,3238.31441227728,2633.83899831701
53,104,2,281,-0.5,-0.5,0.5,3,4,0,4,562,0,1,NaN,0,0,0,0.6,-0.0358951464033471,NaN,750,1,0,incongruent,0,4412.91799194153,931.868163320142
53,104,2,283,0.5,-0.5,0,1,NaN,0,1,519,1,1,519,0,0,0,NaN,-0.312471706713326,-0.312471706713326,750,0,0,neutral,0,3521.05101343852,2961.12046844566
53,104,2,284,0.5,-0.5,-0.5,4,4,0,4,572,1,1,572,0,0,0,NaN,0.0284249839012992,0.0284249839012992,750,1,0,congruent,0,4023.65583671526,2179.11207739088
53,104,2,285,0.5,-0.5,0,2,NaN,0,2,410,1,1,410,0,0,0,NaN,-1.01356112703397,-1.01356112703397,750,0,0,neutral,0,6277.02829940422,1756.05928842773
53,104,2,286,-0.5,0.5,0.5,1,3,0,4,620,0,1,NaN,0,0,0,0.4,0.337161609363601,NaN,750,0,1,incongruent,0,1915.12671689576,5257.83201755946
53,104,2,287,0.5,0.5,0,4,NaN,0,1,520,0,1,NaN,0,0,0,NaN,-0.306039693682862,NaN,750,0,1,neutral,0,8886.92579596992,1984.07226671383
53,104,2,288,0.5,-0.5,-0.5,2,2,0,3,364,0,1,NaN,0,0,0,NaN,-1.30943372643534,NaN,750,0,1,congruent,0,8044.7822149255,472.561453876955
53,104,2,289,0.5,0.5,0,1,NaN,0,2,588,0,1,NaN,0,0,0,NaN,0.131337192388733,NaN,750,0,1,neutral,0,1528.73310065554,3333.00700041005
53,104,2,290,0.5,0.5,-0.5,4,4,0,4,529,1,1,529,1,0,0,NaN,-0.24815157640868,-0.24815157640868,750,1,0,congruent,1,862.33570209016,1641.91269387169
53,104,2,291,-0.5,-0.5,0.5,3,1,0.2,2,568,0,1,NaN,0,0,0.4,0.4,0.00269693177944067,NaN,750,0,1,incongruent,0,3271.51817070795,1282.37141338494
53,104,2,292,-0.5,-0.5,-0.5,2,2,0.2,2,786,1,0,786,0,0,0.4,0.2,1.40487577242073,1.40487577242073,750,1,0,congruent,0,11114.8376282198,1534.71002795696
53,104,2,293,-0.5,0.5,-0.5,1,1,0.2,4,643,0,1,NaN,0,0,0.4,0.2,0.485097909064288,NaN,750,0,1,congruent,0,2958.18005491578,415.054141727349
53,104,2,294,0.5,-0.5,0.5,4,2,0.2,3,525,0,1,NaN,0,0,0.4,NaN,-0.273879628530538,NaN,750,0,1,incongruent,0,3244.89797612865,1921.86696272581
53,104,2,295,0.5,0.5,-0.5,3,3,0.2,3,612,1,1,612,1,0,0.4,NaN,0.285705505119884,0.285705505119884,750,1,0,congruent,1,7690.35326823052,4173.79486609051
53,104,2,296,0.5,-0.5,-0.5,4,4,0.4,4,579,1,1,579,1,0,0.4,NaN,0.0734490751145516,0.0734490751145516,750,1,0,congruent,1,7709.34425423798,2909.41092780004
53,104,2,297,0.5,-0.5,0.5,3,1,0.4,3,612,1,1,612,1,0,0.8,NaN,0.285705505119884,0.285705505119884,750,0,0,incongruent,1,5075.88091968596,1003.63854441727
53,104,2,298,-0.5,0.5,0.5,1,2,0.4,1,623,1,1,623,1,0,1.2,0,0.356457648454995,0.356457648454995,750,0,0,incongruent,0.1,5845.06785614686,1392.62900445703
53,104,2,299,0.5,0.5,0,3,NaN,0.6,2,594,0,1,NaN,0,0,1.4,NaN,0.169929270571521,NaN,750,0,1,neutral,0,13349.2838074976,2016.10983729217
53,104,2,300,0.5,0.5,-0.5,2,2,0.6,2,572,1,1,572,1,0,1.4,NaN,0.0284249839012992,0.0284249839012992,750,1,0,congruent,1,5418.77109234276,2719.18512594557
53,104,3,301,-0.5,0.5,0,4,NaN,0.6,2,828,0,0,NaN,0,0,1.4,0.2,1.67502031970024,NaN,750,0,1,neutral,0,4380.66585972629,2271.85964035605
53,104,3,302,0.5,0.5,-0.5,1,1,0.6,4,591,0,1,NaN,0,0,1,NaN,0.150633231480127,NaN,750,0,1,congruent,0,10745.5620204706,2535.49488897347
53,104,3,303,-0.5,0.5,0.5,3,2,0.4,3,678,1,1,678,1,0,0.6,0.2,0.71021836513055,0.71021836513055,750,0,0,incongruent,0.1,2592.54881204087,2063.23357405971
53,104,3,304,-0.5,-0.5,0.5,1,3,0.4,4,596,0,1,NaN,0,0,0.6,0,0.18279329663245,NaN,750,0,1,incongruent,0,1701.19596493256,1700.80755655088
53,104,3,305,0.5,0.5,0.5,4,1,0.4,4,487,1,1,487,1,0,0.6,NaN,-0.518296123688194,-0.518296123688194,750,0,0,incongruent,1,4258.52416902925,832.904885049343
53,104,3,306,-0.5,-0.5,0,2,NaN,0.6,2,486,1,1,486,1,0,0.6,0,-0.524728136718659,-0.524728136718659,750,0,0,neutral,0.1,6044.44230404839,2280.36171645851
53,104,3,307,0.5,-0.5,-0.5,4,4,0.6,4,466,1,1,466,0,0,0.8,NaN,-0.653368397327952,-0.653368397327952,750,1,0,congruent,0,2533.05347468693,481.816108262156
53,104,3,308,-0.5,0.5,0,2,NaN,0.6,2,553,1,1,553,1,0,0.8,0.4,-0.0937832636775288,-0.0937832636775288,750,0,0,neutral,0.1,6026.89955849509,935.620340169003
53,104,3,310,-0.5,-0.5,0.5,3,2,0.6,4,682,0,1,NaN,1,0,0.8,0.2,0.735946417252409,NaN,750,0,1,incongruent,0.1,1280.45339925218,4323.53067050639
53,104,3,311,-0.5,0.5,0.5,1,4,0.6,4,542,0,1,NaN,0,0,0.6,0.6,-0.16453540701264,NaN,750,1,0,incongruent,0,2213.28307637234,2651.31010745028
53,104,3,312,0.5,-0.5,0,4,NaN,0.6,3,507,0,1,NaN,1,0,0.4,NaN,-0.389655863078902,NaN,750,0,1,neutral,1,1778.29680476081,1589.0900807034
53,104,3,313,0.5,-0.5,-0.5,3,3,0.6,4,537,0,1,NaN,1,0,0.8,NaN,-0.196695472164963,NaN,750,0,1,congruent,1,2086.50690960045,1311.0238054786
53,104,3,314,-0.5,-0.5,-0.5,2,2,0.6,2,442,1,1,442,0,0,1,0.4,-0.807736710059103,-0.807736710059103,750,1,0,congruent,0,1800.2602673343,1510.35007259194
53,104,3,315,-0.5,-0.5,0.5,4,3,0.6,1,506,0,1,NaN,1,0,1,0.4,-0.396087876109366,NaN,750,0,1,incongruent,0.1,2106.11072650036,1993.68835241869
53,104,3,316,0.5,-0.5,0.5,1,2,0.6,4,615,0,1,NaN,0,0,1,NaN,0.305001544211278,NaN,750,0,1,incongruent,0,2517.98904444152,1334.03733151129
53,104,3,317,0.5,-0.5,0,3,NaN,0.6,3,643,1,1,643,0,0,1,NaN,0.485097909064288,0.485097909064288,750,0,0,neutral,0,5322.98186596309,4301.13297288987
53,104,3,318,0.5,0.5,0.5,4,3,0.6,4,533,1,1,533,1,0,0.6,NaN,-0.222423524286821,-0.222423524286821,750,0,0,incongruent,1,2550.03714338295,1535.71067404645
53,104,3,319,0.5,-0.5,0,2,NaN,0.6,1,543,0,1,NaN,1,0,0.6,NaN,-0.158103393982175,NaN,750,0,1,neutral,1,6697.34655010518,779.044592748318
53,104,3,320,-0.5,0.5,-0.5,1,1,0.6,4,500,0,1,NaN,0,0,1,0.6,-0.434679954292154,NaN,750,0,1,congruent,0,10099.1664274009,1982.16170331587
53,104,3,321,0.5,-0.5,0.5,2,3,0.4,4,487,0,1,NaN,1,0,0.8,NaN,-0.518296123688194,NaN,750,0,1,incongruent,1,9654.73939225568,5406.99957622545
53,104,3,322,-0.5,-0.5,0.5,3,2,0.4,3,699,1,1,699,1,0,1.2,0.6,0.845290638770307,0.845290638770307,750,0,0,incongruent,0.1,16078.6875080288,2686.90592667157
53,104,3,323,0.5,-0.5,0.5,1,3,0.4,2,635,0,1,NaN,1,0,1.4,NaN,0.433641804820571,NaN,750,0,1,incongruent,1,2595.48726216962,874.101444897946
53,104,3,324,0.5,0.5,-0.5,2,2,0.4,4,536,0,1,NaN,0,0,1.4,NaN,-0.203127485195428,NaN,750,0,1,congruent,0,4508.47433911917,1957.93527383013
53,104,3,325,0.5,-0.5,-0.5,3,3,0.2,3,609,1,1,609,0,0,1,NaN,0.266409466028491,0.266409466028491,750,1,0,congruent,0,2520.54196715355,5965.06977780406
53,104,3,326,0.5,-0.5,0,1,NaN,0.2,1,543,1,1,543,0,0,1,NaN,-0.158103393982175,-0.158103393982175,750,0,0,neutral,0,4343.08034826783,2446.53306000749
53,104,3,327,0.5,0.5,-0.5,3,3,0.2,3,604,1,1,604,1,0,0.6,NaN,0.234249400876167,0.234249400876167,750,1,0,congruent,1,5176.13538168782,10870.1730134309
53,104,3,328,-0.5,-0.5,-0.5,4,4,0.4,4,372,1,1,372,1,0,0.8,0.8,-1.25797762219163,-1.25797762219163,750,1,0,congruent,0.1,4257.58865107735,6250.5285140468
53,104,3,329,0.5,-0.5,0.5,1,3,0.4,3,482,0,1,NaN,0,0,0.6,NaN,-0.550456188840518,NaN,750,1,0,incongruent,0,4431.67458335372,2144.27820266925
53,104,3,330,-0.5,-0.5,0.5,3,1,0.4,4,513,0,1,NaN,1,0,0.6,0.8,-0.351063784896114,NaN,750,0,1,incongruent,0.1,3433.07674238777,3388.21693122616
53,104,3,331,-0.5,0.5,0.5,1,2,0.4,3,457,0,1,NaN,0,0,0.8,0.4,-0.711256514602133,NaN,750,0,1,incongruent,0,2281.30214554528,2802.21824239572
53,104,3,332,0.5,0.5,0.5,3,4,0.4,4,740,0,1,NaN,0,0,0.8,NaN,1.10900317301936,NaN,750,1,0,incongruent,0,1946.16924240734,2419.56470328457
53,104,3,333,-0.5,-0.5,0,2,NaN,0.2,1,624,0,1,NaN,0,0,0.4,0.8,0.36288966148546,NaN,750,0,1,neutral,0,10660.7520314141,5474.71460404174
53,104,3,334,0.5,-0.5,0.5,4,3,0.2,3,436,0,1,NaN,0,0,0.2,NaN,-0.846328788241891,NaN,750,1,0,incongruent,0,5071.45821620949,1195.61164985536
53,104,3,335,0.5,0.5,0.5,3,2,0.2,2,318,0,1,NaN,0,0,0.2,NaN,-1.60530632583672,NaN,750,1,0,incongruent,0,2014.01156963292,3553.90249381696
53,104,3,336,0.5,-0.5,0,4,NaN,0.2,4,586,1,1,586,0,0,0,NaN,0.118473166327804,0.118473166327804,750,0,0,neutral,0,5211.3008848474,2579.27752723705
53,104,3,337,0.5,-0.5,-0.5,1,1,0.2,3,668,0,1,NaN,0,0,0,NaN,0.645898234825904,NaN,750,0,1,congruent,0,1093.15428230557,1742.3004125465
53,104,3,338,-0.5,-0.5,-0.5,4,4,0.2,4,415,1,1,415,0,0,0,0.8,-0.981401061881648,-0.981401061881648,750,1,0,congruent,0,1771.36146199881,2743.9575836524
53,104,3,339,-0.5,0.5,0.5,3,1,0.2,3,755,1,0,755,0,0,0,0.4,1.20548336847633,1.20548336847633,750,0,0,incongruent,0,3602.66069895725,13818.197839578
53,104,3,340,0.5,-0.5,0.5,4,3,0.2,1,689,0,1,NaN,0,0,0,NaN,0.780970508465661,NaN,750,0,1,incongruent,0,2938.78598783403,707.778733444899
53,104,3,341,-0.5,0.5,0.5,3,2,0.2,3,618,1,1,618,1,0,0,0.2,0.324297583302672,0.324297583302672,750,0,0,incongruent,0.1,12056.9478673935,2301.36717159165
53,104,3,342,-0.5,-0.5,0,2,NaN,0.2,2,781,1,0,781,0,0,0.2,0.6,1.37271570726841,1.37271570726841,750,0,0,neutral,0,1170.09316215399,6141.77148284095
53,104,3,343,0.5,0.5,0.5,3,2,0.2,4,346,0,1,NaN,0,0,0.2,NaN,-1.42520996098371,NaN,750,0,1,incongruent,0,682.561104835991,2741.36887368677
53,104,3,344,0.5,0.5,0.5,1,3,0.2,3,426,0,1,NaN,0,0,0.2,NaN,-0.910648918546537,NaN,750,1,0,incongruent,0,12938.7161413901,2495.30621663361
53,104,3,345,0.5,-0.5,-0.5,2,2,0.2,1,566,0,1,NaN,1,0,0.2,NaN,-0.0101670942814886,NaN,750,0,1,congruent,1,25148.8754735608,3849.40518819669
53,104,3,346,0.5,0.5,0.5,1,4,0.2,3,755,0,0,NaN,0,0,0.6,NaN,1.20548336847633,NaN,750,0,1,incongruent,0,4572.67854350112,7259.53529733788
53,104,3,347,-0.5,-0.5,-0.5,2,2,0.2,3,495,0,1,NaN,1,0,0.4,0.4,-0.466840019444477,NaN,750,0,1,congruent,0.1,679.08073801322,1117.45646498632
53,104,3,348,0.5,-0.5,0,4,NaN,0.2,4,521,1,1,521,0,0,0.6,NaN,-0.299607680652397,-0.299607680652397,750,0,0,neutral,0,9540.70418635681,2143.01052171192
53,104,3,349,0.5,-0.5,0.5,2,1,0.2,3,490,0,1,NaN,1,0,0.6,NaN,-0.499000084596801,NaN,750,0,1,incongruent,1,4317.82500952283,3796.25270739732
53,104,3,350,-0.5,-0.5,-0.5,4,4,0.2,4,560,1,1,560,0,0,1,0.4,-0.0487591724642764,-0.0487591724642764,750,1,0,congruent,0,1983.93585637136,5609.9892039265
53,104,3,351,-0.5,-0.5,0.5,1,3,0.2,3,599,0,1,NaN,0,0,0.6,0.2,0.202089335723844,NaN,750,1,0,incongruent,0,2230.82098650428,4937.82271412426
53,104,3,352,-0.5,-0.5,0,2,NaN,0.2,4,499,0,1,NaN,0,0,0.6,0.2,-0.441111967322619,NaN,750,0,1,neutral,0,1249.20868702237,8023.93680854755
53,104,3,353,-0.5,-0.5,0.5,1,2,0.2,4,321,0,1,NaN,0,0,0.4,0.2,-1.58601028674532,NaN,750,0,1,incongruent,0,3961.46644769143,7096.63442976029
53,104,3,354,-0.5,0.5,0,3,NaN,0.2,4,557,0,1,NaN,0,0,0.4,0.2,-0.0680552115556703,NaN,750,0,1,neutral,0,2556.04033791484,4589.55265986488
53,104,3,355,0.5,0.5,0.5,1,4,0.2,3,400,0,1,NaN,0,0,0,NaN,-1.07788125733862,NaN,750,0,1,incongruent,0,6036.60286183301,2442.96087116104
53,104,3,356,0.5,0.5,-0.5,3,3,0,4,577,0,1,NaN,0,0,0,NaN,0.0605850490536224,NaN,750,0,1,congruent,0,1877.55078853373,2321.89600253105
53,104,3,357,-0.5,0.5,0.5,1,2,0,1,383,1,1,383,1,0,0,0.2,-1.18722547885652,-1.18722547885652,750,0,0,incongruent,0.1,6823.00574907509,2086.89773332901
53,104,3,358,0.5,-0.5,0,3,NaN,0.2,3,344,1,1,344,1,0,0.2,NaN,-1.43807398704464,-1.43807398704464,750,0,0,neutral,1,1898.13619628636,762.359455876338
53,104,3,359,-0.5,0.5,-0.5,4,4,0.2,4,358,1,1,358,1,0,0.6,0.4,-1.34802580461813,-1.34802580461813,750,1,0,congruent,0.1,2077.87592481543,4668.81283876281
53,104,3,360,0.5,0.5,0.5,1,3,0.4,1,451,1,1,451,1,0,0.8,NaN,-0.749848592784921,-0.749848592784921,750,0,0,incongruent,1,2814.31766519153,6190.16594170678
53,104,3,362,-0.5,-0.5,-0.5,4,4,0.6,4,379,1,1,379,1,0,1.2,0.2,-1.21295353097837,-1.21295353097837,750,1,0,congruent,0.1,7529.75162490524,1503.64575256557
53,104,3,363,-0.5,0.5,-0.5,2,2,0.6,3,523,0,1,NaN,0,0,1.2,0.6,-0.286743654591468,NaN,750,0,1,congruent,0,6011.86511454244,3859.47021699774
53,104,3,364,0.5,-0.5,0,3,NaN,0.6,3,468,1,1,468,0,0,0.8,NaN,-0.640504371267022,-0.640504371267022,750,0,0,neutral,0,7353.41327881554,1600.52706575545
53,104,3,365,0.5,0.5,-0.5,2,2,0.6,2,512,1,1,512,1,0,0.6,NaN,-0.357495797926579,-0.357495797926579,750,1,0,congruent,1,8200.62118092404,1949.16012755435
53,104,3,367,-0.5,0.5,0.5,2,4,0.4,2,629,1,1,629,1,0,0.6,0.6,0.395049726637783,0.395049726637783,750,0,0,incongruent,0.1,1590.94810262467,3533.35834259318
53,104,3,368,-0.5,0.5,0,3,NaN,0.4,4,442,0,1,NaN,0,0,0.6,0.6,-0.807736710059103,NaN,750,0,1,neutral,0,2044.94052352213,2447.681246164
53,104,3,369,-0.5,-0.5,-0.5,2,2,0.4,3,436,0,1,NaN,0,0,0.6,0.2,-0.846328788241891,NaN,750,0,1,congruent,0,1678.48758132758,1770.88738449601
53,104,3,370,-0.5,-0.5,0.5,3,1,0.4,2,516,0,1,NaN,0,0,0.6,0.2,-0.33176774580472,NaN,750,0,1,incongruent,0,11211.2925997262,3500.72693226855
53,104,3,371,0.5,-0.5,0,4,NaN,0.4,4,353,1,1,353,0,0,0.2,NaN,-1.38018586977045,-1.38018586977045,750,0,0,neutral,0,8687.43106051669,765.052004901195
53,104,3,372,0.5,-0.5,-0.5,2,2,0.4,3,372,0,1,NaN,1,0,0.2,NaN,-1.25797762219163,NaN,750,0,1,congruent,1,2803.57121941482,3978.38427259013
53,104,3,373,0.5,0.5,-0.5,1,1,0.4,2,482,0,1,NaN,0,0,0.4,NaN,-0.550456188840518,NaN,750,0,1,congruent,0,4247.21489951242,1127.85113076139
53,104,3,374,-0.5,-0.5,0.5,2,3,0.4,4,177,0,1,NaN,0,0,0.4,0.2,-2.51222016313223,NaN,750,0,1,incongruent,0,2025.19086953955,3771.85203249931
53,104,3,375,0.5,-0.5,-0.5,1,1,0.4,3,358,0,1,NaN,0,0,0.4,NaN,-1.34802580461813,NaN,750,0,1,congruent,0,2288.99823110338,4129.22746309513
53,104,3,376,-0.5,0.5,0.5,3,2,0.4,3,768,1,0,768,0,0,0.4,0.6,1.28909953787237,1.28909953787237,750,0,0,incongruent,0,1960.16131969478,4058.86234036552
53,104,3,377,-0.5,-0.5,-0.5,1,1,0.2,3,599,0,1,NaN,0,0,0.4,0.2,0.202089335723844,NaN,750,0,1,congruent,0,6062.50536019282,3110.67475022124
53,104,3,378,0.5,0.5,0.5,2,3,0.2,3,410,0,1,NaN,0,0,0,NaN,-1.01356112703397,NaN,750,1,0,incongruent,0,3754.56110895913,432.79874571579
53,104,3,379,0.5,0.5,0.5,4,2,0.2,1,311,0,1,NaN,0,0,0,NaN,-1.65033041704997,NaN,750,0,1,incongruent,0,6323.89670917353,1932.39709063345
53,104,3,380,-0.5,0.5,0,2,NaN,0,4,474,0,1,NaN,0,0,0,0.4,-0.601912293084235,NaN,750,0,1,neutral,0,2101.57787295344,1616.07393257398
53,104,3,381,0.5,0.5,0.5,4,1,0,4,507,1,1,507,1,0,0,NaN,-0.389655863078902,-0.389655863078902,750,0,0,incongruent,1,1963.02265629871,7127.82241488178
53,104,3,382,-0.5,-0.5,0.5,1,2,0.2,3,346,0,1,NaN,0,0,0.4,0.2,-1.42520996098371,NaN,750,0,1,incongruent,0,5142.11072096711,3274.78542926156
53,104,3,384,-0.5,0.5,0,3,NaN,0.2,3,509,1,1,509,1,0,0.4,0.2,-0.376791837017973,-0.376791837017973,750,0,0,neutral,0.1,3919.34552948059,3021.70838451714
53,104,3,385,0.5,0.5,0.5,2,4,0.4,4,484,0,1,NaN,0,0,0.6,NaN,-0.537592162779588,NaN,750,1,0,incongruent,0,1635.15700808893,7301.72904407706
53,104,3,386,0.5,0.5,-0.5,1,1,0.4,4,402,0,1,NaN,0,0,0.6,NaN,-1.06501723127769,NaN,750,0,1,congruent,0,15473.7286178212,1440.05248037284
53,104,3,387,-0.5,0.5,-0.5,4,4,0.4,3,768,0,0,NaN,0,0,0.2,0.4,1.28909953787237,NaN,750,0,1,congruent,0,1959.14770573853,4286.96689404789
53,104,3,389,-0.5,0.5,-0.5,4,4,0.2,1,554,0,1,NaN,0,0,0.2,0.2,-0.0873512506470642,NaN,750,0,1,congruent,0,2879.59513923074,2460.71343658585
53,104,3,390,-0.5,-0.5,-0.5,1,1,0,4,334,0,1,NaN,0,0,0,0,-1.50239411734928,NaN,750,0,1,congruent,0,2550.70848613267,4702.87482133353
53,104,3,393,-0.5,0.5,0,4,NaN,0,4,336,1,1,336,1,0,0,0.2,-1.48953009128835,-1.48953009128835,750,0,0,neutral,0.1,2547.08045719524,1633.64837535302
53,104,3,394,-0.5,-0.5,-0.5,2,2,0.2,1,377,0,1,NaN,0,0,0.2,0,-1.2258175570393,NaN,750,0,1,congruent,0,6412.23971005742,2308.77760098405
53,104,3,395,-0.5,0.5,-0.5,4,4,0.2,4,620,1,1,620,1,0,0.2,0.4,0.337161609363601,0.337161609363601,750,1,0,congruent,0.1,4959.45816494897,3623.98688235083
53,104,3,396,-0.5,0.5,0.5,1,3,0.4,3,438,0,1,NaN,0,0,0.4,0.4,-0.833464762180961,NaN,750,1,0,incongruent,0,2112.84321696135,1023.84423440164
53,104,3,399,-0.5,-0.5,0,2,NaN,0.4,1,568,0,1,NaN,0,0,0.2,0,0.00269693177944067,NaN,750,0,1,neutral,0,6153.18175234805,1426.44024255163
53,104,3,400,-0.5,0.5,-0.5,1,1,0.4,1,568,1,1,568,1,0,0.2,0.4,0.00269693177944067,0.00269693177944067,750,1,0,congruent,0.1,4752.35913590931,1828.44895179338
53,104,3,403,-0.5,0.5,0,3,NaN,0.6,3,513,1,1,513,1,0,0.6,0.6,-0.351063784896114,-0.351063784896114,750,0,0,neutral,0.1,6372.7740372383,1007.41078618764
53,104,3,404,-0.5,-0.5,0.5,2,1,0.6,4,364,0,1,NaN,1,0,0.8,0,-1.30943372643534,NaN,750,0,1,incongruent,0.1,5184.47705373328,1049.95090319908
53,104,3,405,-0.5,0.5,0,1,NaN,0.6,1,366,1,1,366,1,0,1,0.8,-1.29656970037441,-1.29656970037441,750,0,0,neutral,0.1,2805.53351538659,706.522617062793
53,104,3,407,0.5,0.5,0,3,NaN,0.6,3,429,1,1,429,1,0,1,NaN,-0.891352879455143,-0.891352879455143,750,0,0,neutral,1,3478.4983553169,1550.96428526675
53,104,3,408,-0.5,0.5,0.5,1,4,0.8,4,468,0,1,NaN,0,0,1,0.6,-0.640504371267022,NaN,750,1,0,incongruent,0,7431.6295060795,2144.08908138578
53,104,3,409,-0.5,-0.5,0,4,NaN,0.6,1,199,0,1,NaN,0,0,0.8,0.2,-2.37071587646201,NaN,750,0,1,neutral,0,384.73203691313,2040.76703235356
53,104,3,410,0.5,-0.5,-0.5,3,3,0.6,4,317,0,1,NaN,1,0,0.6,NaN,-1.61173833886718,NaN,750,0,1,congruent,1,2058.74611662716,876.446734480137
53,104,3,413,0.5,0.5,-0.5,4,4,0.2,3,376,0,1,NaN,0,0,0.4,NaN,-1.23224957006977,NaN,750,0,1,congruent,0,3365.99602270944,6498.86518673421
53,104,3,414,0.5,-0.5,0.5,3,1,0.2,4,195,0,1,NaN,1,0,0.4,NaN,-2.39644392858387,NaN,750,0,1,incongruent,1,600.609457242059,2001.29209822107
53,104,3,415,0.5,0.5,0,2,NaN,0.2,1,968,0,0,NaN,0,0,0.8,NaN,2.57550214396529,NaN,750,0,1,neutral,0,8227.49889971508,3920.39815264108
53,104,3,416,-0.5,0.5,0.5,4,1,0,3,218,0,1,NaN,0,0,0.4,0.4,-2.24850762888318,NaN,750,0,1,incongruent,0,2741.86979564312,3120.91631528308
53,104,3,417,-0.5,-0.5,0.5,3,4,0,4,331,0,1,NaN,0,0,0.4,0.2,-1.52169015644068,NaN,750,1,0,incongruent,0,3632.69842933161,897.86354332437
53,104,3,418,0.5,0.5,0,4,NaN,0,3,337,0,1,NaN,0,0,0.4,NaN,-1.48309807825789,NaN,750,0,1,neutral,0,2636.58210856033,2197.87542469561
53,104,3,419,-0.5,0.5,-0.5,3,3,0,4,358,0,1,NaN,0,0,0.4,0.2,-1.34802580461813,NaN,750,0,1,congruent,0,12455.3189294148,1222.13041682749
53,104,3,420,-0.5,0.5,0,4,NaN,0,1,448,0,1,NaN,0,0,0,0,-0.769144631876315,NaN,750,0,1,neutral,0,12124.9771515439,1991.03767062326
53,104,3,421,0.5,0.5,-0.5,2,2,0,4,457,0,1,NaN,0,0,0,NaN,-0.711256514602133,NaN,750,0,1,congruent,0,9390.82003655949,943.878709178924
53,104,3,422,0.5,-0.5,-0.5,1,1,0,4,487,0,1,NaN,0,0,0,NaN,-0.518296123688194,NaN,750,0,1,congruent,0,4670.94645893143,867.985129537093
53,104,3,423,-0.5,0.5,0,4,NaN,0,4,480,1,1,480,1,0,0,0,-0.563320214901447,-0.563320214901447,750,0,0,neutral,0.1,2403.67859041478,734.435595091521
53,104,3,424,0.5,0.5,-0.5,1,1,0.2,4,568,0,1,NaN,0,0,0.2,NaN,0.00269693177944067,NaN,750,0,1,congruent,0,3885.41052798381,6321.69206947747
53,104,3,427,0.5,0.5,0.5,3,2,0.2,4,403,0,1,NaN,0,0,0.2,NaN,-1.05858521824722,NaN,750,0,1,incongruent,0,3933.62821172725,4839.77232884573
53,104,3,428,-0.5,0.5,-0.5,4,4,0.2,1,879,0,0,NaN,0,0,0.2,0.2,2.00305298425394,NaN,750,0,1,congruent,0,2532.15364727822,1991.61121997747
53,104,3,429,-0.5,-0.5,0.5,3,1,0,3,762,1,0,762,0,0,0,0.2,1.25050745968958,1.25050745968958,750,0,0,incongruent,0,5560.91576615603,6174.03210268802
53,104,3,430,-0.5,-0.5,-0.5,4,4,0,4,575,1,1,575,0,0,0,0.2,0.0477210229926931,0.0477210229926931,750,1,0,congruent,0,1351.52210653732,1589.36754950571
53,104,3,432,0.5,0.5,0.5,4,1,0,4,310,1,1,310,1,0,0,NaN,-1.65676243008043,-1.65676243008043,750,0,0,incongruent,1,1359.58004836142,557.283955973844
53,104,3,433,0.5,0.5,0,2,NaN,0.2,1,414,0,1,NaN,0,0,0.4,NaN,-0.987833074912112,NaN,750,0,1,neutral,0,1434.56308881597,2050.09975178747
53,104,3,434,0.5,0.5,-0.5,1,1,0.2,4,579,0,1,NaN,0,0,0.4,NaN,0.0734490751145516,NaN,750,0,1,congruent,0,1865.50019884824,4437.07505507011
53,104,3,436,0.5,-0.5,-0.5,1,1,0.4,3,635,0,1,NaN,1,0,0.8,NaN,0.433641804820571,NaN,750,0,1,congruent,1,1811.43733005262,1032.80102565036
53,104,3,437,-0.5,-0.5,0,2,NaN,0.4,3,546,0,1,NaN,1,0,1.2,0.2,-0.138807354890781,NaN,750,0,1,neutral,0.1,4114.50575048259,1331.83507135917
53,104,3,438,0.5,0.5,-0.5,3,3,0.4,3,871,1,0,871,0,0,1,NaN,1.95159688001022,1.95159688001022,750,1,0,congruent,0,407.507231548477,2944.55200889406
53,104,3,439,-0.5,0.5,-0.5,4,4,0.4,4,441,1,1,441,1,0,1,0.2,-0.814168723089567,-0.814168723089567,750,1,0,congruent,0.1,2219.76152954489,2949.2139535005
53,104,3,440,-0.5,-0.5,0,1,NaN,0.4,3,651,0,1,NaN,1,0,1.2,0.2,0.536554013308005,NaN,750,0,1,neutral,0.1,2271.34765143574,3292.29865540006
53,104,3,441,-0.5,-0.5,-0.5,4,4,0.4,4,537,1,1,537,1,0,1,0.4,-0.196695472164963,-0.196695472164963,750,1,0,congruent,0.1,2283.63370089916,2717.98861592429
53,104,3,442,0.5,-0.5,0,1,NaN,0.4,1,513,1,1,513,0,0,0.8,NaN,-0.351063784896114,-0.351063784896114,750,0,0,neutral,0,3610.18275994636,8547.83884212134
53,104,3,443,0.5,-0.5,0.5,2,3,0.4,4,687,0,1,NaN,0,0,0.6,NaN,0.768106482404732,NaN,750,0,1,incongruent,0,2196.39477107951,5522.43988291433
53,104,3,445,0.5,0.5,0.5,2,3,0.4,4,581,0,1,NaN,0,0,0.4,NaN,0.0863131011754809,NaN,750,0,1,incongruent,0,7782.27141328363,6581.76503056768
53,104,3,447,0.5,0.5,0.5,1,3,0.4,1,594,1,1,594,1,0,0,NaN,0.169929270571521,0.169929270571521,750,0,0,incongruent,1,2393.19078534161,4481.12321207484
53,104,3,448,-0.5,0.5,0.5,2,1,0.4,4,567,0,1,NaN,0,0,0.4,0.4,-0.00373508125102396,NaN,750,0,1,incongruent,0,725.473906894534,1088.43132431617
53,104,3,449,-0.5,-0.5,0.5,1,2,0.4,3,502,0,1,NaN,1,0,0.4,0.6,-0.421815928231225,NaN,750,0,1,incongruent,0.1,9434.57815018542,292.215115879464
53,104,3,450,0.5,-0.5,0.5,2,4,0.4,4,421,0,1,NaN,1,0,0.6,NaN,-0.94280898369886,NaN,750,1,0,incongruent,1,7983.30211378028,873.221209562525
53,104,4,451,0.5,-0.5,-0.5,1,1,0.4,4,722,0,1,NaN,0,0,1,NaN,0.993226938470994,NaN,750,0,1,congruent,0,4670.15146397195,3491.59874088538
53,104,4,452,-0.5,0.5,0.5,4,3,0.4,3,755,0,0,NaN,0,0,1,0.4,1.20548336847633,NaN,750,1,0,incongruent,0,2837.29928919617,4188.64352185201
53,104,4,453,-0.5,-0.5,0.5,3,4,0.2,2,641,0,1,NaN,0,0,0.6,0.8,0.472233883003359,NaN,750,0,1,incongruent,0,2595.80519731108,3098.42552153733
53,104,4,454,-0.5,0.5,0,4,NaN,0.2,4,444,1,1,444,1,0,0.6,0.4,-0.794872683998174,-0.794872683998174,750,0,0,neutral,0.1,6845.24164220528,2219.35650120975
53,104,4,455,-0.5,-0.5,-0.5,1,1,0.4,3,470,0,1,NaN,1,0,0.6,0.8,-0.627640345206093,NaN,750,0,1,congruent,0.1,1577.17596933805,1350.82316088455
53,104,4,456,0.5,-0.5,0.5,4,2,0.4,3,642,0,1,NaN,1,0,0.4,NaN,0.478665896033823,NaN,750,0,1,incongruent,1,2456.42011060995,3637.71599401687
53,104,4,457,-0.5,-0.5,0,1,NaN,0.4,4,563,0,1,NaN,1,0,0.8,0.8,-0.0294631333728825,NaN,750,0,1,neutral,0.1,8507.20141928258,4569.16155757156
53,104,4,458,-0.5,-0.5,-0.5,4,4,0.4,1,224,0,1,NaN,1,0,1,0.8,-2.20991555070039,NaN,750,0,1,congruent,0.1,4526.96219259528,1385.20036038036
53,104,4,459,0.5,0.5,0.5,1,2,0.4,4,308,0,1,NaN,0,0,1.2,NaN,-1.66962645614136,NaN,750,0,1,incongruent,0,6183.08566693135,2899.13342785906
53,104,4,460,0.5,-0.5,0.5,2,3,0.4,2,466,1,1,466,0,0,1,NaN,-0.653368397327952,-0.653368397327952,750,0,0,incongruent,0,5012.94700182868,4227.7397214056
53,104,4,461,0.5,0.5,-0.5,4,4,0.4,3,589,0,1,NaN,0,0,0.8,NaN,0.137769205419198,NaN,750,0,1,congruent,0,2551.14342786376,575.090253061691
53,104,4,462,-0.5,0.5,0.5,1,2,0.2,2,741,0,1,NaN,0,0,0.4,0.4,1.11543518604982,NaN,750,1,0,incongruent,0,2152.46734033506,3810.38513852804
53,104,4,463,0.5,-0.5,0.5,2,4,0.2,3,736,0,1,NaN,1,0,0.2,NaN,1.0832751208975,NaN,750,0,1,incongruent,1,3163.13918090276,1502.24649319521
53,104,4,464,0.5,0.5,0,3,NaN,0.2,3,657,1,1,657,1,0,0.4,NaN,0.575146091490793,0.575146091490793,750,0,0,neutral,1,5222.11444035057,7927.37361244694
53,104,4,465,0.5,0.5,-0.5,1,1,0.4,1,502,1,1,502,1,0,0.8,NaN,-0.421815928231225,-0.421815928231225,750,1,0,congruent,1,3520.59977907977,1812.16584442151
53,104,4,466,0.5,0.5,-0.5,4,4,0.4,4,398,1,1,398,1,0,1.2,NaN,-1.09074528339955,-1.09074528339955,750,1,0,congruent,1,4938.26902273312,1450.52194570337
53,104,4,467,0.5,-0.5,-0.5,3,3,0.6,3,516,1,1,516,1,0,1.6,NaN,-0.33176774580472,-0.33176774580472,750,1,0,congruent,1,990.739294566422,623.995252307174
53,104,4,468,0.5,0.5,-0.5,4,4,0.6,1,410,0,1,NaN,0,0,2,NaN,-1.01356112703397,NaN,750,0,1,congruent,0,3777.51148257791,645.080301922088
53,104,4,469,0.5,0.5,-0.5,2,2,0.6,3,662,0,1,NaN,0,0,1.6,NaN,0.607306156643116,NaN,750,0,1,congruent,0,3309.00503967706,5078.44493292769
53,104,4,470,-0.5,0.5,0,4,NaN,0.6,4,719,1,1,719,1,0,1.2,0.4,0.9739308993796,0.9739308993796,750,0,0,neutral,0.1,12015.0380601005,3294.96460032165
53,104,4,471,-0.5,0.5,-0.5,1,1,0.6,3,507,0,1,NaN,0,0,1,0.4,-0.389655863078902,NaN,750,0,1,congruent,0,20927.819554809,3759.86599004364
53,104,4,473,0.5,0.5,-0.5,1,1,0.2,2,593,0,1,NaN,0,0,0.2,NaN,0.163497257541056,NaN,750,0,1,congruent,0,3642.21047745534,1922.2319586912
53,104,4,475,0.5,-0.5,0,1,NaN,0.2,3,645,0,1,NaN,0,0,0.2,NaN,0.497961935125217,NaN,750,0,1,neutral,0,1732.65479094795,5669.63294393252
53,104,4,476,-0.5,-0.5,-0.5,2,2,0.2,3,577,0,1,NaN,0,0,0,0.8,0.0605850490536224,NaN,750,0,1,congruent,0,6607.99404539053,3727.4556717516
53,104,4,477,-0.5,0.5,-0.5,4,4,0.2,1,712,0,1,NaN,0,0,0,0.4,0.928906808166348,NaN,750,0,1,congruent,0,5503.02149915507,4079.35826590097
53,104,4,478,-0.5,-0.5,-0.5,3,3,0,3,788,1,0,788,0,0,0,0.6,1.41773979848166,1.41773979848166,750,1,0,congruent,0,3397.20054746305,5497.52893653
53,104,4,479,-0.5,0.5,0,1,NaN,0,4,616,0,1,NaN,0,0,0,0.4,0.311433557241743,NaN,750,0,1,neutral,0,6709.55326097987,1784.19018929614
53,104,4,480,0.5,-0.5,-0.5,2,2,0,1,166,0,1,NaN,0,0,0,NaN,-2.58297230646734,NaN,750,0,1,congruent,0,9596.29246808116,3029.47643646571
53,104,4,481,0.5,0.5,0,3,NaN,0,3,541,1,1,541,1,0,0,NaN,-0.170967420043104,-0.170967420043104,750,0,0,neutral,1,6663.47122978877,1182.94913989279
53,104,4,482,-0.5,0.5,-0.5,1,1,0.2,4,664,0,1,NaN,0,0,0.4,0.2,0.620170182704045,NaN,750,0,1,congruent,0,12352.5792359548,5097.96818443495
53,104,4,484,0.5,-0.5,0,1,NaN,0.2,4,190,0,1,NaN,1,0,0.4,NaN,-2.42860399373619,NaN,750,0,1,neutral,1,3493.50875888767,2440.85334525816
53,104,4,485,-0.5,0.5,0.5,4,3,0.2,3,812,0,0,NaN,0,0,0.8,0.2,1.57210811121281,NaN,750,1,0,incongruent,0,3700.28437548219,653.142290318249
53,104,4,487,0.5,-0.5,-0.5,2,2,0.2,1,204,0,1,NaN,0,0,0.4,NaN,-2.33855581130969,NaN,750,0,1,congruent,0,2279.03124214784,2056.99756886259
53,104,4,488,-0.5,-0.5,0,3,NaN,0.2,3,284,1,1,284,0,0,0.4,0.6,-1.82399476887251,-1.82399476887251,750,0,0,neutral,0,11490.7189030654,1555.96919582643
53,104,4,489,-0.5,-0.5,0.5,2,3,0.2,4,346,0,1,NaN,1,0,0.4,0.4,-1.42520996098371,NaN,750,0,1,incongruent,0.1,3831.96059242013,2286.10784305237
53,104,4,490,0.5,0.5,0.5,3,1,0.2,2,465,0,1,NaN,0,0,0.2,NaN,-0.659800410358416,NaN,750,0,1,incongruent,0,1854.75145315908,1334.83806152877
53,104,4,491,-0.5,-0.5,0.5,4,2,0,1,384,0,1,NaN,0,0,0.2,0.4,-1.18079346582605,NaN,750,0,1,incongruent,0,15612.4311188989,1498.40717470796
53,104,4,492,-0.5,0.5,-0.5,3,3,0,3,251,1,1,251,1,0,0.2,0,-2.03625119887785,-2.03625119887785,750,1,0,congruent,0.1,1902.11214188692,880.724924483696
53,104,4,493,-0.5,0.5,0,1,NaN,0.2,2,40,0,1,NaN,0,0,0.4,0.2,-3.39340594830588,NaN,750,0,1,neutral,0,4293.08130109195,1951.3949657395
53,104,4,494,0.5,0.5,-0.5,4,4,0.2,4,426,1,1,426,1,0,0.4,NaN,-0.910648918546537,-0.910648918546537,750,1,0,congruent,1,2606.84664883465,3448.28577178784
53,104,4,495,-0.5,0.5,0,3,NaN,0.4,1,513,0,1,NaN,0,0,0.6,0.2,-0.351063784896114,NaN,750,0,1,neutral,0,7405.93325914391,6008.24006215005
53,104,4,496,0.5,-0.5,0.5,4,2,0.4,3,275,0,1,NaN,0,0,0.6,NaN,-1.8818828861467,NaN,750,0,1,incongruent,0,1226.76958855992,1362.98163134744
53,104,4,497,-0.5,-0.5,-0.5,1,1,0.4,4,14,0,1,NaN,1,0,0.6,0.2,-3.56063828709796,NaN,750,0,1,congruent,0.1,2948.24962786491,7571.52509392425
53,104,4,498,0.5,-0.5,0.5,4,3,0.4,3,537,0,1,NaN,0,0,0.6,NaN,-0.196695472164963,NaN,750,1,0,incongruent,0,5091.5384006279,702.450909267677
53,104,4,499,0.5,0.5,-0.5,1,1,0.4,4,511,0,1,NaN,0,0,0.6,NaN,-0.363927810957043,NaN,750,0,1,congruent,0,3146.42283578795,813.33461596025
53,104,4,500,-0.5,0.5,0.5,2,4,0.4,2,434,1,1,434,1,0,0.2,0.2,-0.85919281430282,-0.85919281430282,750,0,0,incongruent,0.1,8154.47121919962,941.026229231819
53,104,4,501,-0.5,-0.5,-0.5,1,1,0.4,3,102,0,1,NaN,0,0,0.4,0.4,-2.99462114041708,NaN,750,0,1,congruent,0,4240.82074906219,1671.15699505755
53,104,4,502,0.5,0.5,0,4,NaN,0.4,4,478,1,1,478,1,0,0.4,NaN,-0.576184240962376,-0.576184240962376,750,0,0,neutral,1,7865.08220510721,1569.60682792678
53,104,4,503,0.5,0.5,-0.5,1,1,0.6,2,728,0,1,NaN,0,0,0.6,NaN,1.03181901665378,NaN,750,0,1,congruent,0,3170.74123578287,984.056447786413
53,104,4,504,0.5,0.5,0.5,4,2,0.4,4,479,1,1,479,1,0,0.6,NaN,-0.569752227931911,-0.569752227931911,750,0,0,incongruent,1,3004.71000362287,2740.15654453237
53,104,4,505,-0.5,0.5,-0.5,3,3,0.6,1,847,0,0,NaN,0,0,1,0.4,1.79722856727907,NaN,750,0,1,congruent,0,1664.00863453334,2018.88795809519
53,104,4,506,0.5,-0.5,0,2,NaN,0.6,3,356,0,1,NaN,0,0,0.8,NaN,-1.36088983067906,NaN,750,0,1,neutral,0,6803.13587076414,1194.56598243647
53,104,4,507,-0.5,-0.5,-0.5,1,1,0.6,3,629,0,1,NaN,1,0,0.8,0.4,0.395049726637783,NaN,750,0,1,congruent,0.1,1879.86141782753,4398.87935601354
53,104,4,508,0.5,-0.5,0,3,NaN,0.6,1,213,0,1,NaN,1,0,0.6,NaN,-2.2806676940355,NaN,750,0,1,neutral,1,2941.26903834303,2219.26345798977
53,104,4,509,-0.5,0.5,-0.5,2,2,0.6,3,620,0,1,NaN,0,0,1,0.4,0.337161609363601,NaN,750,0,1,congruent,0,4183.46467390791,4807.51930661077
53,104,4,510,0.5,0.5,0.5,3,1,0.4,2,438,0,1,NaN,0,0,0.6,NaN,-0.833464762180961,NaN,750,0,1,incongruent,0,4163.04414248399,1615.27547226766
53,104,4,511,-0.5,0.5,0,1,NaN,0.2,3,563,0,1,NaN,0,0,0.6,0.2,-0.0294631333728825,NaN,750,0,1,neutral,0,1866.44202353555,2756.05391821184
53,104,4,512,-0.5,0.5,-0.5,2,2,0.2,2,589,1,1,589,1,0,0.6,0.2,0.137769205419198,0.137769205419198,750,1,0,congruent,0.1,3531.49147980455,1956.15716884117
53,104,4,513,0.5,-0.5,0,1,NaN,0.2,3,547,0,1,NaN,0,0,0.6,NaN,-0.132375341860317,NaN,750,0,1,neutral,0,6335.95452201435,2320.20955631116
53,104,4,514,-0.5,-0.5,-0.5,2,2,0.2,2,641,1,1,641,0,0,0.2,0.6,0.472233883003359,0.472233883003359,750,1,0,congruent,0,1398.20727984979,3075.00620007114
53,104,4,515,0.5,0.5,0.5,3,1,0.2,4,954,0,0,NaN,0,0,0.2,NaN,2.48545396153879,NaN,750,0,1,incongruent,0,3218.72904361261,1531.33080308807
53,104,4,516,0.5,0.5,0,4,NaN,0.2,2,570,0,1,NaN,0,0,0.2,NaN,0.0155609578403699,NaN,750,0,1,neutral,0,7793.18929857499,1126.76016255438
53,104,4,517,0.5,-0.5,-0.5,1,1,0.2,4,467,0,1,NaN,0,0,0.2,NaN,-0.646936384297487,NaN,750,0,1,congruent,0,1647.064326278,615.935575958733
53,104,4,518,0.5,-0.5,0,2,NaN,0.2,1,138,0,1,NaN,1,0,0,NaN,-2.76306867132035,NaN,750,0,1,neutral,1,1294.01854902188,1704.6053629085
53,104,4,519,-0.5,0.5,-0.5,1,1,0.2,3,295,0,1,NaN,0,0,0.4,0.4,-1.7532426255374,NaN,750,0,1,congruent,0,2932.27110666211,1312.89335360688
53,104,4,520,-0.5,0.5,-0.5,2,2,0.2,2,590,1,1,590,1,0,0.4,0.2,0.144201218449663,0.144201218449663,750,1,0,congruent,0.1,3145.49225126917,2435.13791884827
53,104,4,521,-0.5,0.5,-0.5,4,4,0.4,4,784,1,0,784,0,0,0.6,0.4,1.3920117463598,1.3920117463598,750,1,0,congruent,0,5686.21399827573,3875.08088327891
53,104,4,522,0.5,-0.5,0.5,3,1,0.2,3,335,1,1,335,0,0,0.6,NaN,-1.49596210431882,-1.49596210431882,750,0,0,incongruent,0,5374.07647438264,3687.6410793539
53,104,4,525,0.5,0.5,-0.5,1,1,0.2,2,315,0,1,NaN,0,0,0.2,NaN,-1.62460236492811,NaN,750,0,1,congruent,0,1723.11936826811,1692.00607526416
53,104,4,526,-0.5,-0.5,0.5,4,3,0.2,3,588,0,1,NaN,0,0,0,0.4,0.131337192388733,NaN,750,1,0,incongruent,0,3260.0999704102,3660.56714477296
53,104,4,527,0.5,0.5,0,3,NaN,0.2,1,529,0,1,NaN,0,0,0,NaN,-0.24815157640868,NaN,750,0,1,neutral,0,5772.2690021211,1729.12448025902
53,104,4,528,-0.5,0.5,-0.5,1,1,0.2,1,519,1,1,519,1,0,0,0.4,-0.312471706713326,-0.312471706713326,750,1,0,congruent,0.1,661.761353440592,2356.78469807437
53,104,4,529,-0.5,0.5,0.5,3,4,0.4,4,572,0,1,NaN,0,0,0.2,0.6,0.0284249839012992,NaN,750,1,0,incongruent,0,3895.52115053547,2337.97296571864
53,104,4,530,0.5,-0.5,0.5,4,3,0.2,2,272,0,1,NaN,0,0,0.2,NaN,-1.90117892523809,NaN,750,0,1,incongruent,0,7014.74730437491,1759.80188124365
53,104,4,531,-0.5,-0.5,-0.5,2,2,0.2,2,568,1,1,568,1,0,0.2,0.2,0.00269693177944067,0.00269693177944067,750,1,0,congruent,0.1,7718.9949930753,2634.18633405594
53,104,4,532,-0.5,0.5,0.5,1,3,0.2,2,541,0,1,NaN,0,0,0.4,0.4,-0.170967420043104,NaN,750,0,1,incongruent,0,753.630284024077,4248.10451290622
53,104,4,533,0.5,-0.5,0.5,3,1,0.2,3,455,1,1,455,0,0,0.4,NaN,-0.724120540663063,-0.724120540663063,750,0,0,incongruent,0,2772.6061825199,2078.19659376097
53,104,4,534,0.5,0.5,-0.5,2,2,0.2,1,609,0,1,NaN,0,0,0.2,NaN,0.266409466028491,NaN,750,0,1,congruent,0,713.380789507913,3059.4072701853
53,104,4,535,0.5,-0.5,0,1,NaN,0.2,1,367,1,1,367,1,0,0.2,NaN,-1.29013768734395,-1.29013768734395,750,0,0,neutral,1,1779.64262075362,681.765957967128
53,104,4,536,0.5,-0.5,0.5,2,4,0.2,3,904,0,0,NaN,0,0,0.6,NaN,2.16385331001556,NaN,750,0,1,incongruent,0,5879.77810999498,10229.2303914129
53,104,4,538,-0.5,0.5,-0.5,3,3,0.2,2,410,0,1,NaN,0,0,0.4,0.2,-1.01356112703397,NaN,750,0,1,congruent,0,5574.58959524033,604.526554907012
53,104,4,539,0.5,-0.5,0.5,4,1,0,4,357,1,1,357,0,0,0.4,NaN,-1.3544578176486,-1.3544578176486,750,0,0,incongruent,0,11422.7904039407,2575.47683796219
53,104,4,540,-0.5,-0.5,0.5,3,2,0,3,361,1,1,361,0,0,0.4,0.4,-1.32872976552674,-1.32872976552674,750,0,0,incongruent,0,4607.18751020754,6908.66254379673
53,104,4,541,-0.5,0.5,0.5,2,3,0,3,393,0,1,NaN,0,0,0,0.2,-1.12290534855187,NaN,750,1,0,incongruent,0,9458.8301794471,438.287456242028
53,104,4,542,-0.5,-0.5,-0.5,1,1,0,2,528,0,1,NaN,0,0,0,0.2,-0.254583589439145,NaN,750,0,1,congruent,0,3543.76476327174,2839.03503298638
53,104,4,543,0.5,0.5,0.5,3,4,0,4,698,0,1,NaN,0,0,0,NaN,0.838858625739843,NaN,750,1,0,incongruent,0,2741.01732811306,2177.02423408876
53,104,4,544,-0.5,0.5,0.5,2,3,0,3,480,0,1,NaN,0,0,0,0,-0.563320214901447,NaN,750,1,0,incongruent,0,3877.34142261918,957.813807739584
53,104,4,545,0.5,-0.5,0.5,1,2,0,1,474,1,1,474,0,0,0,NaN,-0.601912293084235,-0.601912293084235,750,0,0,incongruent,0,1172.97300201827,2090.99356332754
53,104,4,546,-0.5,-0.5,0.5,2,1,0,3,709,0,1,NaN,0,0,0,0.2,0.909610769074954,NaN,750,0,1,incongruent,0,6330.71572343292,1537.28993784451
53,104,4,547,0.5,-0.5,-0.5,4,4,0,4,431,1,1,431,0,0,0,NaN,-0.878488853394214,-0.878488853394214,750,1,0,congruent,0,2505.02251298564,2884.66533451262
53,104,4,548,-0.5,-0.5,0.5,3,1,0,1,229,0,1,NaN,0,0,0,0.2,-2.17775548554807,NaN,750,1,0,incongruent,0,14862.998620182,1474.33438333104
53,104,4,549,-0.5,-0.5,0.5,4,2,0,2,450,0,1,NaN,0,0,0,0.2,-0.756280605815386,NaN,750,1,0,incongruent,0,12303.0396874616,3429.85749633922
53,104,4,550,0.5,-0.5,0.5,2,3,0,2,656,1,1,656,0,0,0,NaN,0.568714078460328,0.568714078460328,750,0,0,incongruent,0,5119.66159061634,4340.71672619612
53,104,4,551,0.5,0.5,-0.5,4,4,0,4,564,1,1,564,1,0,0,NaN,-0.0230311203424178,-0.0230311203424178,750,1,0,congruent,1,2253.02264640059,2155.59426170498
53,104,4,552,-0.5,-0.5,-0.5,3,3,0.2,3,304,1,1,304,0,0,0.4,0,-1.69535450826322,-1.69535450826322,750,1,0,congruent,0,2151.33633483747,5228.78646923984
53,104,4,553,-0.5,-0.5,0,2,NaN,0.2,1,536,0,1,NaN,0,0,0.4,0,-0.203127485195428,NaN,750,0,1,neutral,0,12944.0292691919,2959.6762081077
53,104,4,554,-0.5,0.5,-0.5,3,3,0.2,3,636,1,1,636,1,0,0.4,0,0.440073817851036,0.440073817851036,750,1,0,congruent,0.1,4033.41187854361,1319.77863685115
53,104,4,555,-0.5,0.5,0,4,NaN,0.4,4,611,1,1,611,1,0,0.6,0.2,0.27927349208942,0.27927349208942,750,0,0,neutral,0.1,3570.93934736661,1135.35712280387
53,104,4,556,0.5,-0.5,-0.5,1,1,0.6,2,437,0,1,NaN,0,0,0.8,NaN,-0.839896775211426,NaN,750,0,1,congruent,0,6253.09759909677,1026.31820112718
53,104,4,557,-0.5,0.5,0.5,4,3,0.6,3,336,0,1,NaN,0,0,0.4,0.4,-1.48953009128835,NaN,750,1,0,incongruent,0,17607.5278507239,2184.31608645221
53,104,4,558,0.5,0.5,-0.5,2,2,0.6,2,578,1,1,578,1,0,0.4,NaN,0.067017062084087,0.067017062084087,750,1,0,congruent,1,6443.80046030369,1028.9699664896
53,104,4,559,0.5,0.5,0.5,4,1,0.8,4,636,1,1,636,1,0,0.8,NaN,0.440073817851036,0.440073817851036,750,0,0,incongruent,1,4020.80177757666,1001.30546845926
53,104,4,560,0.5,-0.5,0.5,1,4,0.8,3,469,0,1,NaN,1,0,1,NaN,-0.634072358236558,NaN,750,0,1,incongruent,1,4885.42086171763,5027.65230168188
53,104,4,561,-0.5,0.5,-0.5,2,2,0.8,1,713,0,1,NaN,0,0,1.2,0.4,0.935338821196812,NaN,750,0,1,congruent,0,3294.00299602029,3600.64561861998
53,104,4,562,-0.5,0.5,0,3,NaN,0.6,3,481,1,1,481,1,0,1.2,0.4,-0.556888201870982,-0.556888201870982,750,0,0,neutral,0.1,6579.01914291975,1380.02191013759
53,104,4,563,0.5,0.5,0.5,1,2,0.6,4,506,0,1,NaN,0,0,1.4,NaN,-0.396087876109366,NaN,750,0,1,incongruent,0,503.30266334271,1244.75198838088
53,104,4,564,0.5,0.5,0,3,NaN,0.6,3,484,1,1,484,1,0,1,NaN,-0.537592162779588,-0.537592162779588,750,0,0,neutral,1,4121.64726772916,422.776522535298
53,104,4,565,-0.5,-0.5,-0.5,2,2,0.6,3,484,0,1,NaN,1,0,1,0,-0.537592162779588,NaN,750,0,1,congruent,0.1,3505.9487370148,2752.44172016953
53,104,4,566,0.5,0.5,0,4,NaN,0.6,4,605,1,1,605,1,0,0.8,NaN,0.240681413906632,0.240681413906632,750,0,0,neutral,1,3244.84468473801,3748.75124732307
53,104,4,567,-0.5,0.5,0.5,2,4,0.6,3,632,0,1,NaN,0,0,1.2,0.6,0.414345765729177,NaN,750,0,1,incongruent,0,20073.9768217306,2826.30065195487
53,104,4,568,-0.5,-0.5,-0.5,1,1,0.6,4,654,0,1,NaN,1,0,1,0.2,0.555850052399399,NaN,750,0,1,congruent,0.1,11689.4853139266,1011.24881694338
53,104,4,569,0.5,-0.5,0.5,3,4,0.6,4,382,0,1,NaN,0,0,1.2,NaN,-1.19365749188698,NaN,750,1,0,incongruent,0,2651.30105656294,1248.87448138333
53,104,4,570,0.5,0.5,0.5,4,1,0.6,3,812,0,0,NaN,0,0,0.8,NaN,1.57210811121281,NaN,750,0,1,incongruent,0,5093.98698003905,4723.96248466707
53,104,4,571,0.5,0.5,0,1,NaN,0.4,1,534,1,1,534,1,0,0.6,NaN,-0.215991511256357,-0.215991511256357,750,0,0,neutral,1,2102.75635112306,2046.63696387244
53,104,4,572,-0.5,-0.5,-0.5,3,3,0.6,3,442,1,1,442,0,0,0.6,0.4,-0.807736710059103,-0.807736710059103,750,1,0,congruent,0,11312.8404359729,3034.23715892543
53,104,4,573,0.5,-0.5,-0.5,4,4,0.6,4,318,1,1,318,0,0,0.6,NaN,-1.60530632583672,-1.60530632583672,750,1,0,congruent,0,1099.52741356021,239.767692916967
53,104,4,574,0.5,-0.5,-0.5,3,3,0.6,2,454,0,1,NaN,0,0,0.4,NaN,-0.730552553693527,NaN,750,0,1,congruent,0,2006.96833461291,1606.23854069034
53,104,4,575,0.5,-0.5,-0.5,4,4,0.6,4,382,1,1,382,1,0,0.4,NaN,-1.19365749188698,-1.19365749188698,750,1,0,congruent,1,6156.71284405103,3550.00646297853
53,104,4,576,-0.5,0.5,0,3,NaN,0.6,3,451,1,1,451,1,0,0.8,0.4,-0.749848592784921,-0.749848592784921,750,0,0,neutral,0.1,1554.25615971241,1759.44621996849
53,104,4,577,-0.5,-0.5,-0.5,1,1,0.6,2,617,0,1,NaN,0,0,0.6,0.4,0.317865570272208,NaN,750,0,1,congruent,0,5686.41883137327,1632.84733520614
53,104,4,578,0.5,0.5,-0.5,3,3,0.6,3,554,1,1,554,1,0,0.6,NaN,-0.0873512506470642,-0.0873512506470642,750,1,0,congruent,1,1914.20026720312,5224.59615980195
53,104,4,579,-0.5,0.5,0.5,1,2,0.6,1,658,1,1,658,1,0,1,0.4,0.581578104521257,0.581578104521257,750,0,0,incongruent,0.1,5911.59780476829,6287.83690197354
53,104,4,580,0.5,0.5,-0.5,4,4,0.8,4,280,1,1,280,1,0,1.2,NaN,-1.84972282099437,-1.84972282099437,750,1,0,congruent,1,3796.76397083847,1211.81238202974
53,104,4,581,-0.5,0.5,-0.5,3,3,1,3,369,1,1,369,1,0,1.2,0.6,-1.27727366128302,-1.27727366128302,750,1,0,congruent,0.1,2096.40860069183,2037.94051326685
53,104,4,582,0.5,0.5,-0.5,4,4,1,1,314,0,1,NaN,0,0,1.2,NaN,-1.63103437795858,NaN,750,0,1,congruent,0,8962.7348933922,2561.28443044335
53,104,4,583,0.5,0.5,-0.5,2,2,0.8,3,428,0,1,NaN,0,0,1.2,NaN,-0.897784892485608,NaN,750,0,1,congruent,0,1955.63506626727,2996.98556925235
53,104,4,584,-0.5,0.5,0.5,1,3,0.6,1,708,1,1,708,1,0,0.8,0.8,0.903178756044489,0.903178756044489,750,0,0,incongruent,0.1,5081.89304980231,1772.22147434655
53,104,4,585,-0.5,0.5,0,4,NaN,0.6,4,465,1,1,465,1,0,0.8,0.8,-0.659800410358416,-0.659800410358416,750,0,0,neutral,0.1,5663.38462870207,4053.86055106477
53,104,4,586,-0.5,-0.5,0.5,2,1,0.6,2,717,1,1,717,0,0,0.6,0.4,0.961066873318671,0.961066873318671,750,0,0,incongruent,0,1972.4566030551,2190.89076917515
53,104,4,587,-0.5,0.5,-0.5,3,3,0.6,4,459,0,1,NaN,0,0,0.4,1,-0.698392488541204,NaN,750,0,1,congruent,0,3074.06501487991,1195.6361904249
53,104,4,588,0.5,-0.5,0.5,1,2,0.4,1,462,1,1,462,1,0,0.4,NaN,-0.67909644944981,-0.67909644944981,750,0,0,incongruent,1,4509.61483395319,1979.78712711159
53,104,4,590,-0.5,-0.5,-0.5,1,1,0.4,1,776,1,0,776,0,0,0.6,0.4,1.34055564211608,1.34055564211608,750,1,0,congruent,0,4331.96689695396,2804.96483524601
53,104,4,591,0.5,-0.5,-0.5,4,4,0.4,3,672,0,1,NaN,0,0,0.4,NaN,0.671626286947762,NaN,750,0,1,congruent,0,4158.00605416467,2819.85203255658
53,104,4,592,-0.5,-0.5,0,3,NaN,0.4,3,562,1,1,562,0,0,0.4,0.2,-0.0358951464033471,-0.0358951464033471,750,0,0,neutral,0,6417.79645785234,1395.18824777553
53,104,4,593,-0.5,-0.5,-0.5,4,4,0.4,4,796,1,0,796,0,0,0.4,0,1.46919590272538,1.46919590272538,750,1,0,congruent,0,11798.6076539767,1506.49538930413
53,104,4,594,-0.5,-0.5,-0.5,1,1,0.4,1,433,1,1,433,0,0,0,0,-0.865624827333284,-0.865624827333284,750,1,0,congruent,0,11326.9495867667,1972.53992891438
53,104,4,595,-0.5,-0.5,0.5,2,3,0.4,2,393,1,1,393,1,0,0,0,-1.12290534855187,-1.12290534855187,750,0,0,incongruent,0.1,13783.1005607416,2299.09438184797
53,104,4,596,0.5,0.5,0.5,4,1,0.4,4,573,1,1,573,1,0,0.2,NaN,0.0348569969317638,0.0348569969317638,750,0,0,incongruent,1,2933.99439781644,2802.87453989306
53,104,4,598,-0.5,-0.5,0.5,4,2,0.8,4,492,1,1,492,1,0,0.8,0.2,-0.486136058535871,-0.486136058535871,750,0,0,incongruent,0.1,5832.37934095458,814.219601747461
53,104,4,599,0.5,0.5,0.5,3,4,0.8,3,447,1,1,447,1,0,1,NaN,-0.77557664490678,-0.77557664490678,750,0,0,incongruent,1,4143.24981375977,3283.94036588814
53,104,4,600,0.5,0.5,-0.5,2,2,0.8,1,600,0,1,NaN,0,0,1.4,NaN,0.208521348754309,NaN,750,0,1,congruent,0,10737.5729958329,2137.7872763609
