subid,vers,block,trial,rewlvl,efflvl,congruency,targetresp,distractorresp,rollingefflvl,resp,rt,acc,fast,accrt,isrewarded,ismiss,runavgrrgen,runavgrrcond,zrt,acczrt,rtthreshold,isdisterror,isranderror,congruence,feedback,fcz_resp_theta,fcz_resp_theta_baseline
54,104,1,1,0.5,0.5,-0.5,3,3,0.4,3,622,1,1,622,1,0,0,NaN,0.0995265246940472,0.0995265246940472,750,1,0,congruent,1,1689.58574818648,5014.14527322828
54,104,1,2,0.5,0.5,-0.5,1,1,0.5,1,406,1,1,406,1,0,0.4,NaN,-1.42185927303258,-1.42185927303258,750,1,0,congruent,1,1818.89421027159,1028.71498769602
54,104,1,3,0.5,-0.5,0.5,3,4,0.6,3,731,1,1,731,1,0,0.8,NaN,0.867262876324613,0.867262876324613,750,0,0,incongruent,1,3197.17029396395,6127.39289634568
54,104,1,4,-0.5,-0.5,0.5,4,3,0.6,4,480,1,1,480,1,0,1.2,0,-0.900643768255864,-0.900643768255864,750,0,0,incongruent,0.1,3849.85475972673,4023.83261343467
54,104,1,5,0.5,-0.5,-0.5,1,1,0.6,1,477,1,1,477,1,0,1.4,NaN,-0.921774126557623,-0.921774126557623,750,1,0,congruent,1,1856.70715384199,1615.16916346405
54,104,1,6,-0.5,-0.5,0.5,4,3,0.6,3,794,0,0,NaN,1,0,1.8,0.2,1.31100040066155,NaN,750,1,0,incongruent,0.1,7937.00320773469,2598.07969853701
54,104,1,7,-0.5,-0.5,0.5,2,1,0.6,2,510,1,1,510,0,0,1.6,0.4,-0.689340185238277,-0.689340185238277,750,0,0,incongruent,0,12754.6040250718,7347.24052133719
54,104,1,8,0.5,0.5,0,4,NaN,0.6,4,673,1,1,673,1,0,1.2,NaN,0.458742615823945,0.458742615823945,750,0,0,neutral,1,4462.5999268638,1724.21440123731
54,104,1,10,-0.5,0.5,0,2,NaN,0.8,2,610,1,1,610,1,0,1.4,0,0.0150050914870125,0.0150050914870125,750,0,0,neutral,0.1,6257.59255874164,4440.84962961357
54,104,1,11,0.5,0.5,-0.5,1,1,0.8,1,516,1,1,516,1,0,1.2,NaN,-0.64707946863476,-0.64707946863476,750,1,0,congruent,1,2914.17362132014,5945.23605916781
54,104,1,12,-0.5,0.5,0,4,NaN,1,4,529,1,1,529,1,0,1.4,0.2,-0.555514582660472,-0.555514582660472,750,0,0,neutral,0.1,8496.98852449659,2975.07310618461
54,104,1,13,-0.5,0.5,0.5,1,3,1,1,780,1,0,780,0,0,1.6,0.4,1.21239206192,1.21239206192,750,0,0,incongruent,0,1229.90790142531,6587.62832915068
54,104,1,14,0.5,-0.5,0,2,NaN,0.8,4,608,0,1,NaN,0,0,1.2,NaN,0.000918185952506694,NaN,750,0,1,neutral,0,8257.13329207738,3458.08737081499
54,104,1,15,0.5,0.5,0.5,1,4,0.8,1,892,1,0,892,0,0,0.8,NaN,2.00125877185233,2.00125877185233,750,0,0,incongruent,0,2593.0113442659,5701.25023642814
54,104,1,17,-0.5,0.5,0.5,4,2,0.6,4,521,1,1,521,1,0,0.6,0.4,-0.611862204798495,-0.611862204798495,750,0,0,incongruent,0.1,2811.24120544801,8197.86634102863
54,104,1,18,-0.5,0.5,0,3,NaN,0.6,3,557,1,1,557,1,0,0.6,0.6,-0.358297905177391,-0.358297905177391,750,0,0,neutral,0.1,20447.803409901,4989.98890604822
54,104,1,19,-0.5,-0.5,-0.5,2,2,0.6,2,886,1,0,886,1,0,0.8,0.4,1.95899805524881,1.95899805524881,750,1,0,congruent,0.1,10052.5631954868,4797.85782951594
54,104,1,20,-0.5,0.5,0,3,NaN,0.6,3,987,1,0,987,0,0,1,0.8,2.67038678474135,2.67038678474135,750,0,0,neutral,0,7139.85271330285,6769.88148256483
54,104,1,21,0.5,-0.5,-0.5,1,1,0.4,1,616,1,1,616,0,0,1,NaN,0.0572658080905299,0.0572658080905299,750,1,0,congruent,0,6636.25298750184,4441.27792133028
54,104,1,22,0.5,-0.5,-0.5,3,3,0.4,3,656,1,1,656,0,0,0.6,NaN,0.339003918780646,0.339003918780646,750,1,0,congruent,0,7058.99258597195,16498.6035057854
54,104,1,23,0.5,0.5,0.5,4,1,0.4,4,756,1,0,756,0,0,0.4,NaN,1.04334919550594,1.04334919550594,750,0,0,incongruent,0,6886.72833887522,7216.56687396272
54,104,1,24,-0.5,-0.5,-0.5,2,2,0.4,2,855,1,0,855,0,0,0.2,0.6,1.74065101946397,1.74065101946397,750,1,0,congruent,0,5749.50286798116,2963.48586505913
54,104,1,25,0.5,-0.5,0,3,NaN,0.4,4,903,0,0,NaN,1,0,0,NaN,2.07873675229211,NaN,750,0,1,neutral,1,839.809591508371,1086.32924211175
54,104,1,26,-0.5,0.5,-0.5,1,1,0.4,1,772,1,0,772,0,0,0.4,0.6,1.15604443978198,1.15604443978198,750,1,0,congruent,0,8963.77312973223,9374.92547107416
54,104,1,27,-0.5,0.5,0.5,4,3,0.4,4,542,1,1,542,1,0,0.4,0.4,-0.463949696686184,-0.463949696686184,750,0,0,incongruent,0.1,3420.96900308953,3674.5270830818
54,104,1,28,-0.5,0.5,0.5,1,4,0.4,2,798,0,0,NaN,0,0,0.6,0.6,1.33917421173056,NaN,750,0,1,incongruent,0,2321.87914769205,5327.55185424014
54,104,1,29,-0.5,-0.5,-0.5,3,3,0.2,3,766,1,0,766,0,0,0.6,0.6,1.11378372317846,1.11378372317846,750,1,0,congruent,0,4016.16380760653,8833.25241859844
54,104,1,30,-0.5,-0.5,0,4,NaN,0.2,4,475,1,1,475,0,0,0.6,0.4,-0.935861032092128,-0.935861032092128,750,0,0,neutral,0,4491.03559263223,2324.06321844735
54,104,1,31,0.5,0.5,0.5,1,4,0.2,1,670,1,1,670,1,0,0.2,NaN,0.437612257522186,0.437612257522186,750,0,0,incongruent,1,6312.83913395826,2781.83391631098
54,104,1,32,-0.5,0.5,0.5,2,1,0.4,2,750,1,1,750,0,0,0.6,0.4,1.00108847890242,1.00108847890242,750,0,0,incongruent,0,10771.1145295387,5071.95558753118
54,104,1,33,0.5,0.5,-0.5,3,3,0.4,3,716,1,1,716,1,0,0.4,NaN,0.761611084815819,0.761611084815819,750,1,0,congruent,1,3414.39138410452,4108.09561677943
54,104,1,34,-0.5,-0.5,0.5,1,2,0.6,1,916,1,0,916,0,0,0.8,0.2,2.1703016382664,2.1703016382664,750,0,0,incongruent,0,3160.91749104075,3605.92069899512
54,104,1,35,0.5,-0.5,-0.5,3,3,0.6,1,705,0,1,NaN,0,0,0.8,NaN,0.684133104376037,NaN,750,0,1,congruent,0,4469.83854595772,3805.60984339048
54,104,1,36,0.5,-0.5,0.5,2,4,0.6,3,792,0,0,NaN,0,0,0.8,NaN,1.29691349512704,NaN,750,0,1,incongruent,0,4096.54526753821,4494.86610348524
54,104,1,37,0.5,-0.5,0.5,3,2,0.6,1,577,0,1,NaN,1,0,0.4,NaN,-0.217428849832333,NaN,750,0,1,incongruent,1,3830.94370313346,1503.17357863753
54,104,1,38,0.5,0.5,-0.5,1,1,0.6,1,466,1,1,466,1,0,0.8,NaN,-0.999252106997404,-0.999252106997404,750,1,0,congruent,1,1326.52141382154,2947.94460353517
54,104,1,39,0.5,-0.5,-0.5,2,2,0.6,3,668,0,1,NaN,0,0,0.8,NaN,0.42352535198768,NaN,750,0,1,congruent,0,853.679075284385,7030.13595780216
54,104,1,40,-0.5,-0.5,0,3,NaN,0.6,3,523,1,1,523,0,0,0.8,0.2,-0.597775299263989,-0.597775299263989,750,0,0,neutral,0,5130.21341827046,1280.36181533422
54,104,1,41,0.5,0.5,0.5,4,2,0.6,4,747,1,1,747,1,0,0.8,NaN,0.979958120600659,0.979958120600659,750,0,0,incongruent,1,4076.43192080854,2416.90202744996
54,104,1,42,-0.5,0.5,0.5,1,3,0.8,1,869,1,0,869,0,0,1.2,0.2,1.83925935820551,1.83925935820551,750,0,0,incongruent,0,11167.0277848859,9403.20632010829
54,104,1,43,0.5,0.5,0.5,2,4,0.6,2,774,1,0,774,0,0,0.8,NaN,1.17013134531649,1.17013134531649,750,0,0,incongruent,0,4267.77749125553,4597.48620760555
54,104,1,44,-0.5,0.5,-0.5,1,1,0.6,1,349,1,1,349,1,0,0.4,0.2,-1.82333608076599,-1.82333608076599,750,1,0,congruent,0.1,2691.31634782655,2455.11978207389
54,104,1,45,-0.5,-0.5,0,4,NaN,0.6,4,602,1,1,602,1,0,0.6,0,-0.0413425306510107,-0.0413425306510107,750,0,0,neutral,0.1,1258.25448096886,8034.4613676853
54,104,1,46,-0.5,-0.5,-0.5,3,3,0.6,4,615,0,1,NaN,0,0,0.8,0.2,0.050222355323277,NaN,750,0,1,congruent,0,10639.345843479,1269.78967686155
54,104,1,47,0.5,-0.5,0.5,2,1,0.6,2,594,1,1,594,1,0,0.4,NaN,-0.0976901527890338,-0.0976901527890338,750,0,0,incongruent,1,7020.97548733224,3717.29367188335
54,104,1,48,0.5,0.5,-0.5,3,3,0.6,3,381,1,1,381,1,0,0.8,NaN,-1.5979455922139,-1.5979455922139,750,1,0,congruent,1,648.192782510338,4603.44182810826
54,104,1,49,-0.5,0.5,0,1,NaN,0.6,2,471,0,1,NaN,0,0,1.2,0.4,-0.96403484316114,NaN,750,0,1,neutral,0,13665.765075209,3492.48388459372
54,104,1,50,-0.5,-0.5,0.5,2,4,0.4,4,648,0,1,NaN,0,0,1,0.2,0.282656296642622,NaN,750,1,0,incongruent,0,770.712233257668,2322.91037915109
54,104,1,51,0.5,-0.5,0.5,3,1,0.4,1,583,0,1,NaN,0,0,0.8,NaN,-0.175168133228816,NaN,750,1,0,incongruent,0,5846.26662877084,2985.25089097548
54,104,1,52,-0.5,0.5,0,2,NaN,0.4,3,740,0,1,NaN,0,0,0.8,0.2,0.930653951229889,NaN,750,0,1,neutral,0,1982.99874546739,8516.81458862138
54,104,1,53,-0.5,0.5,-0.5,4,4,0.4,4,488,1,1,488,1,0,0.4,0.2,-0.844296146117841,-0.844296146117841,750,1,0,congruent,0.1,5119.80388763362,5631.43308211176
54,104,1,54,0.5,-0.5,0,2,NaN,0.6,2,883,1,0,883,1,0,0.2,NaN,1.93786769694705,1.93786769694705,750,0,0,neutral,1,2684.20143933646,2430.78635580771
54,104,1,55,0.5,0.5,0.5,3,2,0.6,3,493,1,1,493,1,0,0.6,NaN,-0.809078882281576,-0.809078882281576,750,0,0,incongruent,1,2689.68340702218,1067.02500656397
54,104,1,56,0.5,-0.5,0.5,2,1,0.6,1,653,0,1,NaN,1,0,1,NaN,0.317873560478887,NaN,750,1,0,incongruent,1,18471.158440818,8021.72054869749
54,104,1,57,0.5,-0.5,0,3,NaN,0.6,3,881,1,0,881,0,0,1.4,NaN,1.92378079141255,1.92378079141255,750,0,0,neutral,0,2098.22066835813,1445.78650063069
54,104,1,58,-0.5,-0.5,-0.5,2,2,0.6,2,701,1,1,701,1,0,1.4,0.2,0.655959293307026,0.655959293307026,750,1,0,congruent,0.1,7544.20137533478,987.754090513444
54,104,1,59,0.5,-0.5,-0.5,3,3,0.6,3,736,1,1,736,1,0,1.4,NaN,0.902480140160877,0.902480140160877,750,1,0,congruent,1,3247.99790451634,2355.09383689899
54,104,1,60,0.5,-0.5,0.5,1,4,0.6,4,936,0,0,NaN,1,0,1.4,NaN,2.31117069361146,NaN,750,1,0,incongruent,1,3952.40271439759,4471.08104847124
54,104,1,61,-0.5,-0.5,0.5,3,1,0.6,1,489,0,1,NaN,0,0,1.4,0.4,-0.837252693350588,NaN,750,1,0,incongruent,0,2583.7464243555,3192.93825151232
54,104,1,62,-0.5,0.5,0,4,NaN,0.6,4,609,1,1,609,1,0,1,0.4,0.00796163871975959,0.00796163871975959,750,0,0,neutral,0.1,1717.70268059927,7835.9702934774
54,104,1,63,-0.5,-0.5,-0.5,2,2,0.6,2,770,1,0,770,1,0,1.2,0.4,1.14195753424748,1.14195753424748,750,1,0,congruent,0.1,3472.39535621787,5161.79865210011
54,104,1,64,-0.5,0.5,0,4,NaN,0.6,4,511,1,1,511,1,0,1.2,0.6,-0.682296732471024,-0.682296732471024,750,0,0,neutral,0.1,2629.97771144989,3006.41197545567
54,104,1,65,-0.5,-0.5,-0.5,1,1,0.8,1,541,1,1,541,0,0,1,0.4,-0.470993149453437,-0.470993149453437,750,1,0,congruent,0,973.877961997691,3083.30186296543
54,104,1,66,0.5,-0.5,0.5,2,3,0.8,4,676,0,1,NaN,1,0,0.6,NaN,0.479872974125704,NaN,750,0,1,incongruent,1,6902.80773998683,4907.95408552383
54,104,1,67,0.5,-0.5,-0.5,1,1,0.8,2,498,0,1,NaN,1,0,1,NaN,-0.773861618445312,NaN,750,0,1,congruent,1,597.591585005233,1851.14845632355
54,104,1,68,-0.5,0.5,-0.5,4,4,0.8,4,569,1,1,569,1,0,1.2,0.6,-0.273776471970356,-0.273776471970356,750,1,0,congruent,0.1,3627.09298289937,2924.38744927027
54,104,1,70,-0.5,-0.5,0.5,3,1,0.8,1,737,0,1,NaN,1,0,1,0.4,0.90952359292813,NaN,750,1,0,incongruent,0.1,5799.60862646749,1943.6094866942
54,104,1,71,0.5,0.5,0,1,NaN,0.8,1,728,1,1,728,1,0,1.2,NaN,0.846132518022854,0.846132518022854,750,0,0,neutral,1,4398.05677717656,1861.16609738443
54,104,1,72,0.5,0.5,-0.5,3,3,0.8,3,951,1,0,951,0,0,1.2,NaN,2.41682248512025,2.41682248512025,750,1,0,congruent,0,1710.06802701561,3908.12570031331
54,104,1,73,0.5,-0.5,0.5,1,4,0.6,1,567,1,1,567,0,0,0.8,NaN,-0.287863377504862,-0.287863377504862,750,0,0,incongruent,0,6300.94285018264,1118.56910873021
54,104,1,74,0.5,0.5,0.5,4,2,0.6,4,535,1,1,535,1,0,0.6,NaN,-0.513253866056955,-0.513253866056955,750,0,0,incongruent,1,818.553217334642,845.77459651469
54,104,1,75,0.5,-0.5,0,3,NaN,0.6,3,976,1,0,976,0,0,1,NaN,2.59290880430157,2.59290880430157,750,0,0,neutral,0,3349.56004888085,3755.0795237557
54,104,1,76,-0.5,0.5,-0.5,4,4,0.6,4,780,1,0,780,0,0,0.8,0.8,1.21239206192,1.21239206192,750,1,0,congruent,0,2150.15344935293,3028.34624050642
54,104,1,77,0.5,-0.5,0.5,1,2,0.4,1,943,1,0,943,0,0,0.4,NaN,2.36047486298223,2.36047486298223,750,0,0,incongruent,0,2554.37135260954,2410.48673766695
54,104,1,78,-0.5,-0.5,0,3,NaN,0.4,3,722,1,1,722,0,0,0.4,0.6,0.803871801419337,0.803871801419337,750,0,0,neutral,0,4510.32339783668,2095.21993205212
54,104,1,79,0.5,-0.5,-0.5,1,1,0.4,1,509,1,1,509,0,0,0.4,NaN,-0.69638363800553,-0.69638363800553,750,1,0,congruent,0,5664.96443109048,2902.32403243256
54,104,1,80,-0.5,-0.5,0,4,NaN,0.4,4,858,1,0,858,0,0,0,0.4,1.76178137776573,1.76178137776573,750,0,0,neutral,0,7996.00668577833,12113.3369716833
54,104,1,81,-0.5,-0.5,-0.5,3,3,0.4,3,446,1,1,446,0,0,0,0.4,-1.14012116234246,-1.14012116234246,750,1,0,congruent,0,2524.30559347385,1848.35341426801
54,104,1,82,0.5,-0.5,-0.5,4,4,0.4,1,510,0,1,NaN,0,0,0,NaN,-0.689340185238277,NaN,750,0,1,congruent,0,14403.5083931896,1564.71338441519
54,104,1,83,-0.5,0.5,0.5,3,1,0.4,1,634,0,1,NaN,0,0,0,0.8,0.184047957901082,NaN,750,1,0,incongruent,0,1424.30284687765,2238.64861246929
54,104,1,84,0.5,0.5,0,4,NaN,0.4,4,732,1,1,732,1,0,0,NaN,0.874306329091866,0.874306329091866,750,0,0,neutral,1,2239.73110754938,1354.65153195415
54,104,1,85,-0.5,0.5,-0.5,2,2,0.4,2,471,1,1,471,1,0,0.4,0.6,-0.96403484316114,-0.96403484316114,750,1,0,congruent,0.1,3463.01432605337,2203.34671497557
54,104,1,86,0.5,-0.5,-0.5,4,4,0.6,4,604,1,1,604,1,0,0.6,NaN,-0.0272556251165049,-0.0272556251165049,750,1,0,congruent,1,11115.2869091177,3726.04814644572
54,104,1,87,-0.5,-0.5,-0.5,2,2,0.6,2,559,1,1,559,1,0,1,0.2,-0.344210999642885,-0.344210999642885,750,1,0,congruent,0.1,1781.45349697057,1430.04386785157
54,104,1,88,0.5,-0.5,0,3,NaN,0.6,3,569,1,1,569,0,0,1.2,NaN,-0.273776471970356,-0.273776471970356,750,0,0,neutral,0,4243.74558268057,1828.29232426795
54,104,1,89,0.5,-0.5,0.5,1,4,0.6,4,620,0,1,NaN,0,0,1.2,NaN,0.0854396191595414,NaN,750,1,0,incongruent,0,3115.96777668257,4515.38783202184
54,104,1,90,0.5,-0.5,0.5,3,2,0.6,2,765,0,0,NaN,1,0,0.8,NaN,1.10674027041121,NaN,750,1,0,incongruent,1,2752.37513966155,4903.4144251432
54,104,1,91,0.5,-0.5,-0.5,1,1,0.6,1,490,1,1,490,0,0,1,NaN,-0.830209240583335,-0.830209240583335,750,1,0,congruent,0,1712.12298339815,2873.80655594038
54,104,1,92,0.5,-0.5,0.5,4,3,0.6,4,533,1,1,533,1,0,0.6,NaN,-0.52734077159146,-0.52734077159146,750,0,0,incongruent,1,4075.70377978721,3836.17651056342
54,104,1,93,-0.5,-0.5,0.5,3,4,0.6,1,449,0,1,NaN,1,0,0.8,0.4,-1.1189908040407,NaN,750,0,1,incongruent,0.1,13997.4218561033,2773.67148187331
54,104,1,94,-0.5,-0.5,0,2,NaN,0.6,3,631,0,1,NaN,1,0,1,0.4,0.162917599599323,NaN,750,0,1,neutral,0.1,6840.78645699272,6347.86675207415
54,104,1,95,0.5,-0.5,0.5,3,4,0.6,1,497,0,1,NaN,0,0,1.2,NaN,-0.780905071212565,NaN,750,0,1,incongruent,0,4572.00675645201,2185.70692551434
54,104,1,97,0.5,-0.5,0,4,NaN,0.6,4,625,1,1,625,0,0,1,NaN,0.120656882995806,0.120656882995806,750,0,0,neutral,0,7375.81999168402,1241.72752966021
54,104,1,98,-0.5,-0.5,-0.5,2,2,0.6,1,827,0,0,NaN,1,0,0.6,0.8,1.54343434198089,NaN,750,0,1,congruent,0.1,2182.75184574899,10169.7763919055
54,104,1,99,-0.5,-0.5,0.5,4,1,0.6,4,884,1,0,884,1,0,0.6,1,1.94491114971431,1.94491114971431,750,0,0,incongruent,0.1,2533.41132072549,1325.70375106798
54,104,1,100,-0.5,-0.5,0.5,2,3,0.6,1,696,0,1,NaN,1,0,0.6,1,0.620742029470761,NaN,750,0,1,incongruent,0.1,2592.72605188807,4355.86120573257
54,104,1,101,-0.5,0.5,0,1,NaN,0.6,3,643,0,1,NaN,0,0,0.8,0.6,0.247439032806358,NaN,750,0,1,neutral,0,13387.4872256725,3144.99393211157
54,104,1,102,-0.5,-0.5,0.5,2,4,0.4,4,692,0,1,NaN,0,0,0.6,1,0.59256821840175,NaN,750,1,0,incongruent,0,5004.35645455811,4876.43477336091
54,104,1,103,0.5,0.5,-0.5,1,1,0.4,1,489,1,1,489,1,0,0.6,NaN,-0.837252693350588,-0.837252693350588,750,1,0,congruent,1,15644.7389951751,6067.17789282585
54,104,1,104,0.5,-0.5,0,4,NaN,0.6,4,638,1,1,638,1,0,0.8,NaN,0.212221768970094,0.212221768970094,750,0,0,neutral,1,1264.42959323178,2678.65506582274
54,104,1,105,-0.5,0.5,-0.5,3,3,0.6,3,991,1,0,991,0,0,1,0.4,2.69856059581037,2.69856059581037,750,1,0,congruent,0,2495.59235585782,4899.80486717931
54,104,1,106,-0.5,-0.5,-0.5,1,1,0.6,1,690,1,1,690,1,0,0.8,0.8,0.578481312867244,0.578481312867244,750,1,0,congruent,0.1,5899.54721238308,3456.90019332773
54,104,1,107,0.5,-0.5,0,4,NaN,0.6,4,465,1,1,465,0,0,1,NaN,-1.00629555976466,-1.00629555976466,750,0,0,neutral,0,2141.06666403709,2244.46426830748
54,104,1,108,0.5,-0.5,-0.5,1,1,0.6,1,376,1,1,376,1,0,1,NaN,-1.63316285605016,-1.63316285605016,750,1,0,congruent,1,4289.25379622582,3077.15050123047
54,104,1,109,0.5,-0.5,0,4,NaN,0.6,4,487,1,1,487,0,0,1,NaN,-0.851339598885094,-0.851339598885094,750,0,0,neutral,0,2293.28966433408,4376.76792176949
54,104,1,110,-0.5,0.5,-0.5,3,3,0.6,3,627,1,1,627,1,0,0.6,0.2,0.134743788530312,0.134743788530312,750,1,0,congruent,0.1,2136.15640451992,1466.44444935572
54,104,1,111,-0.5,0.5,-0.5,4,4,0.6,4,545,1,1,545,1,0,0.8,0.4,-0.442819338384426,-0.442819338384426,750,1,0,congruent,0.1,2134.96677396906,5302.51375147292
54,104,1,113,0.5,0.5,0.5,4,3,0.6,4,639,1,1,639,1,0,0.8,NaN,0.219265221737346,0.219265221737346,750,0,0,incongruent,1,5439.71086338082,1905.79257204889
54,104,1,114,0.5,0.5,-0.5,2,2,0.8,2,756,1,0,756,0,0,0.8,NaN,1.04334919550594,1.04334919550594,750,1,0,congruent,0,2822.9010369502,2279.36654581544
54,104,1,115,-0.5,0.5,0.5,4,3,0.6,4,612,1,1,612,1,0,0.8,0.6,0.0290919970215183,0.0290919970215183,750,0,0,incongruent,0.1,6381.80216524618,482.327932147362
54,104,1,116,-0.5,-0.5,0.5,3,4,0.8,4,701,0,1,NaN,1,0,0.8,0.6,0.655959293307026,NaN,750,1,0,incongruent,0.1,6760.70082296263,8373.15153257497
54,104,1,117,0.5,-0.5,0.5,4,2,0.8,2,810,0,0,NaN,1,0,0.8,NaN,1.42369564493759,NaN,750,1,0,incongruent,1,14303.8045415985,2233.77525669567
54,104,1,118,0.5,0.5,0.5,1,4,0.8,4,624,0,1,NaN,0,0,1.2,NaN,0.113613430228553,NaN,750,1,0,incongruent,0,18095.6057478478,2839.13093590691
54,104,1,119,-0.5,0.5,0,4,NaN,0.6,4,456,1,1,456,1,0,0.8,0.6,-1.06968663466993,-1.06968663466993,750,0,0,neutral,0.1,4244.21572163786,2089.29819551433
54,104,1,120,0.5,0.5,0.5,1,3,0.6,1,287,1,1,287,1,0,1,NaN,-2.26003015233567,-2.26003015233567,750,0,0,incongruent,1,1153.34402644335,5330.30297643084
54,104,1,121,0.5,0.5,0.5,3,4,0.6,4,493,0,1,NaN,0,0,1.2,NaN,-0.809078882281576,NaN,750,1,0,incongruent,0,6448.70681634234,1469.16974886902
54,104,1,122,-0.5,0.5,-0.5,1,1,0.6,1,498,1,1,498,1,0,1,0.8,-0.773861618445312,-0.773861618445312,750,1,0,congruent,0.1,4018.16068715971,1916.42404161795
54,104,1,123,0.5,0.5,-0.5,2,2,0.6,2,584,1,1,584,1,0,0.8,NaN,-0.168124680461563,-0.168124680461563,750,1,0,congruent,1,29565.0863146583,5554.13399778694
54,104,1,124,0.5,0.5,0.5,1,4,0.8,3,758,0,0,NaN,0,0,1.2,NaN,1.05743610104044,NaN,750,0,1,incongruent,0,8967.91516999718,8639.27737337575
54,104,1,128,-0.5,-0.5,-0.5,4,4,0.4,4,715,1,1,715,0,0,0.8,0.4,0.754567632048566,0.754567632048566,750,1,0,congruent,0,4894.17294345031,3976.56664911654
54,104,1,129,-0.5,-0.5,0,2,NaN,0.4,3,755,0,0,NaN,1,0,0.4,0.4,1.03630574273868,NaN,750,0,1,neutral,0.1,4874.21854318833,2995.65872172363
54,104,1,130,-0.5,0.5,-0.5,1,1,0.4,1,526,1,1,526,1,0,0.6,0.8,-0.576644940962231,-0.576644940962231,750,1,0,congruent,0.1,3614.17362989529,5447.04856095926
54,104,1,132,-0.5,0.5,0.5,4,2,0.4,1,558,0,1,NaN,0,0,0.4,0.8,-0.351254452410138,NaN,750,0,1,incongruent,0,1179.60057744816,6361.6942660063
54,104,1,134,-0.5,-0.5,0.5,2,4,0.2,4,726,0,1,NaN,0,0,0.4,0.4,0.832045612488348,NaN,750,1,0,incongruent,0,9245.38591914741,1119.22445696517
54,104,1,135,0.5,-0.5,-0.5,3,3,0.2,3,589,1,1,589,0,0,0.2,NaN,-0.132907416625298,-0.132907416625298,750,1,0,congruent,0,5863.52852149416,4876.28730519602
54,104,1,136,0.5,-0.5,0.5,1,2,0.2,1,524,1,1,524,0,0,0,NaN,-0.590731846496736,-0.590731846496736,750,0,0,incongruent,0,2217.98840008299,2816.7058565373
54,104,1,137,0.5,0.5,0.5,2,4,0.2,4,809,0,0,NaN,0,0,0,NaN,1.41665219217034,NaN,750,1,0,incongruent,0,5862.37834375505,5893.07658303957
54,104,1,138,-0.5,-0.5,0.5,3,1,0.2,3,639,1,1,639,0,0,0,0.2,0.219265221737346,0.219265221737346,750,0,0,incongruent,0,3444.02129182965,4141.51264736027
54,104,1,139,0.5,-0.5,0,2,NaN,0.2,1,628,0,1,NaN,0,0,0,NaN,0.141787241297565,NaN,750,0,1,neutral,0,4069.22180865622,3193.9485641203
54,104,1,140,0.5,0.5,-0.5,1,1,0.2,1,650,1,1,650,1,0,0,NaN,0.296743202177128,0.296743202177128,750,1,0,congruent,1,2991.34849651093,4133.55320349754
54,104,1,141,-0.5,-0.5,0.5,3,2,0.4,3,656,1,1,656,0,0,0.4,0.2,0.339003918780646,0.339003918780646,750,0,0,incongruent,0,3732.06580338082,14232.8130908293
54,104,1,142,-0.5,-0.5,0,1,NaN,0.4,1,668,1,1,668,0,0,0.4,0.2,0.42352535198768,0.42352535198768,750,0,0,neutral,0,8139.95874674053,1227.80707804557
54,104,1,143,-0.5,0.5,-0.5,3,3,0.4,1,516,0,1,NaN,0,0,0.4,0.6,-0.64707946863476,NaN,750,0,1,congruent,0,14730.8431151078,1548.73357802718
54,104,1,144,-0.5,0.5,-0.5,4,4,0.2,4,504,1,1,504,1,0,0.4,0.4,-0.731600901841794,-0.731600901841794,750,1,0,congruent,0.1,2474.01125034113,3148.20189078989
54,104,1,145,0.5,0.5,0.5,1,2,0.4,2,562,0,1,NaN,0,0,0.6,NaN,-0.323080641341126,NaN,750,1,0,incongruent,0,1553.87767772866,2433.46811002244
54,104,1,146,0.5,-0.5,0.5,2,4,0.4,4,686,0,1,NaN,1,0,0.2,NaN,0.550307501798233,NaN,750,1,0,incongruent,1,8354.34044674985,6955.94946345322
54,104,1,147,-0.5,-0.5,-0.5,1,1,0.4,1,514,1,1,514,0,0,0.6,0,-0.661166374169265,-0.661166374169265,750,1,0,congruent,0,5113.25876704403,2446.96379022755
54,104,1,148,0.5,-0.5,0,2,NaN,0.4,4,560,0,1,NaN,0,0,0.6,NaN,-0.337167546875632,NaN,750,0,1,neutral,0,4470.25488772187,1291.91448678935
54,104,1,149,-0.5,-0.5,-0.5,4,4,0.4,4,671,1,1,671,0,0,0.6,0,0.444655710289439,0.444655710289439,750,1,0,congruent,0,2940.24000785213,13341.0279957405
54,104,1,150,-0.5,0.5,-0.5,2,2,0.4,2,897,1,0,897,0,0,0.4,0.4,2.03647603568859,2.03647603568859,750,1,0,congruent,0,5764.50896846298,747.486798095833
54,104,2,152,-0.5,0.5,0.5,4,2,0.2,4,560,1,1,560,1,0,0,0.4,-0.337167546875632,-0.337167546875632,750,0,0,incongruent,0.1,7372.76813788608,3029.63927545538
54,104,2,153,0.5,0.5,0.5,3,1,0.4,3,763,1,0,763,0,0,0.2,NaN,1.09265336487671,1.09265336487671,750,0,0,incongruent,0,4385.02931675374,6844.7895739932
54,104,2,154,0.5,-0.5,0.5,4,3,0.2,1,583,0,1,NaN,0,0,0.2,NaN,-0.175168133228816,NaN,750,0,1,incongruent,0,13729.1170086019,3044.4622664693
54,104,2,155,-0.5,-0.5,0.5,1,4,0.2,2,478,0,1,NaN,0,0,0.2,0,-0.91473067379037,NaN,750,0,1,incongruent,0,1654.87271805917,2083.96835277211
54,104,2,156,0.5,-0.5,0,4,NaN,0.2,4,619,1,1,619,0,0,0.2,NaN,0.0783961663922885,0.0783961663922885,750,0,0,neutral,0,6536.27020417098,1392.07962122145
54,104,2,157,0.5,-0.5,-0.5,1,1,0.2,1,629,1,1,629,0,0,0.2,NaN,0.148830694064817,0.148830694064817,750,1,0,congruent,0,2163.14291836387,3652.20263269117
54,104,2,158,-0.5,0.5,0,3,NaN,0.2,3,464,1,1,464,1,0,0,0.4,-1.01333901253191,-1.01333901253191,750,0,0,neutral,0.1,3268.0758798685,3275.7349682669
54,104,2,160,-0.5,0.5,-0.5,2,2,0.4,2,948,1,0,948,0,0,0.2,0.6,2.39569212681849,2.39569212681849,750,1,0,congruent,0,7934.1367009708,4320.16244342712
54,104,2,161,-0.5,-0.5,0,1,NaN,0.4,3,604,0,1,NaN,0,0,0.2,0,-0.0272556251165049,NaN,750,0,1,neutral,0,2854.97465458464,1644.4938242055
54,104,2,162,-0.5,0.5,-0.5,2,2,0.4,2,425,1,1,425,1,0,0.2,0.6,-1.28803367045477,-1.28803367045477,750,1,0,congruent,0.1,5060.6087410517,6132.60025265371
54,104,2,163,0.5,-0.5,0,3,NaN,0.6,3,747,1,1,747,1,0,0.4,NaN,0.979958120600659,0.979958120600659,750,0,0,neutral,1,11839.1267993054,1071.83607732909
54,104,2,164,0.5,-0.5,-0.5,1,1,0.6,4,309,0,1,NaN,1,0,0.6,NaN,-2.10507419145611,NaN,750,0,1,congruent,1,14060.3292598094,3388.89023345741
54,104,2,165,-0.5,-0.5,0.5,2,3,0.6,4,331,0,1,NaN,1,0,1,0,-1.95011823057655,NaN,750,0,1,incongruent,0.1,1949.54444408054,3629.4871316407
54,104,2,166,-0.5,0.5,0,4,NaN,0.6,4,775,1,0,775,0,0,1.2,0.6,1.17717479808374,1.17717479808374,750,0,0,neutral,0,3701.55376604224,4261.62117972511
54,104,2,167,-0.5,-0.5,-0.5,1,1,0.4,3,703,0,1,NaN,1,0,1.2,0.2,0.670046198841532,NaN,750,0,1,congruent,0.1,1859.49813800952,2400.57172921016
54,104,2,168,-0.5,-0.5,0.5,3,4,0.4,4,480,0,1,NaN,0,0,1.2,0.4,-0.900643768255864,NaN,750,1,0,incongruent,0,8483.37673730846,2018.90576341033
54,104,2,169,-0.5,-0.5,-0.5,2,2,0.4,1,550,0,1,NaN,0,0,0.8,0.4,-0.407602074548161,NaN,750,0,1,congruent,0,1779.24632414214,1142.51764057146
54,104,2,170,-0.5,0.5,-0.5,4,4,0.4,4,593,1,1,593,1,0,0.4,0.6,-0.104733605556287,-0.104733605556287,750,1,0,congruent,0.1,1937.52479185542,2333.77231804955
54,104,2,171,-0.5,0.5,0,2,NaN,0.6,1,703,0,1,NaN,0,0,0.4,0.6,0.670046198841532,NaN,750,0,1,neutral,0,774.590293189305,5522.92615882481
54,104,2,172,-0.5,0.5,-0.5,3,3,0.4,3,646,1,1,646,1,0,0.4,0.4,0.268569391108117,0.268569391108117,750,1,0,congruent,0.1,1928.76844988576,10355.0355490386
54,104,2,173,0.5,-0.5,-0.5,1,1,0.6,1,624,1,1,624,1,0,0.4,NaN,0.113613430228553,0.113613430228553,750,1,0,congruent,1,3548.44344747755,10266.921520221
54,104,2,175,0.5,0.5,-0.5,2,2,0.6,2,604,1,1,604,1,0,1.2,NaN,-0.0272556251165049,-0.0272556251165049,750,1,0,congruent,1,5430.72779282158,3405.02717342484
54,104,2,176,-0.5,0.5,-0.5,4,4,0.6,3,769,0,0,NaN,0,0,1.4,0.6,1.13491408148022,NaN,750,0,1,congruent,0,14655.543067056,4543.92414446684
54,104,2,177,-0.5,0.5,0,2,NaN,0.6,2,608,1,1,608,1,0,1.4,0.4,0.000918185952506694,0.000918185952506694,750,0,0,neutral,0.1,2475.29769011602,1525.99422781029
54,104,2,178,-0.5,-0.5,0.5,3,1,0.6,4,583,0,1,NaN,0,0,1.4,0.4,-0.175168133228816,NaN,750,0,1,incongruent,0,2274.54075968483,2457.89483837513
54,104,2,179,0.5,-0.5,0,1,NaN,0.6,2,551,0,1,NaN,0,0,1,NaN,-0.400558621780908,NaN,750,0,1,neutral,0,4631.34982776781,2520.68315840887
54,104,2,180,0.5,0.5,-0.5,3,3,0.6,3,662,1,1,662,1,0,0.6,NaN,0.381264635384163,0.381264635384163,750,1,0,congruent,1,16129.5534837292,9067.50688201388
54,104,2,181,-0.5,-0.5,0,1,NaN,0.8,2,767,0,0,NaN,0,0,0.6,0.4,1.12082717594572,NaN,750,0,1,neutral,0,2956.7893023441,6891.07043826066
54,104,2,182,-0.5,0.5,-0.5,3,3,0.8,3,517,1,1,517,1,0,0.6,0.6,-0.640036015867507,-0.640036015867507,750,1,0,congruent,0.1,5413.84907643262,3705.64529966197
54,104,2,183,-0.5,0.5,-0.5,2,2,0.8,2,660,1,1,660,1,0,0.6,0.6,0.367177729849657,0.367177729849657,750,1,0,congruent,0.1,9643.86540924882,4454.00464590371
54,104,2,184,0.5,-0.5,-0.5,1,1,0.8,1,615,1,1,615,0,0,0.8,NaN,0.050222355323277,0.050222355323277,750,1,0,congruent,0,4459.43137367293,1392.86593935166
54,104,2,185,-0.5,0.5,0.5,4,3,0.8,3,616,0,1,NaN,0,0,0.8,0.8,0.0572658080905299,NaN,750,1,0,incongruent,0,2191.26931708057,4363.35928496704
54,104,2,186,0.5,0.5,0,3,NaN,0.8,2,688,0,1,NaN,0,0,0.4,NaN,0.564394407332738,NaN,750,0,1,neutral,0,14396.6129063233,3896.69919129301
54,104,2,187,-0.5,0.5,-0.5,2,2,0.6,1,784,0,0,NaN,0,0,0.4,0.6,1.24056587298902,NaN,750,0,1,congruent,0,1984.40643852227,9152.93378994091
54,104,2,188,-0.5,-0.5,0,1,NaN,0.4,4,635,0,1,NaN,0,0,0.2,0.2,0.191091410668335,NaN,750,0,1,neutral,0,1814.071632377,3338.87190525691
54,104,2,189,-0.5,0.5,-0.5,2,2,0.4,2,645,1,1,645,1,0,0,0.6,0.261525938340864,0.261525938340864,750,1,0,congruent,0.1,3321.97070210687,3963.55421423538
54,104,2,190,0.5,-0.5,-0.5,4,4,0.4,4,796,1,0,796,1,0,0.2,NaN,1.32508730619605,1.32508730619605,750,1,0,congruent,1,11509.2690936898,2779.8919148999
54,104,2,191,-0.5,0.5,0,1,NaN,0.4,3,595,0,1,NaN,0,0,0.6,0.6,-0.0906467000217809,NaN,750,0,1,neutral,0,2101.22704663894,4985.32168790685
54,104,2,192,-0.5,-0.5,0.5,3,2,0.2,4,789,0,0,NaN,0,0,0.6,0,1.27578313682528,NaN,750,0,1,incongruent,0,4306.36338460666,5986.89502936995
54,104,2,194,0.5,-0.5,-0.5,2,2,0.2,1,551,0,1,NaN,0,0,0.8,NaN,-0.400558621780908,NaN,750,0,1,congruent,0,3427.3961255096,2262.36653741673
54,104,2,195,-0.5,-0.5,0,3,NaN,0.2,3,629,1,1,629,0,0,0.6,0.2,0.148830694064817,0.148830694064817,750,0,0,neutral,0,4107.05102544328,6085.78272212034
54,104,2,196,0.5,0.5,0.5,4,3,0.2,4,469,1,1,469,1,0,0.2,NaN,-0.978121748695646,-0.978121748695646,750,0,0,incongruent,1,6499.81289746648,3076.20250937598
54,104,2,197,0.5,-0.5,0,3,NaN,0.4,3,634,1,1,634,0,0,0.6,NaN,0.184047957901082,0.184047957901082,750,0,0,neutral,0,5943.63111150799,3900.71380146887
54,104,2,198,0.5,0.5,-0.5,4,4,0.4,4,576,1,1,576,1,0,0.6,NaN,-0.224472302599586,-0.224472302599586,750,1,0,congruent,1,3110.26471470605,3639.24097572905
54,104,2,199,-0.5,-0.5,0,1,NaN,0.6,1,704,1,1,704,1,0,0.8,0.2,0.677089651608785,0.677089651608785,750,0,0,neutral,0.1,4338.0769848324,15061.9039886433
54,104,2,200,-0.5,0.5,-0.5,3,3,0.6,3,602,1,1,602,1,0,1,0.4,-0.0413425306510107,-0.0413425306510107,750,1,0,congruent,0.1,11163.0516222651,9492.92224095368
54,104,2,201,0.5,0.5,-0.5,2,2,0.8,2,482,1,1,482,1,0,1.2,NaN,-0.886556862721358,-0.886556862721358,750,1,0,congruent,1,6354.12277845424,1604.29128671822
54,104,2,202,0.5,0.5,-0.5,3,3,0.8,3,443,1,1,443,1,0,1.2,NaN,-1.16125152064422,-1.16125152064422,750,1,0,congruent,1,1520.42272894111,4444.94721369875
54,104,2,203,-0.5,0.5,0.5,1,2,1,3,892,0,0,NaN,0,0,1.6,0.4,2.00125877185233,NaN,750,0,1,incongruent,0,7431.41917728435,6260.18454083624
54,104,2,204,-0.5,0.5,0.5,2,4,0.8,2,591,1,1,591,1,0,1.2,0.4,-0.118820511090793,-0.118820511090793,750,0,0,incongruent,0.1,8411.21597424303,2984.99403369693
54,104,2,205,-0.5,0.5,-0.5,1,1,0.8,1,507,1,1,507,1,0,1.2,0.6,-0.710470543540036,-0.710470543540036,750,1,0,congruent,0.1,5844.61636428325,1722.56309488199
54,104,2,206,0.5,0.5,0.5,2,4,0.8,2,477,1,1,477,1,0,1.2,NaN,-0.921774126557623,-0.921774126557623,750,0,0,incongruent,1,5064.71323276444,4855.12518903711
54,104,2,207,-0.5,-0.5,0.5,4,2,0.8,4,834,1,0,834,1,0,1.2,0.4,1.59273851135166,1.59273851135166,750,0,0,incongruent,0.1,5322.09067402995,10081.2527690778
54,104,2,208,0.5,0.5,0.5,2,1,0.8,1,779,0,0,NaN,0,0,1,NaN,1.20534860915275,NaN,750,1,0,incongruent,0,10136.0397839304,3353.13194176798
54,104,2,209,0.5,-0.5,0.5,4,2,0.6,4,596,1,1,596,1,0,1,NaN,-0.083603247254528,-0.083603247254528,750,0,0,incongruent,1,3354.99416575022,7898.17563875223
54,104,2,210,0.5,-0.5,0.5,2,3,0.6,2,656,1,1,656,0,0,1.2,NaN,0.339003918780646,0.339003918780646,750,0,0,incongruent,0,2308.42992537777,2513.06603032428
54,104,2,211,0.5,0.5,-0.5,4,4,0.6,3,431,0,1,NaN,0,0,1,NaN,-1.24577295385126,NaN,750,0,1,congruent,0,11003.9339604046,3501.16961680952
54,104,2,212,-0.5,-0.5,0.5,1,3,0.6,3,898,0,0,NaN,1,0,0.6,0.6,2.04351948845585,NaN,750,1,0,incongruent,0.1,2431.85669058145,9137.16730657933
54,104,2,213,0.5,-0.5,-0.5,2,2,0.6,2,594,1,1,594,1,0,0.6,NaN,-0.0976901527890338,-0.0976901527890338,750,1,0,congruent,1,6034.84488673318,1498.8412279546
54,104,2,214,0.5,-0.5,0,4,NaN,0.6,1,718,0,1,NaN,1,0,1,NaN,0.775697990350325,NaN,750,0,1,neutral,1,6392.42400238479,1266.91974404265
54,104,2,215,0.5,-0.5,-0.5,1,1,0.6,1,567,1,1,567,1,0,1,NaN,-0.287863377504862,-0.287863377504862,750,1,0,congruent,1,11128.1418114608,3974.8400292905
54,104,2,216,0.5,-0.5,0,3,NaN,0.6,2,997,0,0,NaN,1,0,1.4,NaN,2.74082131241388,NaN,750,0,1,neutral,1,3631.64026144346,9945.75917188597
54,104,2,217,0.5,-0.5,-0.5,4,4,0.6,4,712,1,1,712,1,0,1.8,NaN,0.733437273746808,0.733437273746808,750,1,0,congruent,1,1074.48171664011,2481.89003467423
54,104,2,218,-0.5,0.5,-0.5,3,3,0.6,2,715,0,1,NaN,0,0,2,0.6,0.754567632048566,NaN,750,0,1,congruent,0,9103.95906263092,2561.57193359043
54,104,2,219,0.5,-0.5,0.5,4,1,0.4,4,951,1,0,951,1,0,1.6,NaN,2.41682248512025,2.41682248512025,750,0,0,incongruent,1,2594.92534978174,7593.57404224807
54,104,2,220,-0.5,0.5,-0.5,2,2,0.4,2,715,1,1,715,1,0,1.6,0.6,0.754567632048566,0.754567632048566,750,1,0,congruent,0.1,8471.60557271114,2077.59173985076
54,104,2,222,-0.5,-0.5,-0.5,2,2,0.2,2,764,1,0,764,0,0,1,0.8,1.09969681764396,1.09969681764396,750,1,0,congruent,0,11369.7849359377,5915.48710842569
54,104,2,223,-0.5,-0.5,-0.5,1,1,0.2,2,526,0,1,NaN,0,0,0.6,0.6,-0.576644940962231,NaN,750,0,1,congruent,0,862.880813866591,1983.72013531651
54,104,2,224,0.5,0.5,0.5,4,3,0.2,4,848,1,0,848,0,0,0.6,NaN,1.6913468500932,1.6913468500932,750,0,0,incongruent,0,2116.13201747414,9097.37217078919
54,104,2,225,-0.5,0.5,0,2,NaN,0.2,3,563,0,1,NaN,0,0,0.2,0.6,-0.316037188573874,NaN,750,0,1,neutral,0,3936.3322297855,3334.25248096069
54,104,2,226,0.5,-0.5,-0.5,1,1,0.2,1,834,1,0,834,0,0,0,NaN,1.59273851135166,1.59273851135166,750,1,0,congruent,0,4525.04096954696,2809.22973384945
54,104,2,227,0.5,0.5,0,4,NaN,0.2,4,472,1,1,472,1,0,0,NaN,-0.956991390393887,-0.956991390393887,750,0,0,neutral,1,5399.54690154426,3371.75052329891
54,104,2,228,0.5,-0.5,0.5,3,4,0.4,1,797,0,0,NaN,0,0,0.4,NaN,1.3321307589633,NaN,750,0,1,incongruent,0,928.965092090344,2303.91202373662
54,104,2,229,0.5,0.5,0,2,NaN,0.4,2,688,1,1,688,1,0,0.4,NaN,0.564394407332738,0.564394407332738,750,0,0,neutral,1,3950.03656213219,4875.84396040058
54,104,2,230,-0.5,-0.5,-0.5,3,3,0.4,3,671,1,1,671,0,0,0.8,0.6,0.444655710289439,0.444655710289439,750,1,0,congruent,0,10990.3420329191,5275.64657547285
54,104,2,231,-0.5,0.5,-0.5,4,4,0.4,4,520,1,1,520,1,0,0.8,0.6,-0.618905657565748,-0.618905657565748,750,1,0,congruent,0.1,1124.95093395173,1801.57862703737
54,104,2,232,0.5,-0.5,0,2,NaN,0.6,3,773,0,0,NaN,0,0,1,NaN,1.16308789254923,NaN,750,0,1,neutral,0,3853.49418570445,4374.92388948583
54,104,2,233,-0.5,-0.5,0.5,3,2,0.6,1,549,0,1,NaN,1,0,0.6,0.4,-0.414645527315414,NaN,750,0,1,incongruent,0.1,5931.88364012405,686.705286137176
54,104,2,234,0.5,0.5,0.5,4,3,0.6,4,651,1,1,651,1,0,0.8,NaN,0.303786654944381,0.303786654944381,750,0,0,incongruent,1,6484.2023208614,2747.79212952087
54,104,2,235,0.5,-0.5,0.5,3,4,0.8,4,840,0,0,NaN,1,0,0.8,NaN,1.63499922795518,NaN,750,1,0,incongruent,1,6213.67123959093,675.971631390417
54,104,2,236,0.5,-0.5,0.5,1,3,0.8,1,583,1,1,583,1,0,1.2,NaN,-0.175168133228816,-0.175168133228816,750,0,0,incongruent,1,2791.74073592116,1529.24208653469
54,104,2,237,-0.5,0.5,0.5,3,1,0.8,1,620,0,1,NaN,0,0,1.4,0.6,0.0854396191595414,NaN,750,1,0,incongruent,0,20580.0176131141,7753.98950697844
54,104,2,238,0.5,-0.5,0.5,2,3,0.8,1,563,0,1,NaN,0,0,1.4,NaN,-0.316037188573874,NaN,750,0,1,incongruent,0,4272.81074125589,2276.55746939099
54,104,2,239,0.5,-0.5,-0.5,4,4,0.8,4,409,1,1,409,0,0,1.2,NaN,-1.40072891473082,-1.40072891473082,750,1,0,congruent,0,5672.6260032306,1600.06039246609
54,104,2,240,-0.5,0.5,0.5,3,2,0.8,3,615,1,1,615,1,0,0.8,0.4,0.050222355323277,0.050222355323277,750,0,0,incongruent,0.1,2328.10818541335,4249.27888391077
54,104,2,242,-0.5,0.5,0,1,NaN,0.8,3,666,0,1,NaN,0,0,0.6,0.6,0.409438446453175,NaN,750,0,1,neutral,0,10849.1062628537,3990.46385434361
54,104,2,243,0.5,0.5,0.5,4,3,0.6,4,329,1,1,329,1,0,0.6,NaN,-1.96420513611105,-1.96420513611105,750,0,0,incongruent,1,3384.1576674608,2920.92818573341
54,104,2,244,0.5,-0.5,0.5,1,4,0.6,1,790,1,0,790,1,0,1,NaN,1.28282658959253,1.28282658959253,750,0,0,incongruent,1,10298.829101049,5596.61091773517
54,104,2,245,-0.5,0.5,0,3,NaN,0.6,3,666,1,1,666,1,0,1.4,0.4,0.409438446453175,0.409438446453175,750,0,0,neutral,0.1,1822.25002904284,10175.644142185
54,104,2,246,-0.5,-0.5,-0.5,2,2,0.6,2,758,1,0,758,0,0,1.4,0.4,1.05743610104044,1.05743610104044,750,1,0,congruent,0,902.227593538645,14205.943813505
54,104,2,247,-0.5,-0.5,-0.5,1,1,0.6,1,412,1,1,412,1,0,1,0.2,-1.37959855642906,-1.37959855642906,750,1,0,congruent,0.1,4717.46785973306,4265.83954364356
54,104,2,248,-0.5,0.5,0,3,NaN,0.6,3,422,1,1,422,1,0,1.2,0.6,-1.30916402875653,-1.30916402875653,750,0,0,neutral,0.1,2710.77754111748,2271.44020528613
54,104,2,249,0.5,-0.5,-0.5,1,1,0.8,1,311,1,1,311,0,0,1,NaN,-2.0909872859216,-2.0909872859216,750,1,0,congruent,0,3667.43513050225,5242.66522157639
54,104,2,250,0.5,-0.5,-0.5,3,3,0.8,4,556,0,1,NaN,0,0,0.6,NaN,-0.365341357944644,NaN,750,0,1,congruent,0,7214.07288964274,6434.29800669664
54,104,2,251,-0.5,-0.5,-0.5,2,2,0.8,2,516,1,1,516,1,0,0.4,0.4,-0.64707946863476,-0.64707946863476,750,1,0,congruent,0.1,7634.76195057835,4696.10663814876
54,104,2,252,0.5,-0.5,0,4,NaN,0.8,4,461,1,1,461,0,0,0.6,NaN,-1.03446937083367,-1.03446937083367,750,0,0,neutral,0,2551.66321895208,11456.0627130594
54,104,2,254,0.5,-0.5,-0.5,4,4,0.8,4,542,1,1,542,1,0,0.6,NaN,-0.463949696686184,-0.463949696686184,750,1,0,congruent,1,2846.1911781013,1347.17160451893
54,104,2,255,-0.5,0.5,-0.5,3,3,0.8,3,957,1,0,957,0,0,1,0.6,2.45908320172377,2.45908320172377,750,1,0,congruent,0,5262.84437215401,2748.09562787557
54,104,2,256,0.5,0.5,0.5,2,4,0.6,1,552,0,1,NaN,0,0,1,NaN,-0.393515169013655,NaN,750,0,1,incongruent,0,2536.07034333967,1697.95076221633
54,104,2,257,0.5,-0.5,0.5,4,2,0.6,4,606,1,1,606,1,0,0.8,NaN,-0.0131687195819991,-0.0131687195819991,750,0,0,incongruent,1,6959.31440461647,1414.3798380645
54,104,2,258,-0.5,0.5,0.5,1,4,0.6,1,613,1,1,613,1,0,1.2,0.6,0.0361354497887712,0.0361354497887712,750,0,0,incongruent,0.1,11268.3876158082,8291.8839073195
54,104,2,259,-0.5,-0.5,-0.5,2,2,0.6,1,594,0,1,NaN,1,0,1,0.6,-0.0976901527890338,NaN,750,0,1,congruent,0.1,2287.25081159349,3031.56283789762
54,104,2,260,-0.5,0.5,0,3,NaN,0.6,3,660,1,1,660,1,0,0.8,0.6,0.367177729849657,0.367177729849657,750,0,0,neutral,0.1,25858.4078189172,5593.87080821513
54,104,2,261,-0.5,-0.5,0.5,2,3,0.6,1,648,0,1,NaN,1,0,1,0.8,0.282656296642622,NaN,750,0,1,incongruent,0.1,4797.21127161399,1686.50951128752
54,104,2,262,-0.5,0.5,0.5,1,2,0.6,3,641,0,1,NaN,0,0,1.2,0.8,0.233352127271852,NaN,750,0,1,incongruent,0,1705.29493509877,5443.44908815293
54,104,2,263,0.5,0.5,0.5,2,4,0.4,1,978,0,0,NaN,0,0,0.8,NaN,2.60699570983608,NaN,750,0,1,incongruent,0,8330.38093470566,4134.33153173608
54,104,2,264,0.5,-0.5,-0.5,3,3,0.4,3,562,1,1,562,1,0,0.6,NaN,-0.323080641341126,-0.323080641341126,750,1,0,congruent,1,9305.49591386067,1633.47697548443
54,104,2,266,0.5,-0.5,-0.5,4,4,0.6,4,529,1,1,529,0,0,0.8,NaN,-0.555514582660472,-0.555514582660472,750,1,0,congruent,0,11897.0276690292,8678.74527506406
54,104,2,267,0.5,0.5,0.5,2,1,0.6,1,495,0,1,NaN,0,0,0.6,NaN,-0.79499197674707,NaN,750,1,0,incongruent,0,4397.67560053309,916.297835146103
54,104,2,268,0.5,0.5,-0.5,3,3,0.4,3,355,1,1,355,1,0,0.6,NaN,-1.78107536416248,-1.78107536416248,750,1,0,congruent,1,6561.95365962093,1633.8211076732
54,104,2,269,0.5,0.5,0.5,2,4,0.4,1,549,0,1,NaN,0,0,1,NaN,-0.414645527315414,NaN,750,0,1,incongruent,0,10195.8116228752,2937.6505777786
54,104,2,270,-0.5,-0.5,-0.5,3,3,0.4,3,547,1,1,547,0,0,0.6,0.8,-0.42873243284992,-0.42873243284992,750,1,0,congruent,0,7429.86838821983,4214.36912351778
54,104,2,271,-0.5,0.5,-0.5,4,4,0.4,1,548,0,1,NaN,0,0,0.4,0.6,-0.421688980082667,NaN,750,0,1,congruent,0,2299.30552923642,1403.2371765743
54,104,2,272,-0.5,0.5,-0.5,1,1,0.4,1,559,1,1,559,1,0,0.4,0.6,-0.344210999642885,-0.344210999642885,750,1,0,congruent,0.1,8165.69286933202,2910.63608349976
54,104,2,273,0.5,0.5,0,4,NaN,0.4,3,598,0,1,NaN,0,0,0.6,NaN,-0.0695163417200223,NaN,750,0,1,neutral,0,5895.33127354196,2373.8616336985
54,104,2,274,0.5,0.5,-0.5,2,2,0.4,2,801,1,0,801,0,0,0.2,NaN,1.36030457003232,1.36030457003232,750,1,0,congruent,0,7531.80653718447,1239.14412868787
54,104,2,275,0.5,0.5,0,1,NaN,0.2,1,549,1,1,549,1,0,0.2,NaN,-0.414645527315414,-0.414645527315414,750,0,0,neutral,1,12141.4144637686,1180.80246810678
54,104,2,276,0.5,-0.5,-0.5,4,4,0.4,3,655,0,1,NaN,0,0,0.6,NaN,0.331960466013393,NaN,750,0,1,congruent,0,14831.5776009409,3643.36266141337
54,104,2,279,0.5,-0.5,0.5,4,3,0.4,3,746,0,1,NaN,1,0,0.6,NaN,0.972914667833406,NaN,750,1,0,incongruent,1,2515.27702876488,7543.7091869466
54,104,2,281,0.5,-0.5,0,4,NaN,0.4,4,482,1,1,482,0,0,0.8,NaN,-0.886556862721358,-0.886556862721358,750,0,0,neutral,0,6614.74873348303,4281.47772428628
54,104,2,282,-0.5,0.5,0.5,3,1,0.4,3,860,1,0,860,0,0,0.8,0.4,1.77586828330024,1.77586828330024,750,0,0,incongruent,0,7055.66852163883,1442.04544549332
54,104,2,283,0.5,0.5,-0.5,2,2,0.2,2,680,1,1,680,1,0,0.6,NaN,0.508046785194715,0.508046785194715,750,1,0,congruent,1,11756.489229121,5090.94519775532
54,104,2,284,-0.5,0.5,0.5,4,3,0.4,3,505,0,1,NaN,0,0,1,0.4,-0.724557449074541,NaN,750,1,0,incongruent,0,2310.91597268496,1122.43397118747
54,104,2,285,-0.5,0.5,0,3,NaN,0.4,3,585,1,1,585,1,0,0.6,0.2,-0.16108122769431,-0.16108122769431,750,0,0,neutral,0.1,20678.3093361994,3396.81733263655
54,104,2,286,0.5,0.5,-0.5,2,2,0.4,3,444,0,1,NaN,0,0,0.6,NaN,-1.15420806787697,NaN,750,0,1,congruent,0,11613.29256632,3544.76439089863
54,104,2,287,0.5,-0.5,-0.5,1,1,0.4,3,538,0,1,NaN,0,0,0.6,NaN,-0.492123507755196,NaN,750,0,1,congruent,0,2140.22464782518,2970.49273058658
54,104,2,289,0.5,-0.5,-0.5,3,3,0.4,3,591,1,1,591,0,0,0.2,NaN,-0.118820511090793,-0.118820511090793,750,1,0,congruent,0,9223.84060971951,2795.28901391219
54,104,2,291,-0.5,-0.5,-0.5,1,1,0.4,1,530,1,1,530,0,0,0.4,0.8,-0.548471129893219,-0.548471129893219,750,1,0,congruent,0,3626.42923860849,6712.24414100275
54,104,2,292,0.5,-0.5,0,2,NaN,0.4,3,664,0,1,NaN,0,0,0.4,NaN,0.395351540918669,NaN,750,0,1,neutral,0,3522.18194091561,2519.74366080711
54,104,2,293,0.5,0.5,-0.5,4,4,0.4,1,405,0,1,NaN,0,0,0.4,NaN,-1.42890272579983,NaN,750,0,1,congruent,0,8718.89555892996,3447.02946089741
54,104,2,294,0.5,-0.5,0.5,2,3,0.4,4,781,0,0,NaN,0,0,0.4,NaN,1.21943551468726,NaN,750,0,1,incongruent,0,1748.55459060325,1099.75946496765
54,104,2,295,0.5,-0.5,-0.5,4,4,0.4,4,321,1,1,321,0,0,0.4,NaN,-2.02055275824907,-2.02055275824907,750,1,0,congruent,0,1478.67930303834,1955.08610753718
54,104,2,296,0.5,0.5,0.5,3,1,0.4,3,800,1,0,800,0,0,0,NaN,1.35326111726506,1.35326111726506,750,0,0,incongruent,0,3075.91026820951,6590.17410717562
54,104,2,297,0.5,-0.5,-0.5,4,4,0.2,4,478,1,1,478,1,0,0,NaN,-0.91473067379037,-0.91473067379037,750,1,0,congruent,1,3507.62651288598,4985.17008462552
54,104,2,298,-0.5,-0.5,0.5,3,2,0.2,1,575,0,1,NaN,0,0,0.4,0.6,-0.231515755366839,NaN,750,0,1,incongruent,0,12273.4237682006,4954.66842439259
54,104,2,299,-0.5,-0.5,-0.5,4,4,0.2,4,421,1,1,421,0,0,0.4,0.4,-1.31620748152378,-1.31620748152378,750,1,0,congruent,0,4718.53121411281,2918.59846197494
54,104,2,300,-0.5,0.5,0.5,2,1,0.2,2,545,1,1,545,1,0,0.4,0.2,-0.442819338384426,-0.442819338384426,750,0,0,incongruent,0.1,7453.53054224554,2119.7360117298
54,104,3,301,0.5,-0.5,0.5,4,2,0.4,4,698,1,1,698,0,0,0.6,NaN,0.634828935005267,0.634828935005267,750,0,0,incongruent,0,6019.45941464953,2837.28268602677
54,104,3,302,-0.5,0.5,0.5,2,3,0.4,3,524,0,1,NaN,0,0,0.6,0.4,-0.590731846496736,NaN,750,1,0,incongruent,0,4746.65845432335,1244.5305296125
54,104,3,303,-0.5,-0.5,0,4,NaN,0.4,4,578,1,1,578,0,0,0.2,0.4,-0.21038539706508,-0.21038539706508,750,0,0,neutral,0,4893.93960608531,1448.60292739133
54,104,3,304,-0.5,-0.5,0.5,3,1,0.4,1,710,0,1,NaN,0,0,0.2,0.2,0.719350368212302,NaN,750,1,0,incongruent,0,8255.82602919219,7655.67586584035
54,104,3,305,0.5,-0.5,-0.5,2,2,0.4,2,492,1,1,492,1,0,0.2,NaN,-0.816122335048829,-0.816122335048829,750,1,0,congruent,1,2767.83168257381,4413.93232516345
54,104,3,306,-0.5,0.5,0.5,3,4,0.4,4,551,0,1,NaN,0,0,0.4,0.4,-0.400558621780908,NaN,750,1,0,incongruent,0,4317.53922026448,2002.47694738309
54,104,3,307,0.5,-0.5,-0.5,1,1,0.2,1,427,1,1,427,0,0,0.4,NaN,-1.27394676492027,-1.27394676492027,750,1,0,congruent,0,3439.79871833341,1700.67059610865
54,104,3,308,-0.5,0.5,0,4,NaN,0.2,4,413,1,1,413,1,0,0.4,0.4,-1.37255510366181,-1.37255510366181,750,0,0,neutral,0.1,6145.70552042384,735.272761445199
54,104,3,309,0.5,0.5,-0.5,2,2,0.4,3,622,0,1,NaN,0,0,0.6,NaN,0.0995265246940472,NaN,750,0,1,congruent,0,7197.00634261877,3049.55810545934
54,104,3,310,-0.5,0.5,0.5,4,1,0.4,4,458,1,1,458,1,0,0.6,0.4,-1.05559972913543,-1.05559972913543,750,0,0,incongruent,0.1,6462.12730080924,3985.11563713862
54,104,3,311,-0.5,-0.5,0.5,3,2,0.4,2,673,0,1,NaN,0,0,0.4,0,0.458742615823945,NaN,750,1,0,incongruent,0,9148.48078910828,2669.45565657419
54,104,3,312,-0.5,-0.5,-0.5,1,1,0.4,1,671,1,1,671,0,0,0.4,0,0.444655710289439,0.444655710289439,750,1,0,congruent,0,8754.16310809228,4081.54509322903
54,104,3,313,0.5,0.5,-0.5,2,2,0.4,2,413,1,1,413,1,0,0.4,NaN,-1.37255510366181,-1.37255510366181,750,1,0,congruent,1,1749.57872420555,3962.29580483211
54,104,3,314,-0.5,0.5,0,4,NaN,0.6,4,561,1,1,561,1,0,0.6,0.6,-0.330124094108379,-0.330124094108379,750,0,0,neutral,0.1,3021.88395553237,4798.64643617759
54,104,3,315,0.5,0.5,-0.5,2,2,0.8,2,545,1,1,545,1,0,0.8,NaN,-0.442819338384426,-0.442819338384426,750,1,0,congruent,1,2885.30388897197,1434.73175388862
54,104,3,316,0.5,-0.5,0.5,3,4,0.8,4,443,0,1,NaN,1,0,1,NaN,-1.16125152064422,NaN,750,1,0,incongruent,1,2581.5912336095,4889.21989778187
54,104,3,317,-0.5,-0.5,0,1,NaN,0.8,2,647,0,1,NaN,1,0,1.4,0,0.27561284387537,NaN,750,0,1,neutral,0.1,6809.33602698399,1147.70923237689
54,104,3,318,0.5,0.5,-0.5,4,4,0.8,4,396,1,1,396,1,0,1.6,NaN,-1.49229380070511,-1.49229380070511,750,1,0,congruent,1,3327.60498347946,2288.15884455272
54,104,3,319,0.5,-0.5,0.5,1,2,1,2,572,0,1,NaN,1,0,1.6,NaN,-0.252646113668598,NaN,750,1,0,incongruent,1,19405.9070690485,5315.35575485492
54,104,3,320,-0.5,0.5,-0.5,3,3,1,3,522,1,1,522,1,0,1.8,0.6,-0.604818752031242,-0.604818752031242,750,1,0,congruent,0.1,6482.76356645007,3035.22768416395
54,104,3,321,0.5,0.5,0,1,NaN,1,1,365,1,1,365,1,0,1.6,NaN,-1.71064083648995,-1.71064083648995,750,0,0,neutral,1,6827.93239903053,4316.31995331207
54,104,3,322,0.5,0.5,0.5,4,1,1,1,489,0,1,NaN,0,0,1.6,NaN,-0.837252693350588,NaN,750,1,0,incongruent,0,12794.4792143032,4063.95483041611
54,104,3,323,-0.5,-0.5,-0.5,2,2,0.8,2,569,1,1,569,1,0,1.4,0.2,-0.273776471970356,-0.273776471970356,750,1,0,congruent,0.1,5472.52916987474,5987.65377431358
54,104,3,325,-0.5,-0.5,-0.5,4,4,0.8,4,462,1,1,462,0,0,1.2,0.4,-1.02742591806642,-1.02742591806642,750,1,0,congruent,0,7876.23306200208,1714.56957997834
54,104,3,326,0.5,-0.5,-0.5,1,1,0.8,1,379,1,1,379,0,0,1,NaN,-1.61203249774841,-1.61203249774841,750,1,0,congruent,0,2596.70293688446,5398.74991813748
54,104,3,327,0.5,-0.5,0,4,NaN,0.8,4,393,1,1,393,0,0,0.6,NaN,-1.51342415900687,-1.51342415900687,750,0,0,neutral,0,12203.3138242516,2366.41864532896
54,104,3,328,-0.5,0.5,-0.5,2,2,0.8,3,505,0,1,NaN,0,0,0.6,0.8,-0.724557449074541,NaN,750,0,1,congruent,0,8940.04348977251,4655.55272510155
54,104,3,329,-0.5,-0.5,-0.5,4,4,0.6,4,382,1,1,382,0,0,0.4,0.4,-1.59090213944665,-1.59090213944665,750,1,0,congruent,0,1794.4386928493,1671.87336231739
54,104,3,330,-0.5,-0.5,0.5,1,3,0.6,3,425,0,1,NaN,1,0,0,0.4,-1.28803367045477,NaN,750,1,0,incongruent,0.1,10324.8000255112,2306.65322368174
54,104,3,331,-0.5,0.5,0,4,NaN,0.6,4,505,1,1,505,1,0,0.2,0.8,-0.724557449074541,-0.724557449074541,750,0,0,neutral,0.1,5617.85262071715,2274.52389889678
54,104,3,332,0.5,-0.5,0.5,3,2,0.6,3,637,1,1,637,1,0,0.4,NaN,0.205178316202841,0.205178316202841,750,0,0,incongruent,1,4119.80354404993,3175.58966733626
54,104,3,334,-0.5,0.5,-0.5,3,3,0.4,3,435,1,1,435,1,0,0.8,0.8,-1.21759914278224,-1.21759914278224,750,1,0,congruent,0.1,1119.02957255772,1930.24426673192
54,104,3,335,0.5,-0.5,0.5,4,2,0.6,4,543,1,1,543,1,0,1,NaN,-0.456906243918931,-0.456906243918931,750,0,0,incongruent,1,7498.7789225284,1942.75739995243
54,104,3,336,-0.5,0.5,-0.5,3,3,0.6,3,548,1,1,548,1,0,1.2,0.8,-0.421688980082667,-0.421688980082667,750,1,0,congruent,0.1,8999.20244183475,1359.04329920072
54,104,3,337,-0.5,-0.5,-0.5,2,2,0.6,2,478,1,1,478,0,0,1.2,0.6,-0.91473067379037,-0.91473067379037,750,1,0,congruent,0,2303.25379117898,5171.47408963481
54,104,3,338,0.5,-0.5,-0.5,1,1,0.6,1,569,1,1,569,0,0,0.8,NaN,-0.273776471970356,-0.273776471970356,750,1,0,congruent,0,5811.10075614875,3356.62503647244
54,104,3,339,0.5,-0.5,0,4,NaN,0.6,4,516,1,1,516,1,0,0.8,NaN,-0.64707946863476,-0.64707946863476,750,0,0,neutral,1,3759.94034081249,5486.03487912358
54,104,3,340,-0.5,-0.5,-0.5,1,1,0.6,1,531,1,1,531,0,0,1,0.4,-0.541427677125966,-0.541427677125966,750,1,0,congruent,0,1799.49996940207,2590.26809341092
54,104,3,341,-0.5,0.5,-0.5,3,3,0.6,4,560,0,1,NaN,0,0,0.6,0.8,-0.337167546875632,NaN,750,0,1,congruent,0,7809.93402637442,341.61859747907
54,104,3,342,-0.5,-0.5,-0.5,1,1,0.6,3,609,0,1,NaN,0,0,0.4,0.2,0.00796163871975959,NaN,750,0,1,congruent,0,17966.4773050243,1923.0903685013
54,104,3,343,0.5,-0.5,-0.5,2,2,0.6,2,640,1,1,640,1,0,0.4,NaN,0.226308674504599,0.226308674504599,750,1,0,congruent,1,6452.42724507979,4314.2776864989
54,104,3,344,-0.5,0.5,0,4,NaN,0.6,4,718,1,1,718,1,0,0.8,0.6,0.775697990350325,0.775697990350325,750,0,0,neutral,0.1,6113.943337814,5804.91553659685
54,104,3,345,-0.5,0.5,0.5,1,2,0.6,2,666,0,1,NaN,0,0,0.6,0.8,0.409438446453175,NaN,750,1,0,incongruent,0,4483.12270129625,2579.15162738541
54,104,3,346,0.5,0.5,0,4,NaN,0.6,4,469,1,1,469,1,0,0.6,NaN,-0.978121748695646,-0.978121748695646,750,0,0,neutral,1,2204.94116928213,4215.53308853767
54,104,3,347,0.5,-0.5,-0.5,2,2,0.6,2,545,1,1,545,1,0,1,NaN,-0.442819338384426,-0.442819338384426,750,1,0,congruent,1,17657.9186499149,3561.66918390367
54,104,3,349,0.5,-0.5,-0.5,3,3,0.4,3,553,1,1,553,0,0,1,NaN,-0.386471716246403,-0.386471716246403,750,1,0,congruent,0,20996.2063665589,1568.11058665406
54,104,3,350,0.5,-0.5,-0.5,2,2,0.4,2,657,1,1,657,0,0,0.8,NaN,0.346047371547899,0.346047371547899,750,1,0,congruent,0,9856.91468645089,4978.33210809003
54,104,3,351,-0.5,-0.5,-0.5,3,3,0.4,3,456,1,1,456,0,0,0.8,0.2,-1.06968663466993,-1.06968663466993,750,1,0,congruent,0,4439.88309286039,3861.4789921315
54,104,3,352,-0.5,0.5,0.5,4,1,0.4,1,606,0,1,NaN,0,0,0.4,0.6,-0.0131687195819991,NaN,750,1,0,incongruent,0,5348.81508837313,3820.43463780089
54,104,3,353,0.5,-0.5,0.5,2,3,0.4,1,808,0,0,NaN,0,0,0,NaN,1.40960873940309,NaN,750,0,1,incongruent,0,5703.57376553642,15363.912465677
54,104,3,354,0.5,0.5,-0.5,1,1,0.4,1,578,1,1,578,1,0,0,NaN,-0.21038539706508,-0.21038539706508,750,1,0,congruent,1,4764.6138773511,1721.90657085874
54,104,3,358,0.5,-0.5,0.5,3,1,0.6,1,449,0,1,NaN,0,0,1.2,NaN,-1.1189908040407,NaN,750,1,0,incongruent,0,10015.2684582542,3912.60404149945
54,104,3,359,0.5,-0.5,0,2,NaN,0.6,2,880,1,0,880,0,0,1.2,NaN,1.91673733864529,1.91673733864529,750,0,0,neutral,0,3077.31477101994,3444.23294302545
54,104,3,360,-0.5,0.5,0.5,1,4,0.6,1,399,1,1,399,1,0,0.8,0.4,-1.47116344240335,-1.47116344240335,750,0,0,incongruent,0.1,2200.77706517539,2021.48565404702
54,104,3,361,-0.5,-0.5,0.5,3,2,0.6,2,471,0,1,NaN,1,0,1,0.2,-0.96403484316114,NaN,750,1,0,incongruent,0.1,8143.2601828522,658.146547912159
54,104,3,362,0.5,-0.5,0,2,NaN,0.6,4,574,0,1,NaN,0,0,0.8,NaN,-0.238559208134092,NaN,750,0,1,neutral,0,10513.1949287794,2718.94330272737
54,104,3,363,0.5,0.5,-0.5,3,3,0.6,3,425,1,1,425,1,0,0.4,NaN,-1.28803367045477,-1.28803367045477,750,1,0,congruent,1,2501.21349978928,4816.53082766849
54,104,3,364,-0.5,0.5,0,2,NaN,0.8,2,733,1,1,733,1,0,0.8,0.4,0.881349781859119,0.881349781859119,750,0,0,neutral,0.1,31435.8931040775,668.918868124358
54,104,3,365,-0.5,0.5,0.5,1,2,1,1,568,1,1,568,1,0,1,0.6,-0.280819924737609,-0.280819924737609,750,0,0,incongruent,0.1,17887.4089965309,2165.78385013465
54,104,3,366,-0.5,0.5,-0.5,4,4,1,4,501,1,1,501,1,0,1,0.6,-0.752731260143553,-0.752731260143553,750,1,0,congruent,0.1,4784.00303495314,1781.19775691949
54,104,3,367,-0.5,-0.5,-0.5,2,2,1,1,683,0,1,NaN,1,0,1,0.2,0.529177143496474,NaN,750,0,1,congruent,0.1,12762.1252014848,7854.14715058241
54,104,3,368,-0.5,-0.5,0,1,NaN,1,1,594,1,1,594,1,0,1.2,0.4,-0.0976901527890338,-0.0976901527890338,750,0,0,neutral,0.1,3370.83499394375,3016.53619587217
54,104,3,369,0.5,-0.5,-0.5,2,2,1,2,555,1,1,555,1,0,1,NaN,-0.372384810711897,-0.372384810711897,750,1,0,congruent,1,5922.92842907268,2198.78096275753
54,104,3,370,-0.5,-0.5,0,3,NaN,1,3,648,1,1,648,1,0,1.2,0.6,0.282656296642622,0.282656296642622,750,0,0,neutral,0.1,6232.30345364322,3087.52564709092
54,104,3,371,0.5,-0.5,-0.5,2,2,1,2,548,1,1,548,1,0,1.2,NaN,-0.421688980082667,-0.421688980082667,750,1,0,congruent,1,16131.2538149431,4214.11986277671
54,104,3,372,-0.5,0.5,0,1,NaN,1,1,602,1,1,602,1,0,1.4,0.8,-0.0413425306510107,-0.0413425306510107,750,0,0,neutral,0.1,2292.66334808004,6223.864903646
54,104,3,373,-0.5,-0.5,0.5,4,3,1,4,729,1,1,729,1,0,1.4,0.8,0.853175970790107,0.853175970790107,750,0,0,incongruent,0.1,16862.0297215378,7818.22365113377
54,104,3,374,-0.5,0.5,0.5,3,1,1,1,672,0,1,NaN,0,0,1.4,1,0.451699163056692,NaN,750,1,0,incongruent,0,3682.03780600923,3363.89859613457
54,104,3,375,0.5,-0.5,-0.5,4,4,0.8,4,544,1,1,544,1,0,1,NaN,-0.449862791151679,-0.449862791151679,750,1,0,congruent,1,10948.5950474214,5751.46600638911
54,104,3,376,-0.5,-0.5,0,3,NaN,0.8,3,702,1,1,702,1,0,1.2,1,0.663002746074279,0.663002746074279,750,0,0,neutral,0.1,12658.0341979565,7269.50059964534
54,104,3,377,-0.5,0.5,-0.5,2,2,0.8,2,523,1,1,523,1,0,1,0.8,-0.597775299263989,-0.597775299263989,750,1,0,congruent,0.1,1126.80657189263,1714.90701758497
54,104,3,378,-0.5,-0.5,0,1,NaN,0.8,1,464,1,1,464,1,0,1,1,-1.01333901253191,-1.01333901253191,750,0,0,neutral,0.1,2010.01802623404,4630.04481147702
54,104,3,379,-0.5,-0.5,-0.5,2,2,0.8,2,588,1,1,588,1,0,1,1,-0.139950869392551,-0.139950869392551,750,1,0,congruent,0.1,3092.34217195995,2499.97214136648
54,104,3,380,-0.5,0.5,0,4,NaN,0.8,1,506,0,1,NaN,0,0,1.2,0.8,-0.717513996307289,NaN,750,0,1,neutral,0,13104.804164604,3059.56685278511
54,104,3,381,-0.5,-0.5,0.5,3,2,0.6,3,650,1,1,650,0,0,0.8,1,0.296743202177128,0.296743202177128,750,0,0,incongruent,0,12350.9428337794,3182.64181154703
54,104,3,382,0.5,0.5,0.5,1,3,0.6,1,343,1,1,343,1,0,0.6,NaN,-1.86559679736951,-1.86559679736951,750,0,0,incongruent,1,3564.04223515706,2211.8121905868
54,104,3,383,0.5,0.5,0,2,NaN,0.6,2,652,1,1,652,1,0,0.8,NaN,0.310830107711634,0.310830107711634,750,0,0,neutral,1,45475.9568460433,3045.0159401821
54,104,3,384,-0.5,-0.5,-0.5,3,3,0.6,3,345,1,1,345,0,0,1,0.8,-1.851509891835,-1.851509891835,750,1,0,congruent,0,2130.49477728042,5923.27168106606
54,104,3,385,0.5,0.5,0,1,NaN,0.6,1,521,1,1,521,1,0,0.8,NaN,-0.611862204798495,-0.611862204798495,750,0,0,neutral,1,2767.93674796698,5562.80550202419
54,104,3,386,0.5,0.5,-0.5,2,2,0.8,2,430,1,1,430,1,0,1.2,NaN,-1.25281640661851,-1.25281640661851,750,1,0,congruent,1,4454.99816521652,5650.08274134135
54,104,3,387,-0.5,-0.5,0,4,NaN,0.8,4,557,1,1,557,0,0,1.6,0.6,-0.358297905177391,-0.358297905177391,750,0,0,neutral,0,9209.00828849351,3188.57666721204
54,104,3,389,-0.5,-0.5,0.5,1,2,1,1,616,1,1,616,1,0,1,0.4,0.0572658080905299,0.0572658080905299,750,0,0,incongruent,0.1,3504.45167115372,3846.92513100078
54,104,3,390,0.5,0.5,-0.5,4,4,1,4,516,1,1,516,1,0,1.2,NaN,-0.64707946863476,-0.64707946863476,750,1,0,congruent,1,5921.61772482039,5149.73642280331
54,104,3,391,-0.5,-0.5,0,2,NaN,1,3,688,0,1,NaN,1,0,1.2,0.4,0.564394407332738,NaN,750,0,1,neutral,0.1,29179.8082048442,4892.1477517589
54,104,3,392,-0.5,0.5,-0.5,1,1,1,1,423,1,1,423,1,0,1,0.6,-1.30212057598928,-1.30212057598928,750,1,0,congruent,0.1,718.905508261168,3505.32129418849
54,104,3,393,0.5,-0.5,-0.5,2,2,1,2,736,1,1,736,1,0,1.2,NaN,0.902480140160877,0.902480140160877,750,1,0,congruent,1,5062.91545797635,1631.2936575809
54,104,3,394,0.5,0.5,-0.5,4,4,1,4,585,1,1,585,1,0,1.4,NaN,-0.16108122769431,-0.16108122769431,750,1,0,congruent,1,5754.20217089539,6203.83525946291
54,104,3,395,0.5,0.5,0.5,1,2,1,1,907,1,0,907,0,0,1.6,NaN,2.10691056336112,2.10691056336112,750,0,0,incongruent,0,3311.37518902854,5033.85664676568
54,104,3,396,0.5,0.5,0,2,NaN,0.8,2,604,1,1,604,1,0,1.2,NaN,-0.0272556251165049,-0.0272556251165049,750,0,0,neutral,1,13344.475878732,4963.11108946724
54,104,3,397,-0.5,0.5,-0.5,3,3,0.8,3,639,1,1,639,1,0,1.4,0.6,0.219265221737346,0.219265221737346,750,1,0,congruent,0.1,1485.11159666685,3011.04348939806
54,104,3,398,-0.5,-0.5,-0.5,4,4,0.8,4,788,1,0,788,0,0,1.4,0.4,1.26873968405803,1.26873968405803,750,1,0,congruent,0,4892.43458495799,1065.89497376427
54,104,3,399,0.5,0.5,0,2,NaN,0.8,2,605,1,1,605,1,0,1,NaN,-0.020212172349252,-0.020212172349252,750,0,0,neutral,1,3205.64177653402,1384.39039668961
54,104,3,400,0.5,-0.5,-0.5,3,3,0.8,3,491,1,1,491,1,0,1,NaN,-0.823165787816082,-0.823165787816082,750,1,0,congruent,1,3018.2096327053,2175.81987848372
54,104,3,401,-0.5,-0.5,0.5,4,2,0.8,4,836,1,0,836,1,0,1.4,0.4,1.60682541688617,1.60682541688617,750,0,0,incongruent,0.1,1233.69815276897,2503.48251635635
54,104,3,402,0.5,0.5,0,2,NaN,0.8,3,672,0,1,NaN,0,0,1.2,NaN,0.451699163056692,NaN,750,0,1,neutral,0,7757.46533800738,4697.94125058432
54,104,3,403,0.5,-0.5,0.5,3,1,0.6,1,821,0,0,NaN,1,0,1,NaN,1.50117362537737,NaN,750,1,0,incongruent,1,9840.09928901778,9379.52691065583
54,104,3,404,-0.5,0.5,0,4,NaN,0.6,4,724,1,1,724,1,0,1.4,0.8,0.817958706953843,0.817958706953843,750,0,0,neutral,0.1,5863.41297897088,2436.09502179818
54,104,3,405,-0.5,-0.5,-0.5,1,1,0.8,1,642,1,1,642,0,0,1.2,0.6,0.240395580039105,0.240395580039105,750,1,0,congruent,0,1288.89436558807,5804.81209719975
54,104,3,407,0.5,-0.5,-0.5,2,2,0.8,2,822,1,0,822,1,0,1,NaN,1.50821707814463,1.50821707814463,750,1,0,congruent,1,8767.17846322885,2825.15531844085
54,104,3,408,-0.5,0.5,-0.5,4,4,0.8,4,529,1,1,529,1,0,1.4,0.8,-0.555514582660472,-0.555514582660472,750,1,0,congruent,0.1,8302.70163972682,1420.03247542285
54,104,3,409,-0.5,0.5,0,2,NaN,0.8,2,700,1,1,700,1,0,1.2,1,0.648915840539773,0.648915840539773,750,0,0,neutral,0.1,3882.59035479076,7768.43996296577
54,104,3,410,-0.5,-0.5,-0.5,3,3,0.8,2,538,0,1,NaN,1,0,1.2,0.6,-0.492123507755196,NaN,750,0,1,congruent,0.1,4987.62905128254,3755.9952270224
54,104,3,411,-0.5,0.5,-0.5,1,1,0.8,1,574,1,1,574,1,0,1.4,1,-0.238559208134092,-0.238559208134092,750,1,0,congruent,0.1,4831.14739671091,3437.11016314602
54,104,3,412,-0.5,-0.5,0.5,4,2,0.8,4,649,1,1,649,1,0,1.2,0.6,0.289699749409875,0.289699749409875,750,0,0,incongruent,0.1,4902.43358361503,9589.09976778714
54,104,3,413,-0.5,-0.5,-0.5,1,1,0.8,1,497,1,1,497,1,0,1,0.6,-0.780905071212565,-0.780905071212565,750,1,0,congruent,0.1,1581.64547729314,2842.37737746863
54,104,3,414,-0.5,0.5,0,3,NaN,0.8,3,640,1,1,640,1,0,1,1,0.226308674504599,0.226308674504599,750,0,0,neutral,0.1,9200.46228109539,2280.41558610963
54,104,3,415,0.5,-0.5,-0.5,1,1,1,1,689,1,1,689,1,0,1,NaN,0.571437860099991,0.571437860099991,750,1,0,congruent,1,2631.49597854083,1044.48374759899
54,104,3,416,-0.5,-0.5,-0.5,2,2,1,2,632,1,1,632,1,0,1.2,0.8,0.169961052366576,0.169961052366576,750,1,0,congruent,0.1,10057.9616735837,4155.24841890533
54,104,3,417,-0.5,0.5,0,4,NaN,1,4,617,1,1,617,1,0,1.2,1,0.0643092608577828,0.0643092608577828,750,0,0,neutral,0.1,3702.87092566037,6398.49429048042
54,104,3,418,-0.5,-0.5,-0.5,3,3,1,3,526,1,1,526,1,0,1.2,0.8,-0.576644940962231,-0.576644940962231,750,1,0,congruent,0.1,6752.68120186565,10683.8822056291
54,104,3,419,-0.5,0.5,-0.5,2,2,1,2,594,1,1,594,1,0,1.2,1,-0.0976901527890338,-0.0976901527890338,750,1,0,congruent,0.1,13942.7530139909,2004.06872377129
54,104,3,420,-0.5,0.5,0.5,3,1,1,1,746,0,1,NaN,0,0,1.2,1,0.972914667833406,NaN,750,1,0,incongruent,0,5672.37589594157,5962.10149935843
54,104,3,421,0.5,0.5,0,1,NaN,0.8,2,871,0,0,NaN,0,0,0.8,NaN,1.85334626374002,NaN,750,0,1,neutral,0,1389.6148051775,6669.03390797657
54,104,3,422,-0.5,-0.5,0.5,2,4,0.6,1,782,0,0,NaN,1,0,0.6,1,1.22647896745451,NaN,750,0,1,incongruent,0.1,4510.98973207275,10748.4500679481
54,104,3,423,-0.5,-0.5,-0.5,3,3,0.6,2,579,0,1,NaN,1,0,0.6,1,-0.203341944297827,NaN,750,0,1,congruent,0.1,4605.43722973729,6299.77795100108
54,104,3,424,-0.5,0.5,-0.5,2,2,0.6,2,750,1,1,750,0,0,0.6,0.8,1.00108847890242,1.00108847890242,750,1,0,congruent,0,12838.6431937026,3399.68340111021
54,104,3,425,0.5,-0.5,0.5,3,4,0.4,1,563,0,1,NaN,1,0,0.4,NaN,-0.316037188573874,NaN,750,0,1,incongruent,1,7693.47961179059,1058.06843426287
54,104,3,426,-0.5,-0.5,-0.5,1,1,0.4,1,679,1,1,679,1,0,0.8,1,0.501003332427462,0.501003332427462,750,1,0,congruent,0.1,5717.84598433677,5346.2660043912
54,104,3,427,0.5,0.5,0,4,NaN,0.4,4,547,1,1,547,1,0,1,NaN,-0.42873243284992,-0.42873243284992,750,0,0,neutral,1,4358.33536080799,1623.89640174155
54,104,3,428,-0.5,0.5,-0.5,3,3,0.4,3,697,1,1,697,1,0,1.2,0.6,0.627785482238014,0.627785482238014,750,1,0,congruent,0.1,9699.47000787722,5100.77537533973
54,104,3,429,-0.5,0.5,0,4,NaN,0.4,4,589,1,1,589,1,0,1.2,0.6,-0.132907416625298,-0.132907416625298,750,0,0,neutral,0.1,3054.33927476917,3282.66605081428
54,104,3,430,-0.5,-0.5,-0.5,3,3,0.6,3,502,1,1,502,1,0,1.4,1,-0.7456878073763,-0.7456878073763,750,1,0,congruent,0.1,6248.16598800852,2796.57545240459
54,104,3,431,0.5,-0.5,0,4,NaN,0.6,4,506,1,1,506,1,0,1.2,NaN,-0.717513996307289,-0.717513996307289,750,0,0,neutral,1,17031.8525263413,2963.07026003569
54,104,3,432,-0.5,-0.5,-0.5,3,3,0.6,3,590,1,1,590,1,0,1.4,1,-0.125863963858045,-0.125863963858045,750,1,0,congruent,0.1,5701.33789880337,1625.26887684838
54,104,3,433,0.5,0.5,-0.5,1,1,0.6,1,444,1,1,444,1,0,1.2,NaN,-1.15420806787697,-1.15420806787697,750,1,0,congruent,1,3603.80999070656,3296.97059422293
54,104,3,434,-0.5,0.5,0.5,4,3,0.8,3,600,0,1,NaN,0,0,1.4,0.6,-0.0554294361855165,NaN,750,1,0,incongruent,0,4053.72547136588,5737.53177046536
54,104,3,435,0.5,0.5,0.5,2,1,0.8,1,572,0,1,NaN,0,0,1.2,NaN,-0.252646113668598,NaN,750,1,0,incongruent,0,2054.46729398061,1568.45293643226
54,104,3,436,0.5,-0.5,0.5,1,3,0.6,3,543,0,1,NaN,1,0,1,NaN,-0.456906243918931,NaN,750,1,0,incongruent,1,3431.74326013645,4136.72838506764
54,104,3,437,0.5,-0.5,-0.5,2,2,0.6,2,670,1,1,670,0,0,1,NaN,0.437612257522186,0.437612257522186,750,1,0,congruent,0,8424.90421380576,3661.69318254956
54,104,3,439,0.5,0.5,-0.5,4,4,0.6,4,524,1,1,524,1,0,0.6,NaN,-0.590731846496736,-0.590731846496736,750,1,0,congruent,1,14586.1710734696,1914.65615819015
54,104,3,440,-0.5,-0.5,0,2,NaN,0.6,3,263,0,1,NaN,1,0,1,1,-2.42907301874974,NaN,750,0,1,neutral,0.1,4549.68731322796,4669.00713465993
54,104,3,441,0.5,0.5,0.5,3,1,0.6,1,463,0,1,NaN,0,0,1.2,NaN,-1.02038246529916,NaN,750,1,0,incongruent,0,3797.5064082453,4053.43689200732
54,104,3,442,0.5,-0.5,0.5,4,2,0.4,2,759,0,0,NaN,0,0,0.8,NaN,1.06447955380769,NaN,750,1,0,incongruent,0,2499.95315626601,2002.71618140286
54,104,3,443,0.5,0.5,0,2,NaN,0.4,3,726,0,1,NaN,0,0,0.8,NaN,0.832045612488348,NaN,750,0,1,neutral,0,9072.6749825334,4236.27990465552
54,104,3,444,-0.5,0.5,-0.5,1,1,0.2,1,470,1,1,470,1,0,0.6,0.4,-0.971078295928393,-0.971078295928393,750,1,0,congruent,0.1,2461.74456124927,1152.91519658628
54,104,3,445,0.5,0.5,0.5,4,3,0.4,3,629,0,1,NaN,0,0,0.4,NaN,0.148830694064817,NaN,750,1,0,incongruent,0,5396.58504199863,2664.61819693781
54,104,3,446,0.5,-0.5,0,1,NaN,0.4,1,634,1,1,634,1,0,0.2,NaN,0.184047957901082,0.184047957901082,750,0,0,neutral,1,6795.69510047308,5240.18341699539
54,104,3,447,0.5,-0.5,0.5,4,2,0.4,4,599,1,1,599,1,0,0.6,NaN,-0.0624728889527694,-0.0624728889527694,750,0,0,incongruent,1,3471.46170645346,1447.64221775006
54,104,3,448,-0.5,-0.5,-0.5,3,3,0.4,3,606,1,1,606,1,0,1,1,-0.0131687195819991,-0.0131687195819991,750,1,0,congruent,0.1,4451.38324016391,4926.34529742986
54,104,3,449,0.5,0.5,0,1,NaN,0.4,1,512,1,1,512,1,0,1.2,NaN,-0.675253279703771,-0.675253279703771,750,0,0,neutral,1,2883.91509716538,4619.86915781197
54,104,3,450,-0.5,-0.5,-0.5,2,2,0.4,2,530,1,1,530,1,0,1.4,1,-0.548471129893219,-0.548471129893219,750,1,0,congruent,0.1,917.289142599183,2072.05449096534
54,104,4,451,-0.5,-0.5,0.5,1,3,0.4,3,668,0,1,NaN,1,0,1.6,1,0.42352535198768,NaN,750,1,0,incongruent,0.1,1969.45349777092,2366.62956089093
54,104,4,452,-0.5,-0.5,0.5,4,2,0.4,4,664,1,1,664,1,0,1.4,1,0.395351540918669,0.395351540918669,750,0,0,incongruent,0.1,2588.65606629437,3175.41451108771
54,104,4,453,0.5,-0.5,-0.5,3,3,0.4,3,485,1,1,485,1,0,1.2,NaN,-0.865426504419599,-0.865426504419599,750,1,0,congruent,1,3578.01402619612,949.772059211636
54,104,4,454,0.5,-0.5,-0.5,2,2,0.4,2,659,1,1,659,1,0,1.4,NaN,0.360134277082404,0.360134277082404,750,1,0,congruent,1,3821.6278230584,3174.30235972495
54,104,4,455,-0.5,0.5,0,4,NaN,0.4,4,691,1,1,691,1,0,1.4,0.6,0.585524765634497,0.585524765634497,750,0,0,neutral,0.1,7026.54102800676,1017.65174657609
54,104,4,456,-0.5,-0.5,-0.5,2,2,0.6,2,463,1,1,463,1,0,1.4,1,-1.02038246529916,-1.02038246529916,750,1,0,congruent,0.1,21161.2998112544,6757.51475091995
54,104,4,457,-0.5,-0.5,0.5,1,4,0.6,1,630,1,1,630,0,0,1.4,1,0.15587414683207,0.15587414683207,750,0,0,incongruent,0,16899.745693009,1522.39187553225
54,104,4,458,-0.5,0.5,0.5,4,3,0.6,4,429,1,1,429,1,0,1.2,0.8,-1.25985985938576,-1.25985985938576,750,0,0,incongruent,0.1,7121.51089644648,2803.56828610172
54,104,4,459,0.5,-0.5,-0.5,1,1,0.8,1,377,1,1,377,1,0,1,NaN,-1.62611940328291,-1.62611940328291,750,1,0,congruent,1,2650.02431845549,7196.32147950495
54,104,4,460,-0.5,0.5,0,4,NaN,0.8,4,529,1,1,529,1,0,1,0.8,-0.555514582660472,-0.555514582660472,750,0,0,neutral,0.1,3996.21626030402,2150.32960951492
54,104,4,461,-0.5,0.5,0.5,3,4,0.8,1,503,0,1,NaN,0,0,1,0.8,-0.738644354609047,NaN,750,0,1,incongruent,0,11066.9913193023,4245.62422447925
54,104,4,462,0.5,0.5,0.5,2,3,0.8,2,543,1,1,543,1,0,0.8,NaN,-0.456906243918931,-0.456906243918931,750,0,0,incongruent,1,1126.97783959892,2733.06876939179
54,104,4,463,0.5,0.5,-0.5,1,1,0.8,1,363,1,1,363,1,0,1.2,NaN,-1.72472774202445,-1.72472774202445,750,1,0,congruent,1,1295.12986946727,5047.45335859972
54,104,4,464,-0.5,0.5,-0.5,3,3,0.8,3,440,1,1,440,1,0,1.4,0.8,-1.18238187894598,-1.18238187894598,750,1,0,congruent,0.1,4359.79173508456,2791.91324927914
54,104,4,465,-0.5,0.5,-0.5,4,4,0.8,4,530,1,1,530,1,0,1.2,0.8,-0.548471129893219,-0.548471129893219,750,1,0,congruent,0.1,6918.88611765622,5544.63711394593
54,104,4,466,0.5,0.5,-0.5,2,2,0.8,2,568,1,1,568,1,0,1.2,NaN,-0.280819924737609,-0.280819924737609,750,1,0,congruent,1,6845.53412259842,1094.39103656894
54,104,4,467,-0.5,0.5,0,3,NaN,1,3,689,1,1,689,1,0,1.6,0.8,0.571437860099991,0.571437860099991,750,0,0,neutral,0.1,12065.1624993239,3338.40815518885
54,104,4,468,0.5,0.5,0.5,4,1,1,4,743,1,1,743,1,0,1.4,NaN,0.951784309531647,0.951784309531647,750,0,0,incongruent,1,2385.88323575718,3660.39242705102
54,104,4,469,-0.5,0.5,0,3,NaN,1,3,473,1,1,473,1,0,1.4,0.8,-0.949947937626634,-0.949947937626634,750,0,0,neutral,0.1,1183.13339179606,4432.93220166992
54,104,4,470,0.5,-0.5,-0.5,1,1,1,1,581,1,1,581,1,0,1.4,NaN,-0.189255038763321,-0.189255038763321,750,1,0,congruent,1,22530.1325468817,3731.56946311993
54,104,4,471,0.5,-0.5,-0.5,2,2,1,2,673,1,1,673,1,0,1.6,NaN,0.458742615823945,0.458742615823945,750,1,0,congruent,1,10535.1444135543,2194.88924839996
54,104,4,472,0.5,-0.5,0.5,4,3,1,4,484,1,1,484,1,0,1.6,NaN,-0.872469957186852,-0.872469957186852,750,0,0,incongruent,1,14581.4351042743,3194.06328648246
54,104,4,473,0.5,0.5,0,3,NaN,1,3,429,1,1,429,1,0,1.8,NaN,-1.25985985938576,-1.25985985938576,750,0,0,neutral,1,2734.15574698241,2909.8542073489
54,104,4,474,0.5,-0.5,-0.5,1,1,1,1,363,1,1,363,1,0,1.8,NaN,-1.72472774202445,-1.72472774202445,750,1,0,congruent,1,3417.35885386301,1674.96156800244
54,104,4,475,0.5,-0.5,0.5,4,3,1,4,553,1,1,553,1,0,2,NaN,-0.386471716246403,-0.386471716246403,750,0,0,incongruent,1,3146.3373931657,4608.78066388668
54,104,4,476,0.5,0.5,0.5,3,4,1,1,804,0,0,NaN,0,0,2,NaN,1.38143492833407,NaN,750,0,1,incongruent,0,6428.26045007608,2953.43697903123
54,104,4,477,0.5,-0.5,-0.5,2,2,0.8,2,501,1,1,501,1,0,1.6,NaN,-0.752731260143553,-0.752731260143553,750,1,0,congruent,1,9374.13854992961,6755.06534128028
54,104,4,478,0.5,-0.5,-0.5,3,3,0.8,3,488,1,1,488,1,0,1.6,NaN,-0.844296146117841,-0.844296146117841,750,1,0,congruent,1,3261.50462378092,2256.89521813124
54,104,4,479,-0.5,-0.5,0.5,2,4,0.8,1,917,0,0,NaN,1,0,1.6,0.8,2.17734509103365,NaN,750,0,1,incongruent,0.1,6210.68962589108,4982.64346355841
54,104,4,480,0.5,-0.5,-0.5,3,3,0.8,3,512,1,1,512,1,0,1.4,NaN,-0.675253279703771,-0.675253279703771,750,1,0,congruent,1,2882.23378801256,3479.7078602147
54,104,4,481,-0.5,-0.5,0.5,2,1,0.8,1,566,0,1,NaN,1,0,1.4,0.8,-0.294906830272115,NaN,750,1,0,incongruent,0.1,3118.90509433234,2262.87810136489
54,104,4,482,0.5,0.5,-0.5,4,4,0.8,4,504,1,1,504,1,0,1.6,NaN,-0.731600901841794,-0.731600901841794,750,1,0,congruent,1,1545.96007027407,1119.43035427122
54,104,4,483,0.5,-0.5,-0.5,3,3,0.8,3,434,1,1,434,1,0,1.6,NaN,-1.2246425955495,-1.2246425955495,750,1,0,congruent,1,3429.67436582391,971.893524576353
54,104,4,484,-0.5,0.5,-0.5,4,4,0.8,4,422,1,1,422,1,0,1.6,0.8,-1.30916402875653,-1.30916402875653,750,1,0,congruent,0.1,4198.2323627098,4180.92619128169
54,104,4,485,0.5,-0.5,0.5,2,1,0.8,3,801,0,0,NaN,1,0,1.6,NaN,1.36030457003232,NaN,750,0,1,incongruent,1,4531.94486183477,8998.06318612627
54,104,4,486,0.5,0.5,0,1,NaN,0.8,3,833,0,0,NaN,0,0,1.6,NaN,1.58569505858441,NaN,750,0,1,neutral,0,11644.0245742523,9976.21789755572
54,104,4,487,0.5,0.5,-0.5,3,3,0.6,3,523,1,1,523,1,0,1.4,NaN,-0.597775299263989,-0.597775299263989,750,1,0,congruent,1,10949.1590436689,2560.24957637047
54,104,4,488,-0.5,-0.5,0,2,NaN,0.6,1,679,0,1,NaN,0,0,1.4,0.8,0.501003332427462,NaN,750,0,1,neutral,0,4301.85765149717,4771.89110478277
54,104,4,489,0.5,0.5,-0.5,3,3,0.6,3,480,1,1,480,1,0,1,NaN,-0.900643768255864,-0.900643768255864,750,1,0,congruent,1,5727.1694658173,2096.83193165009
54,104,4,490,0.5,-0.5,0,4,NaN,0.8,4,517,1,1,517,0,0,1.2,NaN,-0.640036015867507,-0.640036015867507,750,0,0,neutral,0,9599.77055165597,3546.61941134531
54,104,4,491,-0.5,0.5,-0.5,2,2,0.8,2,850,1,0,850,0,0,0.8,1,1.70543375562771,1.70543375562771,750,1,0,congruent,0,3243.64754055974,4646.16617999217
54,104,4,493,0.5,0.5,0,1,NaN,0.6,2,537,0,1,NaN,0,0,0.6,NaN,-0.499166960522449,NaN,750,0,1,neutral,0,16305.7954114269,8462.39961980714
54,104,4,494,-0.5,-0.5,-0.5,3,3,0.6,3,487,1,1,487,1,0,0.6,0.6,-0.851339598885094,-0.851339598885094,750,1,0,congruent,0.1,3751.03517622415,3840.20664558139
54,104,4,495,0.5,0.5,0,1,NaN,0.6,1,510,1,1,510,1,0,0.4,NaN,-0.689340185238277,-0.689340185238277,750,0,0,neutral,1,9825.11972485864,2373.26624687668
54,104,4,496,0.5,0.5,-0.5,4,4,0.6,4,605,1,1,605,1,0,0.8,NaN,-0.020212172349252,-0.020212172349252,750,1,0,congruent,1,3531.65399904349,819.989053050097
54,104,4,497,-0.5,0.5,0.5,1,3,0.6,3,617,0,1,NaN,0,0,1.2,0.8,0.0643092608577828,NaN,750,1,0,incongruent,0,11973.9460816251,1364.71834787408
54,104,4,498,-0.5,-0.5,-0.5,4,4,0.6,4,497,1,1,497,1,0,1,0.6,-0.780905071212565,-0.780905071212565,750,1,0,congruent,0.1,21159.4215376358,2412.4623888023
54,104,4,499,-0.5,0.5,0,1,NaN,0.6,1,507,1,1,507,1,0,1.2,0.6,-0.710470543540036,-0.710470543540036,750,0,0,neutral,0.1,4659.68631403738,1212.28689236991
54,104,4,501,0.5,0.5,-0.5,1,1,0.8,1,452,1,1,452,1,0,1.2,NaN,-1.09786044573894,-1.09786044573894,750,1,0,congruent,1,4613.52093543462,2564.17981179242
54,104,4,502,0.5,0.5,-0.5,3,3,0.8,3,738,1,1,738,1,0,1.2,NaN,0.916567045695383,0.916567045695383,750,1,0,congruent,1,12401.8641595655,10751.1739937501
54,104,4,503,0.5,-0.5,0,4,NaN,0.8,4,536,1,1,536,1,0,1.6,NaN,-0.506210413289702,-0.506210413289702,750,0,0,neutral,1,1223.36258243206,4556.94673796356
54,104,4,504,-0.5,0.5,-0.5,2,2,0.8,2,564,1,1,564,1,0,1.8,0.6,-0.308993735806621,-0.308993735806621,750,1,0,congruent,0.1,8291.5213414096,3112.29164289838
54,104,4,505,-0.5,-0.5,0.5,3,1,1,3,792,1,0,792,1,0,1.8,0.8,1.29691349512704,1.29691349512704,750,0,0,incongruent,0.1,5796.76987457015,3505.82053236971
54,104,4,506,-0.5,0.5,0,2,NaN,1,2,686,1,1,686,1,0,1.6,0.6,0.550307501798233,0.550307501798233,750,0,0,neutral,0.1,5714.92353224194,633.54846278407
54,104,4,507,-0.5,0.5,0.5,3,4,1,3,652,1,1,652,1,0,1.4,0.8,0.310830107711634,0.310830107711634,750,0,0,incongruent,0.1,6864.77371420037,13087.9511800904
54,104,4,508,-0.5,0.5,0.5,2,1,1,2,693,1,1,693,1,0,1.2,0.8,0.599611671169003,0.599611671169003,750,0,0,incongruent,0.1,16172.8646623349,3596.12122929874
54,104,4,510,-0.5,0.5,0.5,1,3,1,2,766,0,0,NaN,0,0,1.2,1,1.11378372317846,NaN,750,0,1,incongruent,0,10556.7163055324,2845.93385100155
54,104,4,511,0.5,0.5,0.5,3,1,0.8,2,615,0,1,NaN,0,0,1,NaN,0.050222355323277,NaN,750,0,1,incongruent,0,12571.0048291643,2231.80874698634
54,104,4,512,0.5,-0.5,-0.5,4,4,0.6,4,513,1,1,513,1,0,0.8,NaN,-0.668209826936518,-0.668209826936518,750,1,0,congruent,1,5086.83246046115,1880.15150328035
54,104,4,513,0.5,-0.5,0.5,1,3,0.6,1,770,1,0,770,1,0,1,NaN,1.14195753424748,1.14195753424748,750,0,0,incongruent,1,10074.888851085,3376.15445830518
54,104,4,514,0.5,-0.5,0,4,NaN,0.6,4,567,1,1,567,1,0,1.2,NaN,-0.287863377504862,-0.287863377504862,750,0,0,neutral,1,6368.40888034657,4443.04906222617
54,104,4,515,-0.5,0.5,0.5,2,4,0.6,2,824,1,0,824,0,0,1.2,0.8,1.52230398367913,1.52230398367913,750,0,0,incongruent,0,6951.22141997658,4601.55411917421
54,104,4,516,0.5,-0.5,0.5,4,1,0.4,4,445,1,1,445,1,0,1.2,NaN,-1.14716461510972,-1.14716461510972,750,0,0,incongruent,1,701.645781365806,5847.44914441206
54,104,4,517,0.5,0.5,-0.5,3,3,0.4,3,892,1,0,892,0,0,1.6,NaN,2.00125877185233,2.00125877185233,750,1,0,congruent,0,1048.32495449638,6252.97186593062
54,104,4,518,0.5,0.5,0.5,4,1,0.2,4,509,1,1,509,1,0,1.2,NaN,-0.69638363800553,-0.69638363800553,750,0,0,incongruent,1,9306.64913569464,3870.20286477583
54,104,4,519,-0.5,-0.5,0.5,3,2,0.2,3,573,1,1,573,0,0,1.2,0.8,-0.245602660901345,-0.245602660901345,750,0,0,incongruent,0,7026.8413422397,3347.65509481119
54,104,4,520,-0.5,0.5,0,4,NaN,0.2,4,509,1,1,509,1,0,0.8,0.6,-0.69638363800553,-0.69638363800553,750,0,0,neutral,0.1,7126.08077278445,2861.06212304829
54,104,4,521,-0.5,0.5,-0.5,2,2,0.4,2,680,1,1,680,1,0,1,0.6,0.508046785194715,0.508046785194715,750,1,0,congruent,0.1,2135.9255914742,3048.67539175634
54,104,4,522,0.5,-0.5,0.5,3,4,0.6,3,954,1,0,954,1,0,0.8,NaN,2.43795284342201,2.43795284342201,750,0,0,incongruent,1,5456.86292319634,1699.32869197557
54,104,4,523,-0.5,0.5,-0.5,1,1,0.6,1,475,1,1,475,1,0,1.2,0.6,-0.935861032092128,-0.935861032092128,750,1,0,congruent,0.1,5395.7263060051,2460.12458517403
54,104,4,524,-0.5,0.5,-0.5,4,4,0.8,4,568,1,1,568,1,0,1,0.6,-0.280819924737609,-0.280819924737609,750,1,0,congruent,0.1,7162.01409739348,3111.4116756913
54,104,4,525,0.5,-0.5,0.5,1,3,1,1,834,1,0,834,1,0,1.2,NaN,1.59273851135166,1.59273851135166,750,0,0,incongruent,1,4797.04875686793,2302.70617818032
54,104,4,526,0.5,0.5,-0.5,2,2,1,3,802,0,0,NaN,0,0,1.4,NaN,1.36734802279957,NaN,750,0,1,congruent,0,15699.3317347844,6757.79630941651
54,104,4,527,-0.5,0.5,-0.5,4,4,0.8,4,806,1,0,806,0,0,1.2,0.8,1.39552183386858,1.39552183386858,750,1,0,congruent,0,6499.06193380122,2121.88722411474
54,104,4,528,0.5,0.5,-0.5,3,3,0.6,3,554,1,1,554,1,0,0.8,NaN,-0.37942826347915,-0.37942826347915,750,1,0,congruent,1,2771.00856236356,5690.86627862978
54,104,4,530,-0.5,-0.5,-0.5,4,4,0.4,4,630,1,1,630,0,0,0.8,0.6,0.15587414683207,0.15587414683207,750,1,0,congruent,0,6028.3518770117,1330.74917396406
54,104,4,534,0.5,-0.5,0,1,NaN,0.4,1,549,1,1,549,0,0,0.4,NaN,-0.414645527315414,-0.414645527315414,750,0,0,neutral,0,4578.60584926571,3639.62416410531
54,104,4,535,-0.5,-0.5,-0.5,2,2,0.4,2,899,1,0,899,0,0,0.4,0.4,2.0505629412231,2.0505629412231,750,1,0,congruent,0,5122.13074989975,2903.24677350164
54,104,4,536,0.5,0.5,0,4,NaN,0.4,4,454,1,1,454,1,0,0.4,NaN,-1.08377354020444,-1.08377354020444,750,0,0,neutral,1,1175.25933865072,5378.9931032955
54,104,4,537,0.5,-0.5,0.5,2,3,0.6,2,860,1,0,860,0,0,0.8,NaN,1.77586828330024,1.77586828330024,750,0,0,incongruent,0,5597.82321927566,1815.55102806665
54,104,4,538,-0.5,-0.5,-0.5,1,1,0.6,1,746,1,1,746,1,0,0.4,0.2,0.972914667833406,0.972914667833406,750,1,0,congruent,0.1,9323.38904216825,3050.42729758871
54,104,4,539,-0.5,0.5,0,4,NaN,0.6,4,630,1,1,630,1,0,0.6,0.8,0.15587414683207,0.15587414683207,750,0,0,neutral,0.1,10105.8578160283,3755.69783477164
54,104,4,540,0.5,-0.5,0.5,3,1,0.8,3,834,1,0,834,1,0,0.8,NaN,1.59273851135166,1.59273851135166,750,0,0,incongruent,1,6086.07784908829,4026.30427462569
54,104,4,541,0.5,-0.5,0,1,NaN,0.8,1,724,1,1,724,1,0,1.2,NaN,0.817958706953843,0.817958706953843,750,0,0,neutral,1,3015.29462513378,4227.32867427823
54,104,4,542,-0.5,-0.5,0.5,3,4,0.8,4,778,0,0,NaN,1,0,1.2,0.2,1.1983051563855,NaN,750,1,0,incongruent,0.1,16547.3359033747,2730.76800762392
54,104,4,544,0.5,-0.5,0.5,3,1,0.6,3,863,1,0,863,1,0,1.2,NaN,1.79699864160199,1.79699864160199,750,0,0,incongruent,1,8676.73261364126,4188.10065172536
54,104,4,545,-0.5,-0.5,0,1,NaN,0.6,3,495,0,1,NaN,1,0,1.4,0.4,-0.79499197674707,NaN,750,0,1,neutral,0.1,14521.7495362701,7178.87339788339
54,104,4,546,0.5,-0.5,0.5,4,3,0.6,4,661,1,1,661,0,0,1.2,NaN,0.37422118261691,0.37422118261691,750,0,0,incongruent,0,1167.22445134244,10579.8923520947
54,104,4,547,0.5,-0.5,0,2,NaN,0.6,1,643,0,1,NaN,1,0,0.8,NaN,0.247439032806358,NaN,750,0,1,neutral,1,16207.1091335262,8177.79786887787
54,104,4,548,0.5,-0.5,0.5,3,4,0.6,1,542,0,1,NaN,0,0,1,NaN,-0.463949696686184,NaN,750,0,1,incongruent,0,1998.08820982362,4191.99385365456
54,104,4,549,-0.5,0.5,-0.5,1,1,0.6,1,462,1,1,462,1,0,1,0.6,-1.02742591806642,-1.02742591806642,750,1,0,congruent,0.1,2515.38157210712,3039.0972051158
54,104,4,550,0.5,-0.5,0,2,NaN,0.8,3,607,0,1,NaN,1,0,0.8,NaN,-0.0061252668147462,NaN,750,0,1,neutral,1,10656.2442336883,13140.7316989354
54,104,4,551,0.5,-0.5,-0.5,3,3,0.8,1,618,0,1,NaN,1,0,1,NaN,0.0713527136250356,NaN,750,0,1,congruent,1,1757.59200907528,755.628720936821
54,104,4,552,0.5,-0.5,0.5,1,2,0.8,3,565,0,1,NaN,1,0,1.4,NaN,-0.301950283039368,NaN,750,0,1,incongruent,1,6063.3302426194,3467.73062000172
54,104,4,553,0.5,0.5,-0.5,3,3,0.8,3,599,1,1,599,1,0,1.4,NaN,-0.0624728889527694,-0.0624728889527694,750,1,0,congruent,1,6115.74928413686,4465.09266505337
54,104,4,554,0.5,-0.5,0,4,NaN,0.8,4,684,1,1,684,1,0,1.8,NaN,0.536220596263727,0.536220596263727,750,0,0,neutral,1,5764.46569944657,2579.28457084251
54,104,4,556,-0.5,0.5,0,3,NaN,0.8,3,665,1,1,665,1,0,2,0.6,0.402394993685922,0.402394993685922,750,0,0,neutral,0.1,10859.9764443778,5632.71700202654
54,104,4,557,0.5,-0.5,-0.5,1,1,0.8,1,681,1,1,681,0,0,1.8,NaN,0.515090237961968,0.515090237961968,750,1,0,congruent,0,2645.58864247003,1820.65559937962
54,104,4,559,0.5,-0.5,0,2,NaN,0.8,2,450,1,1,450,1,0,1.2,NaN,-1.11194735127345,-1.11194735127345,750,0,0,neutral,1,6533.49938575683,3413.05319316139
54,104,4,560,0.5,0.5,-0.5,4,4,0.8,4,514,1,1,514,1,0,1.2,NaN,-0.661166374169265,-0.661166374169265,750,1,0,congruent,1,10245.0722126069,4731.35078182468
54,104,4,561,0.5,0.5,-0.5,3,3,1,3,483,1,1,483,1,0,1.2,NaN,-0.879513409954105,-0.879513409954105,750,1,0,congruent,1,5205.92896464855,6731.7237459727
54,104,4,562,0.5,0.5,0,4,NaN,1,4,540,1,1,540,1,0,1.4,NaN,-0.47803660222069,-0.47803660222069,750,0,0,neutral,1,5738.51472712213,2097.03309804358
54,104,4,563,0.5,0.5,-0.5,2,2,1,2,540,1,1,540,1,0,1.8,NaN,-0.47803660222069,-0.47803660222069,750,1,0,congruent,1,2008.5993912782,8638.82609340566
54,104,4,564,0.5,-0.5,-0.5,4,4,1,4,554,1,1,554,1,0,2,NaN,-0.37942826347915,-0.37942826347915,750,1,0,congruent,1,14091.1105188297,4136.29462763738
54,104,4,565,0.5,0.5,-0.5,3,3,1,3,495,1,1,495,1,0,2,NaN,-0.79499197674707,-0.79499197674707,750,1,0,congruent,1,2133.277361914,766.066657390148
54,104,4,566,-0.5,-0.5,0,4,NaN,1,4,549,1,1,549,1,0,2,0.6,-0.414645527315414,-0.414645527315414,750,0,0,neutral,0.1,2881.86420843886,6074.49717829581
54,104,4,567,0.5,-0.5,-0.5,1,1,1,1,551,1,1,551,1,0,1.8,NaN,-0.400558621780908,-0.400558621780908,750,1,0,congruent,1,7371.9364298608,8261.18079394283
54,104,4,568,-0.5,0.5,0.5,3,2,1,3,661,1,1,661,1,0,1.8,0.8,0.37422118261691,0.37422118261691,750,0,0,incongruent,0.1,3959.24719233515,3698.89592483991
54,104,4,569,0.5,0.5,0,4,NaN,1,4,538,1,1,538,1,0,1.6,NaN,-0.492123507755196,-0.492123507755196,750,0,0,neutral,1,4524.06328790783,5839.6103877039
54,104,4,570,0.5,0.5,0.5,2,3,1,2,837,1,0,837,0,0,1.6,NaN,1.61386886965342,1.61386886965342,750,0,0,incongruent,0,6937.25378615964,4327.99570097567
54,104,4,571,-0.5,0.5,0.5,3,1,0.8,3,805,1,0,805,0,0,1.2,0.8,1.38847838110133,1.38847838110133,750,0,0,incongruent,0,4462.74855401792,6689.31549877767
54,104,4,572,0.5,-0.5,0,4,NaN,0.6,4,480,1,1,480,0,0,1,NaN,-0.900643768255864,-0.900643768255864,750,0,0,neutral,0,3570.28219008629,2957.27476749918
54,104,4,573,0.5,-0.5,-0.5,3,3,0.6,2,543,0,1,NaN,0,0,0.6,NaN,-0.456906243918931,NaN,750,0,1,congruent,0,8619.4611792888,4826.24065391608
54,104,4,574,0.5,-0.5,-0.5,1,1,0.6,1,555,1,1,555,1,0,0.4,NaN,-0.372384810711897,-0.372384810711897,750,1,0,congruent,1,6638.44441535108,2514.15489333577
54,104,4,575,0.5,-0.5,0,2,NaN,0.6,3,601,0,1,NaN,1,0,0.4,NaN,-0.0483859834182636,NaN,750,0,1,neutral,1,4895.18977270438,8152.0554826151
54,104,4,576,-0.5,-0.5,0.5,1,4,0.6,4,386,0,1,NaN,1,0,0.8,0.8,-1.56272832837764,NaN,750,1,0,incongruent,0.1,10930.5217577658,2710.33465710992
54,104,4,577,-0.5,0.5,-0.5,2,2,0.6,2,590,1,1,590,1,0,1,0.8,-0.125863963858045,-0.125863963858045,750,1,0,congruent,0.1,6391.47550003394,4314.21217160745
54,104,4,578,0.5,0.5,-0.5,3,3,0.6,3,559,1,1,559,1,0,1.2,NaN,-0.344210999642885,-0.344210999642885,750,1,0,congruent,1,9859.05723123983,3487.82268723237
54,104,4,579,-0.5,-0.5,-0.5,1,1,0.6,1,575,1,1,575,1,0,1.6,1,-0.231515755366839,-0.231515755366839,750,1,0,congruent,0.1,17108.6107270142,1735.11745393492
54,104,4,580,-0.5,0.5,-0.5,3,3,0.6,3,486,1,1,486,1,0,1.4,0.8,-0.858383051652347,-0.858383051652347,750,1,0,congruent,0.1,7686.77047540392,3218.92300522831
54,104,4,581,-0.5,0.5,-0.5,2,2,0.6,2,884,1,0,884,0,0,1.2,0.8,1.94491114971431,1.94491114971431,750,1,0,congruent,0,1846.84676453529,2498.32598788594
54,104,4,587,0.5,-0.5,0,3,NaN,0.6,2,740,0,1,NaN,1,0,0.8,NaN,0.930653951229889,NaN,750,0,1,neutral,1,4550.72098606008,2867.01755420167
54,104,4,588,-0.5,-0.5,0.5,2,4,0.6,4,359,0,1,NaN,1,0,0.8,0.8,-1.75290155309346,NaN,750,1,0,incongruent,0.1,3850.46553452521,449.564648152513
54,104,4,589,0.5,-0.5,-0.5,1,1,0.6,1,489,1,1,489,1,0,1,NaN,-0.837252693350588,-0.837252693350588,750,1,0,congruent,1,12219.0184084317,4387.46125049297
54,104,4,590,-0.5,0.5,0,3,NaN,0.6,3,490,1,1,490,1,0,1.4,0.6,-0.830209240583335,-0.830209240583335,750,0,0,neutral,0.1,1622.64967533234,3080.25424627198
54,104,4,591,-0.5,0.5,-0.5,4,4,0.6,4,642,1,1,642,1,0,1.2,0.6,0.240395580039105,0.240395580039105,750,1,0,congruent,0.1,5809.54995828264,4134.18718545247
54,104,4,592,-0.5,-0.5,0,3,NaN,0.6,2,521,0,1,NaN,0,0,1.4,0.8,-0.611862204798495,NaN,750,0,1,neutral,0,2864.54637029442,3159.17250296295
54,104,4,594,-0.5,0.5,0,3,NaN,0.6,3,492,1,1,492,1,0,0.8,0.8,-0.816122335048829,-0.816122335048829,750,0,0,neutral,0.1,3190.84878369023,4360.61219151242
54,104,4,595,0.5,-0.5,0.5,1,3,0.6,2,738,0,1,NaN,1,0,0.6,NaN,0.916567045695383,NaN,750,0,1,incongruent,1,8689.72639019658,6433.51939842895
54,104,4,596,-0.5,0.5,-0.5,2,2,0.6,3,518,0,1,NaN,0,0,0.8,0.8,-0.632992563100254,NaN,750,0,1,congruent,0,9087.55150546732,1594.93501439258
54,104,4,597,-0.5,0.5,0.5,1,4,0.6,4,858,0,0,NaN,0,0,0.6,0.6,1.76178137776573,NaN,750,1,0,incongruent,0,8442.82382198366,1875.29504104094
54,104,4,598,0.5,0.5,0,4,NaN,0.4,4,475,1,1,475,1,0,0.6,NaN,-0.935861032092128,-0.935861032092128,750,0,0,neutral,1,3136.85702655857,1753.94616664715
54,104,4,599,0.5,0.5,-0.5,1,1,0.4,1,575,1,1,575,1,0,1,NaN,-0.231515755366839,-0.231515755366839,750,1,0,congruent,1,7142.48793477338,2165.5149175653
54,104,4,600,-0.5,-0.5,0.5,2,4,0.6,2,86,1,1,86,1,0,1.2,0.6,-3.6757641585535,-3.6757641585535,750,0,0,incongruent,0.1,4342.18707296522,4476.56154166614
