subid,vers,block,trial,rewlvl,efflvl,congruency,targetresp,distractorresp,rollingefflvl,resp,rt,acc,fast,accrt,isrewarded,ismiss,runavgrrgen,runavgrrcond,zrt,acczrt,rtthreshold,isdisterror,isranderror,congruence,feedback,fcz_resp_theta,fcz_resp_theta_baseline
56,104,1,1,-0.5,-0.5,-0.5,1,1,0.6,1,819,1,0,819,0,0,0,0,1.74171266155745,1.74171266155745,750,1,0,congruent,0,3566.57858154173,3323.56057473836
56,104,1,2,-0.5,-0.5,0,2,NaN,0.6,2,398,1,1,398,1,0,0,0,-1.98194175044327,-1.98194175044327,750,0,0,neutral,0.1,2962.41551448969,861.252540944922
56,104,1,3,0.5,0.5,0.5,3,4,0.6,3,409,1,1,409,1,0,0.2,NaN,-1.88464911735062,-1.88464911735062,750,0,0,incongruent,1,8670.40180437535,2279.70588395596
56,104,1,4,-0.5,-0.5,0.5,2,1,0.7,2,695,1,1,695,1,0,0.6,0.2,0.644959343058427,0.644959343058427,750,0,0,incongruent,0.1,1446.97077798691,7638.35167994218
56,104,1,5,-0.5,0.5,0,4,NaN,0.7,4,587,1,1,587,1,0,0.8,0,-0.310277418214918,-0.310277418214918,750,0,0,neutral,0.1,3087.36917074196,3184.00302630126
56,104,1,6,0.5,0.5,-0.5,2,2,0.7,2,619,1,1,619,1,0,1,NaN,-0.0272443037635564,-0.0272443037635564,750,1,0,congruent,1,3271.6877961094,3223.30606606499
56,104,1,7,0.5,0.5,0,4,NaN,0.7,4,566,1,1,566,1,0,1.4,NaN,-0.496017899573624,-0.496017899573624,750,0,0,neutral,1,4811.85071636677,4523.66971037803
56,104,1,8,-0.5,-0.5,-0.5,2,2,0.9,2,791,1,0,791,0,0,1.6,0.4,1.49405868641251,1.49405868641251,750,1,0,congruent,0,5182.34381238441,4013.34359158094
56,104,1,9,0.5,0.5,0,3,NaN,0.9,3,724,1,1,724,1,0,1.2,NaN,0.901458103029973,0.901458103029973,750,0,0,neutral,1,2552.51974709074,760.231062826749
56,104,1,10,-0.5,0.5,-0.5,2,2,1,2,685,1,1,685,1,0,1.4,0.2,0.556511494792376,0.556511494792376,750,1,0,congruent,0.1,2781.3084579515,4268.17450731931
56,104,1,11,-0.5,0.5,0.5,3,1,1,3,600,1,1,600,1,0,1.4,0.4,-0.195295215469052,-0.195295215469052,750,0,0,incongruent,0.1,3917.61318214675,4080.11664480123
56,104,1,12,-0.5,0.5,0,2,NaN,1,2,655,1,1,655,1,0,1.2,0.6,0.291167949994225,0.291167949994225,750,0,0,neutral,0.1,6486.02542224026,4508.81740210411
56,104,1,13,0.5,-0.5,0.5,1,4,1,1,506,1,1,506,1,0,1,NaN,-1.02670498916993,-1.02670498916993,750,0,0,incongruent,1,2509.89223969644,1404.50840972013
56,104,1,14,-0.5,-0.5,0,2,NaN,1,2,525,1,1,525,1,0,1.4,0.4,-0.85865407746443,-0.85865407746443,750,0,0,neutral,0.1,1071.23310520262,2036.81881743234
56,104,1,15,0.5,-0.5,0.5,4,2,1,4,689,1,1,689,1,0,1.2,NaN,0.591890634098796,0.591890634098796,750,0,0,incongruent,1,5858.18080380365,1645.28049512946
56,104,1,16,0.5,0.5,-0.5,1,1,1,1,755,1,0,755,0,0,1.4,NaN,1.17564643265473,1.17564643265473,750,1,0,congruent,0,1898.82743992309,6883.96382457984
56,104,1,17,-0.5,-0.5,-0.5,3,3,0.8,3,564,1,1,564,0,0,1.2,0.6,-0.513707469226834,-0.513707469226834,750,1,0,congruent,0,4526.40757135885,2991.87125017632
56,104,1,18,0.5,-0.5,-0.5,4,4,0.8,4,514,1,1,514,1,0,1,NaN,-0.955946710557086,-0.955946710557086,750,1,0,congruent,1,4970.10964863037,6148.26863932949
56,104,1,19,-0.5,-0.5,0.5,1,2,0.8,2,588,0,1,NaN,0,0,1,0.6,-0.301432633388313,NaN,750,1,0,incongruent,0,14198.0115231417,2037.65087552931
56,104,1,20,-0.5,-0.5,0.5,3,4,0.8,3,602,1,1,602,0,0,0.8,0.4,-0.177605645815842,-0.177605645815842,750,0,0,incongruent,0,5606.33307908052,4767.74948710614
56,104,1,21,0.5,-0.5,0,2,NaN,0.8,2,686,1,1,686,0,0,0.4,NaN,0.565356279618981,0.565356279618981,750,0,0,neutral,0,4193.00365208599,2962.85548018045
56,104,1,22,0.5,0.5,0.5,4,1,0.8,4,711,1,1,711,1,0,0.4,NaN,0.786475900284107,0.786475900284107,750,0,0,incongruent,1,6567.42382550982,2664.33993293039
56,104,1,23,0.5,0.5,-0.5,3,3,0.8,3,529,1,1,529,1,0,0.8,NaN,-0.82327493815801,-0.82327493815801,750,1,0,congruent,1,6311.53579604069,5243.35501540891
56,104,1,24,0.5,0.5,0.5,4,2,0.8,4,667,1,1,667,1,0,0.8,NaN,0.397305367913486,0.397305367913486,750,0,0,incongruent,1,2396.9776996514,905.48531352576
56,104,1,25,-0.5,0.5,0,2,NaN,0.8,2,664,1,1,664,1,0,1.2,0.8,0.37077101343367,0.37077101343367,750,0,0,neutral,0.1,2487.60892287386,5509.65908920326
56,104,1,26,0.5,-0.5,-0.5,4,4,0.8,4,786,1,0,786,1,0,1.4,NaN,1.44983476227949,1.44983476227949,750,1,0,congruent,1,544.397267615851,3284.69867559295
56,104,1,27,0.5,0.5,0.5,3,1,0.8,3,667,1,1,667,1,0,1.8,NaN,0.397305367913486,0.397305367913486,750,0,0,incongruent,1,5555.69798554632,10079.6286337253
56,104,1,28,0.5,0.5,0,4,NaN,1,4,619,1,1,619,1,0,1.8,NaN,-0.0272443037635564,-0.0272443037635564,750,0,0,neutral,1,3741.64314147016,1411.92264799046
56,104,1,29,0.5,-0.5,-0.5,3,3,1,3,706,1,1,706,1,0,1.8,NaN,0.742251976151082,0.742251976151082,750,1,0,congruent,1,3107.91822050558,11632.6114703458
56,104,1,30,-0.5,-0.5,0.5,4,2,1,4,670,1,1,670,1,0,1.8,0.2,0.423839722393301,0.423839722393301,750,0,0,incongruent,0.1,2267.70988818677,532.680292680793
56,104,1,31,-0.5,0.5,-0.5,3,3,1,3,552,1,1,552,1,0,1.8,1,-0.619844887146094,-0.619844887146094,750,1,0,congruent,0.1,2704.7714763643,2474.00247659059
56,104,1,32,0.5,-0.5,0,2,NaN,1,2,615,1,1,615,1,0,1.6,NaN,-0.0626234430699766,-0.0626234430699766,750,0,0,neutral,1,8436.50786742847,3997.2076091215
56,104,1,33,-0.5,-0.5,-0.5,4,4,1,4,598,1,1,598,1,0,1.6,0.4,-0.212984785122262,-0.212984785122262,750,1,0,congruent,0.1,8174.01396240414,2574.19778599455
56,104,1,34,0.5,-0.5,0,2,NaN,1,2,630,1,1,630,1,0,1.4,NaN,0.070048329329099,0.070048329329099,750,0,0,neutral,1,1443.3951670288,2757.39433789933
56,104,1,35,-0.5,-0.5,0.5,4,1,1,4,746,1,1,746,1,0,1.4,0.4,1.09604336921528,1.09604336921528,750,0,0,incongruent,0.1,3746.02619172368,1254.74679498972
56,104,1,36,0.5,0.5,0.5,2,4,1,2,828,1,0,828,0,0,1.4,NaN,1.8213157249969,1.8213157249969,750,0,0,incongruent,0,5161.18437529591,7198.37384047148
56,104,1,37,-0.5,-0.5,0,3,NaN,0.8,3,584,1,1,584,0,0,1.2,0.6,-0.336811772694733,-0.336811772694733,750,0,0,neutral,0,4729.17478418938,2250.44048616243
56,104,1,38,-0.5,-0.5,0.5,1,2,0.8,1,776,1,0,776,1,0,0.8,0.6,1.36138691401343,1.36138691401343,750,0,0,incongruent,0.1,770.695385589406,4428.43573083165
56,104,1,39,-0.5,0.5,0,3,NaN,0.8,3,576,1,1,576,1,0,0.8,1,-0.407570051307573,-0.407570051307573,750,0,0,neutral,0.1,4754.90587492939,3736.28783661959
56,104,1,40,-0.5,-0.5,-0.5,1,1,0.8,1,654,1,1,654,1,0,0.6,0.8,0.28232316516762,0.28232316516762,750,1,0,congruent,0.1,3144.30505268881,628.079094375542
56,104,1,41,0.5,-0.5,-0.5,4,4,0.8,4,548,1,1,548,0,0,0.6,NaN,-0.655224026452514,-0.655224026452514,750,1,0,congruent,0,4364.13790496368,3209.85757159114
56,104,1,42,0.5,-0.5,0,1,NaN,0.8,1,613,1,1,613,1,0,0.6,NaN,-0.0803130127231867,-0.0803130127231867,750,0,0,neutral,1,1599.52446678829,2836.83267363031
56,104,1,43,0.5,0.5,-0.5,3,3,0.8,3,695,1,1,695,1,0,1,NaN,0.644959343058427,0.644959343058427,750,1,0,congruent,1,1675.05222709127,8914.09464374782
56,104,1,44,0.5,-0.5,0.5,1,2,0.8,1,619,1,1,619,1,0,1.2,NaN,-0.0272443037635564,-0.0272443037635564,750,0,0,incongruent,1,4360.55292956719,6847.73476650116
56,104,1,45,-0.5,0.5,0.5,2,4,0.8,2,730,1,1,730,1,0,1.4,1,0.954526811989603,0.954526811989603,750,0,0,incongruent,0.1,1643.23467803377,7448.03646638888
56,104,1,46,0.5,-0.5,-0.5,1,1,0.8,1,616,1,1,616,0,0,1.4,NaN,-0.0537786582433715,-0.0537786582433715,750,1,0,congruent,0,8569.46134323093,3586.44248648597
56,104,1,47,-0.5,-0.5,-0.5,4,4,0.8,4,600,1,1,600,1,0,1.4,0.8,-0.195295215469052,-0.195295215469052,750,1,0,congruent,0.1,3112.55389705808,1789.39080464551
56,104,1,48,-0.5,-0.5,0,1,NaN,0.8,1,721,1,1,721,1,0,1.2,0.8,0.874923748550158,0.874923748550158,750,0,0,neutral,0.1,1565.25570622115,11733.4771654332
56,104,1,49,-0.5,-0.5,0.5,2,4,0.8,2,666,1,1,666,1,0,1,0.8,0.38846058308688,0.38846058308688,750,0,0,incongruent,0.1,2990.70935130799,2168.26046107042
56,104,1,50,0.5,-0.5,0,1,NaN,0.8,1,560,1,1,560,0,0,0.8,NaN,-0.549086608533254,-0.549086608533254,750,0,0,neutral,0,1486.65125455244,2557.7965222425
56,104,1,51,-0.5,-0.5,-0.5,4,4,0.8,4,485,1,1,485,1,0,0.6,1,-1.21244547052863,-1.21244547052863,750,1,0,congruent,0.1,2217.12549307094,1250.08187957681
56,104,1,52,-0.5,0.5,0,2,NaN,0.8,2,740,1,1,740,1,0,0.8,1,1.04297466025565,1.04297466025565,750,0,0,neutral,0.1,2247.95766670785,1616.70419984828
56,104,1,53,0.5,-0.5,-0.5,1,1,0.8,1,618,1,1,618,1,0,0.8,NaN,-0.0360890885901615,-0.0360890885901615,750,1,0,congruent,1,1702.42284729294,1758.97495086888
56,104,1,54,-0.5,0.5,0,4,NaN,0.8,4,653,1,1,653,1,0,1,1,0.273478380341015,0.273478380341015,750,0,0,neutral,0.1,4684.20160076786,7605.89154921885
56,104,1,55,0.5,0.5,-0.5,1,1,1,1,510,1,1,510,1,0,1,NaN,-0.991325849863506,-0.991325849863506,750,1,0,congruent,1,4375.75052334256,880.522813982947
56,104,1,56,-0.5,0.5,0.5,2,4,1,2,656,1,1,656,1,0,1.4,1,0.30001273482083,0.30001273482083,750,0,0,incongruent,0.1,4903.01437467884,1447.17958454296
56,104,1,57,0.5,0.5,0.5,4,2,1,4,826,1,0,826,0,0,1.4,NaN,1.80362615534369,1.80362615534369,750,0,0,incongruent,0,1042.41670897028,3099.48505906152
56,104,1,58,-0.5,0.5,0.5,1,3,0.8,1,634,1,1,634,1,0,1.2,1,0.105427468635519,0.105427468635519,750,0,0,incongruent,0.1,4370.87810473238,1592.63460645139
56,104,1,59,-0.5,-0.5,0,2,NaN,0.8,2,632,1,1,632,1,0,1,1,0.0877378989823091,0.0877378989823091,750,0,0,neutral,0.1,6169.3219188568,911.133054513983
56,104,1,60,0.5,-0.5,0.5,4,1,0.8,4,400,1,1,400,1,0,1,NaN,-1.96425218079006,-1.96425218079006,750,0,0,incongruent,1,4833.41992726138,1845.69919934918
56,104,1,61,0.5,0.5,-0.5,3,3,0.8,3,323,1,1,323,1,0,1,NaN,-2.64530061243865,-2.64530061243865,750,1,0,congruent,1,5990.63777614465,2248.66891108793
56,104,1,62,-0.5,-0.5,0,4,NaN,0.8,4,554,1,1,554,1,0,1.2,1,-0.602155317492884,-0.602155317492884,750,0,0,neutral,0.1,2441.584871002,2924.10159671387
56,104,1,63,0.5,-0.5,-0.5,2,2,0.8,2,546,1,1,546,1,0,1.4,NaN,-0.672913596105724,-0.672913596105724,750,1,0,congruent,1,4777.36609402211,786.801587113129
56,104,1,64,0.5,0.5,0,3,NaN,0.8,3,710,1,1,710,1,0,1.6,NaN,0.777631115457502,0.777631115457502,750,0,0,neutral,1,8657.34994916389,2251.66741314712
56,104,1,65,0.5,0.5,0.5,2,3,0.8,2,539,1,1,539,1,0,1.8,NaN,-0.73482708989196,-0.73482708989196,750,0,0,incongruent,1,3904.03604653915,3063.64707119355
56,104,1,66,0.5,0.5,-0.5,1,1,0.8,1,532,1,1,532,1,0,1.8,NaN,-0.796740583678195,-0.796740583678195,750,1,0,congruent,1,5297.51306186694,3923.40992270586
56,104,1,67,0.5,-0.5,0.5,4,2,1,4,598,1,1,598,1,0,1.8,NaN,-0.212984785122262,-0.212984785122262,750,0,0,incongruent,1,4553.40348171691,3434.73926858067
56,104,1,68,0.5,0.5,-0.5,3,3,1,3,458,1,1,458,1,0,2,NaN,-1.45125466084697,-1.45125466084697,750,1,0,congruent,1,2865.59760172084,5105.04614863102
56,104,1,69,-0.5,0.5,0.5,4,2,1,4,573,1,1,573,1,0,2,1,-0.434104405787388,-0.434104405787388,750,0,0,incongruent,0.1,1516.441801338,2531.89708209025
56,104,1,70,-0.5,-0.5,0,1,NaN,1,1,558,1,1,558,1,0,1.8,1,-0.566776178186464,-0.566776178186464,750,0,0,neutral,0.1,2363.40697079699,1211.58283563358
56,104,1,71,-0.5,-0.5,-0.5,4,4,1,4,512,1,1,512,1,0,1.6,1,-0.973636280210296,-0.973636280210296,750,1,0,congruent,0.1,4780.98539949681,3372.78621874267
56,104,1,72,0.5,-0.5,0.5,2,3,1,2,646,1,1,646,1,0,1.4,NaN,0.21156488655478,0.21156488655478,750,0,0,incongruent,1,1906.42837172151,10632.6841215117
56,104,1,73,0.5,0.5,-0.5,1,1,1,1,559,1,1,559,1,0,1.4,NaN,-0.557931393359859,-0.557931393359859,750,1,0,congruent,1,9969.66580585745,1797.33015611859
56,104,1,74,0.5,0.5,0.5,3,4,1,3,617,1,1,617,1,0,1.4,NaN,-0.0449338734167665,-0.0449338734167665,750,0,0,incongruent,1,4683.94682255286,1087.08537357302
56,104,1,75,0.5,-0.5,-0.5,1,1,1,2,776,0,0,NaN,1,0,1.6,NaN,1.36138691401343,NaN,750,0,1,congruent,1,5680.15279931736,3173.40521489618
56,104,1,76,-0.5,-0.5,0.5,4,2,1,3,940,0,0,NaN,1,0,1.8,1,2.81193162557666,NaN,750,0,1,incongruent,0.1,12923.6540410446,3469.10113336618
56,104,1,77,-0.5,0.5,-0.5,3,3,1,3,528,1,1,528,1,0,1.8,1,-0.832119722984615,-0.832119722984615,750,1,0,congruent,0.1,4455.21634380608,870.333758280963
56,104,1,78,-0.5,0.5,-0.5,2,2,1,2,752,1,0,752,0,0,1.6,1,1.14911207817491,1.14911207817491,750,1,0,congruent,0,10612.4134133827,2289.08552921928
56,104,1,79,-0.5,0.5,0.5,1,3,0.8,1,506,1,1,506,1,0,1.2,0.8,-1.02670498916993,-1.02670498916993,750,0,0,incongruent,0.1,2757.00028908927,1545.48204344334
56,104,1,80,-0.5,-0.5,0.5,3,1,0.8,3,377,1,1,377,1,0,1,1,-2.16768223180198,-2.16768223180198,750,0,0,incongruent,0.1,7112.12661582973,1640.97957821653
56,104,1,81,-0.5,0.5,-0.5,4,4,0.8,4,409,1,1,409,1,0,0.8,0.8,-1.88464911735062,-1.88464911735062,750,1,0,congruent,0.1,4305.55965472168,1094.71031146385
56,104,1,82,0.5,-0.5,0.5,2,1,0.8,2,830,1,0,830,1,0,0.8,NaN,1.83900529465011,1.83900529465011,750,0,0,incongruent,1,8666.8249547746,15604.6092604101
56,104,1,83,0.5,-0.5,0,4,NaN,0.8,4,579,1,1,579,1,0,1,NaN,-0.381035696827758,-0.381035696827758,750,0,0,neutral,1,2483.87503129329,3045.14778786422
56,104,1,84,-0.5,0.5,0.5,1,4,0.8,1,565,1,1,565,1,0,1.4,0.8,-0.504862684400229,-0.504862684400229,750,0,0,incongruent,0.1,1718.06010144131,996.219574845164
56,104,1,85,0.5,-0.5,-0.5,3,3,0.8,3,524,1,1,524,0,0,1.4,NaN,-0.867498862291035,-0.867498862291035,750,1,0,congruent,0,2450.44753185713,1182.1429334222
56,104,1,86,-0.5,-0.5,0.5,2,1,0.8,2,521,1,1,521,1,0,1.2,1,-0.89403321677085,-0.89403321677085,750,0,0,incongruent,0.1,2159.34784230421,7105.04476779749
56,104,1,87,0.5,0.5,-0.5,4,4,0.8,4,602,1,1,602,1,0,1.2,NaN,-0.177605645815842,-0.177605645815842,750,1,0,congruent,1,3844.94199798845,3087.99571474995
56,104,1,88,0.5,0.5,0,1,NaN,0.8,1,581,1,1,581,1,0,1.2,NaN,-0.363346127174548,-0.363346127174548,750,0,0,neutral,1,8357.56515531651,5866.59789956116
56,104,1,89,0.5,0.5,0.5,4,2,1,4,584,1,1,584,1,0,1.2,NaN,-0.336811772694733,-0.336811772694733,750,0,0,incongruent,1,3970.47182077702,683.028125021269
56,104,1,90,0.5,-0.5,0,1,NaN,1,1,588,1,1,588,1,0,1.4,NaN,-0.301432633388313,-0.301432633388313,750,0,0,neutral,1,2800.91070556387,1990.11367779299
56,104,1,91,-0.5,-0.5,0.5,4,3,1,4,501,1,1,501,1,0,1.8,1,-1.07092891330295,-1.07092891330295,750,0,0,incongruent,0.1,2212.43470578587,2180.71814155383
56,104,1,92,-0.5,-0.5,-0.5,1,1,1,1,513,1,1,513,1,0,1.8,1,-0.964791495383691,-0.964791495383691,750,1,0,congruent,0.1,2344.26689133392,1743.62719602586
56,104,1,93,-0.5,-0.5,0.5,2,3,1,2,556,1,1,556,1,0,1.6,1,-0.584465747839674,-0.584465747839674,750,0,0,incongruent,0.1,8363.34826282011,3371.52302998437
56,104,1,94,0.5,-0.5,0.5,3,1,1,3,751,1,0,751,1,0,1.4,NaN,1.14026729334831,1.14026729334831,750,0,0,incongruent,1,1575.8238006445,1851.09398003032
56,104,1,95,0.5,-0.5,-0.5,4,4,1,4,596,1,1,596,1,0,1.4,NaN,-0.230674354775472,-0.230674354775472,750,1,0,congruent,1,4457.97149105446,2471.23010625413
56,104,1,96,0.5,0.5,0.5,1,3,1,1,684,1,1,684,1,0,1.4,NaN,0.547666709965771,0.547666709965771,750,0,0,incongruent,1,3347.32326358016,5094.30964530232
56,104,1,97,-0.5,-0.5,0.5,2,1,1,2,402,1,1,402,1,0,1.6,1,-1.94656261113685,-1.94656261113685,750,0,0,incongruent,0.1,1631.53081041763,2583.60008816885
56,104,1,98,0.5,-0.5,0,3,NaN,1,3,524,1,1,524,1,0,1.6,NaN,-0.867498862291035,-0.867498862291035,750,0,0,neutral,1,1615.14976859067,6586.32987085232
56,104,1,99,0.5,-0.5,-0.5,4,4,1,4,410,1,1,410,1,0,1.8,NaN,-1.87580433252401,-1.87580433252401,750,1,0,congruent,1,3945.25774977369,3306.6510055047
56,104,1,100,-0.5,-0.5,0.5,1,2,1,1,807,1,0,807,1,0,1.8,1,1.63557524363819,1.63557524363819,750,0,0,incongruent,0.1,5331.24279181662,5602.78731352353
56,104,1,101,0.5,0.5,0,4,NaN,1,4,509,1,1,509,1,0,1.6,NaN,-1.00017063469011,-1.00017063469011,750,0,0,neutral,1,3910.97781879241,547.730682383457
56,104,1,102,-0.5,-0.5,-0.5,1,1,1,1,557,1,1,557,1,0,1.6,1,-0.575620963013069,-0.575620963013069,750,1,0,congruent,0.1,7633.92202225813,2222.55866977584
56,104,1,103,0.5,-0.5,-0.5,4,4,1,4,517,1,1,517,1,0,1.6,NaN,-0.929412356077271,-0.929412356077271,750,1,0,congruent,1,2998.93984730064,1009.70801259481
56,104,1,104,0.5,-0.5,0.5,2,3,1,2,503,1,1,503,1,0,1.6,NaN,-1.05323934364974,-1.05323934364974,750,0,0,incongruent,1,4164.66277499575,2909.77827657319
56,104,1,105,-0.5,0.5,0,1,NaN,1,1,683,1,1,683,1,0,1.6,0.8,0.538821925139166,0.538821925139166,750,0,0,neutral,0.1,2974.32298362907,897.898683146034
56,104,1,106,-0.5,-0.5,-0.5,2,2,1,2,919,1,0,919,1,0,1.6,1,2.62619114421796,2.62619114421796,750,1,0,congruent,0.1,1733.86635068389,7472.51576151332
56,104,1,107,-0.5,-0.5,0.5,3,4,1,3,571,1,1,571,1,0,1.4,1,-0.451793975440598,-0.451793975440598,750,0,0,incongruent,0.1,5285.4624567348,2415.23618749727
56,104,1,108,0.5,0.5,0.5,1,3,1,1,808,1,0,808,0,0,1.4,NaN,1.6444200284648,1.6444200284648,750,0,0,incongruent,0,3343.02467668041,2745.30570375773
56,104,1,109,-0.5,-0.5,0.5,4,2,0.8,4,563,1,1,563,0,0,1,1,-0.522552254053439,-0.522552254053439,750,0,0,incongruent,0,7337.60623784995,1521.7263892489
56,104,1,110,-0.5,0.5,-0.5,1,1,0.8,1,508,1,1,508,1,0,0.6,0.8,-1.00901541951672,-1.00901541951672,750,1,0,congruent,0.1,4424.96378224874,2506.44474566027
56,104,1,111,-0.5,-0.5,-0.5,2,2,0.8,2,557,1,1,557,1,0,0.6,0.8,-0.575620963013069,-0.575620963013069,750,1,0,congruent,0.1,4927.97834998928,1680.47516667653
56,104,1,112,0.5,0.5,-0.5,1,1,0.8,1,598,1,1,598,1,0,0.6,NaN,-0.212984785122262,-0.212984785122262,750,1,0,congruent,1,2850.35279873471,2607.8461162085
56,104,1,113,0.5,-0.5,-0.5,3,3,0.8,3,642,1,1,642,1,0,0.8,NaN,0.17618574724836,0.17618574724836,750,1,0,congruent,1,2323.09113158012,2238.73949988477
56,104,1,114,0.5,-0.5,0.5,2,1,0.8,2,658,1,1,658,0,0,1.2,NaN,0.31770230447404,0.31770230447404,750,0,0,incongruent,0,3408.66503850797,2061.67381712993
56,104,1,115,-0.5,0.5,0.5,3,4,0.8,3,690,1,1,690,1,0,1.2,1,0.600735418925401,0.600735418925401,750,0,0,incongruent,0.1,7976.19801438302,1310.08749377186
56,104,1,116,0.5,-0.5,0.5,1,2,0.8,1,725,1,1,725,0,0,1.2,NaN,0.910302887856578,0.910302887856578,750,0,0,incongruent,0,3603.85313101015,1203.21171915635
56,104,1,117,0.5,-0.5,0.5,4,1,0.8,4,647,1,1,647,1,0,1,NaN,0.220409671381385,0.220409671381385,750,0,0,incongruent,1,14520.6509429467,609.95588840455
56,104,1,118,0.5,-0.5,0.5,2,3,0.8,2,646,1,1,646,0,0,1,NaN,0.21156488655478,0.21156488655478,750,0,0,incongruent,0,8582.03253911973,1294.70881890727
56,104,1,119,-0.5,-0.5,0.5,1,4,0.8,1,380,1,1,380,1,0,0.6,0.8,-2.14114787732216,-2.14114787732216,750,0,0,incongruent,0.1,2637.69774828118,2488.98998515282
56,104,1,120,-0.5,-0.5,0,4,NaN,0.8,4,575,1,1,575,1,0,0.8,0.8,-0.416414836134178,-0.416414836134178,750,0,0,neutral,0.1,4791.24107737856,5112.3238018671
56,104,1,121,-0.5,0.5,-0.5,2,2,0.8,2,709,1,1,709,1,0,0.8,1,0.768786330630897,0.768786330630897,750,1,0,congruent,0.1,3354.6173204079,2620.50871040099
56,104,1,122,-0.5,0.5,0.5,1,4,0.8,1,521,1,1,521,1,0,1,1,-0.89403321677085,-0.89403321677085,750,0,0,incongruent,0.1,6858.93106307924,1935.45308184558
56,104,1,123,0.5,-0.5,-0.5,2,2,1,2,499,1,1,499,1,0,0.8,NaN,-1.08861848295616,-1.08861848295616,750,1,0,congruent,1,6428.58742444647,2412.59437340384
56,104,1,124,0.5,-0.5,0,1,NaN,1,1,507,1,1,507,1,0,1.2,NaN,-1.01786020434332,-1.01786020434332,750,0,0,neutral,1,2484.71765260581,1070.83800856852
56,104,1,125,0.5,-0.5,-0.5,4,4,1,4,672,1,1,672,1,0,1.4,NaN,0.441529292046511,0.441529292046511,750,1,0,congruent,1,2816.75809491888,7428.5252712394
56,104,1,126,0.5,-0.5,0,3,NaN,1,3,422,1,1,422,1,0,1.6,NaN,-1.76966691460475,-1.76966691460475,750,0,0,neutral,1,4425.50418755186,2045.99100589832
56,104,1,127,0.5,0.5,-0.5,2,2,1,2,534,1,1,534,1,0,1.8,NaN,-0.779051014024985,-0.779051014024985,750,1,0,congruent,1,4522.97783798078,3044.51789810417
56,104,1,128,0.5,0.5,0.5,1,3,1,1,662,1,1,662,1,0,2,NaN,0.35308144378046,0.35308144378046,750,0,0,incongruent,1,4823.3029123061,2219.75462727129
56,104,1,129,0.5,-0.5,0,2,NaN,1,2,605,1,1,605,1,0,2,NaN,-0.151071291336027,-0.151071291336027,750,0,0,neutral,1,2548.39451912263,2148.4572895205
56,104,1,130,-0.5,0.5,0.5,4,1,1,4,581,1,1,581,1,0,2,1,-0.363346127174548,-0.363346127174548,750,0,0,incongruent,0.1,2263.51636247519,3016.71587686372
56,104,1,131,-0.5,-0.5,0.5,1,3,1,1,686,1,1,686,1,0,1.8,0.8,0.565356279618981,0.565356279618981,750,0,0,incongruent,0.1,9295.20679919129,2058.72609397352
56,104,1,132,0.5,0.5,0.5,2,1,1,2,613,1,1,613,1,0,1.6,NaN,-0.0803130127231867,-0.0803130127231867,750,0,0,incongruent,1,5070.33358222355,1609.8344662695
56,104,1,133,-0.5,0.5,0.5,1,4,1,1,758,1,0,758,0,0,1.6,1,1.20218078713454,1.20218078713454,750,0,0,incongruent,0,6584.56238712993,10290.8894773227
56,104,1,134,0.5,0.5,0.5,4,2,0.8,4,586,1,1,586,1,0,1.2,NaN,-0.319122203041523,-0.319122203041523,750,0,0,incongruent,1,3626.17654520477,5105.26410263781
56,104,1,135,0.5,-0.5,0,2,NaN,0.8,2,788,1,0,788,0,0,1.2,NaN,1.4675243319327,1.4675243319327,750,0,0,neutral,0,4283.91556683062,1983.83670940325
56,104,1,136,-0.5,-0.5,-0.5,3,3,0.8,3,607,1,1,607,0,0,1,0.8,-0.133381721682817,-0.133381721682817,750,1,0,congruent,0,7395.36125262756,7748.13730258222
56,104,1,137,-0.5,-0.5,0,4,NaN,0.8,4,712,1,1,712,1,0,0.8,0.8,0.795320685110712,0.795320685110712,750,0,0,neutral,0.1,5115.69433934122,3908.84129797968
56,104,1,138,-0.5,0.5,0.5,1,4,0.8,1,507,1,1,507,1,0,0.6,0.8,-1.01786020434332,-1.01786020434332,750,0,0,incongruent,0.1,1855.56543489623,2884.99563192695
56,104,1,139,-0.5,0.5,0,3,NaN,0.8,3,671,1,1,671,1,0,0.8,0.8,0.432684507219906,0.432684507219906,750,0,0,neutral,0.1,2738.98470509009,3658.82576733996
56,104,1,140,-0.5,-0.5,-0.5,2,2,0.8,2,533,1,1,533,1,0,0.6,0.8,-0.78789579885159,-0.78789579885159,750,1,0,congruent,0.1,5700.84227632003,1836.05837150159
56,104,1,141,-0.5,-0.5,0,3,NaN,0.8,3,596,1,1,596,1,0,0.8,0.8,-0.230674354775472,-0.230674354775472,750,0,0,neutral,0.1,7938.5269309077,2890.61895955591
56,104,1,142,-0.5,0.5,-0.5,2,2,0.8,2,607,1,1,607,1,0,1,0.8,-0.133381721682817,-0.133381721682817,750,1,0,congruent,0.1,2905.56746137399,1156.23698529745
56,104,1,143,0.5,-0.5,0.5,1,4,0.8,1,578,1,1,578,1,0,1,NaN,-0.389880481654363,-0.389880481654363,750,0,0,incongruent,1,3687.99302438647,6255.34516835026
56,104,1,144,-0.5,0.5,0.5,4,3,0.8,4,612,1,1,612,1,0,1.2,0.8,-0.0891577975497917,-0.0891577975497917,750,0,0,incongruent,0.1,2708.17373060788,3854.02706398624
56,104,1,145,0.5,0.5,-0.5,2,2,1,2,536,1,1,536,1,0,1.2,NaN,-0.761361444371775,-0.761361444371775,750,1,0,congruent,1,8256.87473940724,2571.06477807566
56,104,1,146,-0.5,0.5,-0.5,3,3,1,3,626,1,1,626,1,0,1.4,0.8,0.0346691900226789,0.0346691900226789,750,1,0,congruent,0.1,4408.13402817029,2136.66958983246
56,104,1,147,0.5,0.5,-0.5,2,2,1,2,654,1,1,654,1,0,1.4,NaN,0.28232316516762,0.28232316516762,750,1,0,congruent,1,8268.09299397382,1369.55129599899
56,104,1,148,0.5,0.5,-0.5,4,4,1,4,506,1,1,506,1,0,1.6,NaN,-1.02670498916993,-1.02670498916993,750,1,0,congruent,1,3423.84705784635,2101.81564224516
56,104,1,149,0.5,-0.5,0.5,3,1,1,3,718,1,1,718,1,0,1.6,NaN,0.848389394070343,0.848389394070343,750,0,0,incongruent,1,6158.4269261156,10354.957696755
56,104,1,150,-0.5,0.5,0,4,NaN,1,4,551,1,1,551,1,0,1.8,1,-0.628689671972699,-0.628689671972699,750,0,0,neutral,0.1,8601.02157206074,859.15875286285
56,104,2,151,0.5,0.5,-0.5,3,3,1,3,650,1,1,650,1,0,1.6,NaN,0.2469440258612,0.2469440258612,750,1,0,congruent,1,3946.98739179304,3488.56855962515
56,104,2,152,0.5,0.5,-0.5,4,4,1,4,393,1,1,393,1,0,1.8,NaN,-2.0261656745763,-2.0261656745763,750,1,0,congruent,1,6297.64388665464,1242.80385416046
56,104,2,153,-0.5,-0.5,0,2,NaN,1,2,470,1,1,470,1,0,1.8,0.8,-1.34511724292771,-1.34511724292771,750,0,0,neutral,0.1,4734.00460994121,2329.61091164778
56,104,2,154,0.5,-0.5,-0.5,4,4,1,4,555,1,1,555,1,0,1.6,NaN,-0.593310532666279,-0.593310532666279,750,1,0,congruent,1,2705.95363374325,970.04398663573
56,104,2,155,-0.5,0.5,0,3,NaN,1,3,598,1,1,598,1,0,1.6,1,-0.212984785122262,-0.212984785122262,750,0,0,neutral,0.1,2450.99209054683,3190.86723022776
56,104,2,156,0.5,0.5,-0.5,4,4,1,4,568,1,1,568,1,0,1.6,NaN,-0.478328329920413,-0.478328329920413,750,1,0,congruent,1,2559.98395575896,2733.69063677608
56,104,2,157,0.5,-0.5,0,3,NaN,1,3,562,1,1,562,1,0,1.6,NaN,-0.531397038880044,-0.531397038880044,750,0,0,neutral,1,3142.38463151651,3008.93161382308
56,104,2,158,-0.5,0.5,-0.5,1,1,1,1,660,1,1,660,1,0,1.6,1,0.33539187412725,0.33539187412725,750,1,0,congruent,0.1,3413.3977054915,2238.81053294375
56,104,2,159,-0.5,-0.5,-0.5,3,3,1,3,588,1,1,588,1,0,1.6,0.8,-0.301432633388313,-0.301432633388313,750,1,0,congruent,0.1,21586.6322119505,1120.61710072352
56,104,2,160,0.5,0.5,-0.5,2,2,1,2,617,1,1,617,1,0,1.4,NaN,-0.0449338734167665,-0.0449338734167665,750,1,0,congruent,1,3151.55656765645,1218.47649503518
56,104,2,161,-0.5,-0.5,0.5,4,1,1,4,656,1,1,656,1,0,1.6,1,0.30001273482083,0.30001273482083,750,0,0,incongruent,0.1,2738.74743039815,3671.04991772821
56,104,2,162,0.5,0.5,0.5,3,4,1,3,503,1,1,503,1,0,1.4,NaN,-1.05323934364974,-1.05323934364974,750,0,0,incongruent,1,3152.08420278457,1064.88167749168
56,104,2,163,0.5,0.5,0,4,NaN,1,4,589,1,1,589,1,0,1.4,NaN,-0.292587848561708,-0.292587848561708,750,0,0,neutral,1,3730.75924074328,1556.62091287528
56,104,2,164,-0.5,0.5,-0.5,1,1,1,1,616,1,1,616,1,0,1.6,1,-0.0537786582433715,-0.0537786582433715,750,1,0,congruent,0.1,3925.14519563103,4342.91824805759
56,104,2,165,0.5,0.5,0,2,NaN,1,2,491,1,1,491,1,0,1.6,NaN,-1.159376761569,-1.159376761569,750,0,0,neutral,1,6341.27581840467,2031.43530885404
56,104,2,166,-0.5,0.5,-0.5,3,3,1,3,660,1,1,660,1,0,1.6,1,0.33539187412725,0.33539187412725,750,1,0,congruent,0.1,3518.68455685334,2512.57762932625
56,104,2,167,0.5,-0.5,-0.5,2,2,1,2,580,1,1,580,1,0,1.6,NaN,-0.372190912001153,-0.372190912001153,750,1,0,congruent,1,10332.0336616332,3165.02598503032
56,104,2,168,-0.5,-0.5,0,3,NaN,1,3,617,1,1,617,1,0,1.6,1,-0.0449338734167665,-0.0449338734167665,750,0,0,neutral,0.1,1578.96136498084,5970.05759148078
56,104,2,169,0.5,0.5,-0.5,4,4,1,4,598,1,1,598,1,0,1.4,NaN,-0.212984785122262,-0.212984785122262,750,1,0,congruent,1,1638.42715181926,4552.95667778991
56,104,2,170,0.5,0.5,0,1,NaN,1,1,532,1,1,532,1,0,1.6,NaN,-0.796740583678195,-0.796740583678195,750,0,0,neutral,1,7706.57230513887,4449.99768287563
56,104,2,171,-0.5,0.5,-0.5,4,4,1,4,706,1,1,706,1,0,1.6,1,0.742251976151082,0.742251976151082,750,1,0,congruent,0.1,1935.58935831642,3982.12771763875
56,104,2,172,0.5,-0.5,0,3,NaN,1,3,434,1,1,434,1,0,1.6,NaN,-1.66352949668549,-1.66352949668549,750,0,0,neutral,1,1156.82385831102,876.017457859681
56,104,2,173,-0.5,-0.5,0.5,2,3,1,2,527,1,1,527,1,0,1.6,1,-0.84096450781122,-0.84096450781122,750,0,0,incongruent,0.1,3337.96425744322,2344.55188114034
56,104,2,174,-0.5,0.5,0,3,NaN,1,3,595,1,1,595,1,0,1.6,1,-0.239519139602077,-0.239519139602077,750,0,0,neutral,0.1,2015.29240915933,1361.6656683189
56,104,2,175,-0.5,0.5,-0.5,1,1,1,1,672,1,1,672,1,0,1.4,1,0.441529292046511,0.441529292046511,750,1,0,congruent,0.1,5604.84041838418,2194.72190300326
56,104,2,176,-0.5,0.5,-0.5,4,4,1,4,513,1,1,513,1,0,1.2,1,-0.964791495383691,-0.964791495383691,750,1,0,congruent,0.1,5531.29827627073,556.559902636202
56,104,2,177,0.5,-0.5,-0.5,2,2,1,2,593,1,1,593,1,0,1.2,NaN,-0.257208709255287,-0.257208709255287,750,1,0,congruent,1,7600.33293460079,1544.86463154092
56,104,2,178,-0.5,-0.5,0,3,NaN,1,3,513,1,1,513,1,0,1.2,1,-0.964791495383691,-0.964791495383691,750,0,0,neutral,0.1,3141.07981152427,1016.92779962941
56,104,2,179,-0.5,0.5,-0.5,1,1,1,1,606,1,1,606,1,0,1.2,1,-0.142226506509422,-0.142226506509422,750,1,0,congruent,0.1,1509.90565515333,6589.78778888842
56,104,2,180,0.5,-0.5,0.5,2,3,1,2,615,1,1,615,1,0,1.2,NaN,-0.0626234430699766,-0.0626234430699766,750,0,0,incongruent,1,2903.13641134714,1518.76142865274
56,104,2,181,0.5,-0.5,0.5,4,1,1,4,615,1,1,615,1,0,1.4,NaN,-0.0626234430699766,-0.0626234430699766,750,0,0,incongruent,1,5238.49756613542,5679.45454358083
56,104,2,182,0.5,0.5,0.5,2,4,1,2,618,1,1,618,1,0,1.6,NaN,-0.0360890885901615,-0.0360890885901615,750,0,0,incongruent,1,4562.54801439337,2151.25887321047
56,104,2,183,-0.5,-0.5,-0.5,3,3,1,3,582,1,1,582,1,0,1.6,1,-0.354501342347943,-0.354501342347943,750,1,0,congruent,0.1,6929.87987763244,2023.4983951052
56,104,2,184,0.5,0.5,-0.5,1,1,1,1,460,1,1,460,1,0,1.6,NaN,-1.43356509119376,-1.43356509119376,750,1,0,congruent,1,6101.75709980672,2435.36040102318
56,104,2,185,-0.5,0.5,0.5,4,3,1,4,718,1,1,718,1,0,1.8,1,0.848389394070343,0.848389394070343,750,0,0,incongruent,0.1,2285.69433557981,6752.02775686548
56,104,2,186,-0.5,0.5,0.5,2,4,1,2,489,1,1,489,1,0,1.6,1,-1.17706633122221,-1.17706633122221,750,0,0,incongruent,0.1,3049.33384711306,443.936504551498
56,104,2,187,-0.5,-0.5,0.5,4,1,1,4,551,1,1,551,1,0,1.4,1,-0.628689671972699,-0.628689671972699,750,0,0,incongruent,0.1,7476.20659878888,2276.54148953205
56,104,2,188,-0.5,-0.5,-0.5,3,3,1,3,573,1,1,573,1,0,1.2,1,-0.434104405787388,-0.434104405787388,750,1,0,congruent,0.1,3882.40720813621,2920.46402299519
56,104,2,189,-0.5,-0.5,0.5,4,1,1,4,697,1,1,697,1,0,1.2,1,0.662648912711637,0.662648912711637,750,0,0,incongruent,0.1,1377.62558908343,4880.75250773818
56,104,2,190,0.5,-0.5,0.5,1,2,1,1,794,1,0,794,1,0,1,NaN,1.52059304089233,1.52059304089233,750,0,0,incongruent,1,1970.82831075096,3760.8503366143
56,104,2,191,-0.5,0.5,0,4,NaN,1,4,700,1,1,700,1,0,1.2,1,0.689183267191452,0.689183267191452,750,0,0,neutral,0.1,4235.67020778437,3968.67270589175
56,104,2,192,0.5,0.5,-0.5,1,1,1,1,648,1,1,648,1,0,1.2,NaN,0.22925445620799,0.22925445620799,750,1,0,congruent,1,4000.09642449794,5919.02951574604
56,104,2,193,-0.5,-0.5,0,2,NaN,1,2,577,1,1,577,1,0,1.4,1,-0.398725266480968,-0.398725266480968,750,0,0,neutral,0.1,3549.17458038005,1319.83012076643
56,104,2,194,0.5,-0.5,-0.5,4,4,1,4,478,1,1,478,1,0,1.4,NaN,-1.27435896431487,-1.27435896431487,750,1,0,congruent,1,2914.26476786296,3649.23057417416
56,104,2,195,0.5,0.5,0.5,3,2,1,3,555,1,1,555,1,0,1.6,NaN,-0.593310532666279,-0.593310532666279,750,0,0,incongruent,1,1518.30883803961,5493.75548348895
56,104,2,196,0.5,0.5,0,4,NaN,1,4,462,1,1,462,1,0,1.6,NaN,-1.41587552154055,-1.41587552154055,750,0,0,neutral,1,7887.53113608432,1736.63614197393
56,104,2,197,-0.5,0.5,-0.5,2,2,1,2,567,1,1,567,1,0,1.8,1,-0.487173114747019,-0.487173114747019,750,1,0,congruent,0.1,2963.92766629618,1238.18829832347
56,104,2,198,-0.5,0.5,-0.5,1,1,1,1,618,1,1,618,1,0,1.6,1,-0.0360890885901615,-0.0360890885901615,750,1,0,congruent,0.1,3165.33904435888,4645.7157963267
56,104,2,199,0.5,0.5,0,4,NaN,1,4,597,1,1,597,1,0,1.6,NaN,-0.221829569948867,-0.221829569948867,750,0,0,neutral,1,6258.23855666463,2310.12451946238
56,104,2,200,-0.5,0.5,-0.5,1,1,1,1,610,1,1,610,1,0,1.6,1,-0.106847367203002,-0.106847367203002,750,1,0,congruent,0.1,2452.77748703336,1305.18412023367
56,104,2,201,0.5,-0.5,0,3,NaN,1,3,570,1,1,570,1,0,1.4,NaN,-0.460638760267203,-0.460638760267203,750,0,0,neutral,1,977.608937772382,1975.68116259071
56,104,2,202,0.5,0.5,0.5,2,4,1,2,686,1,1,686,1,0,1.4,NaN,0.565356279618981,0.565356279618981,750,0,0,incongruent,1,6462.58926883973,4436.08148625421
56,104,2,203,0.5,0.5,-0.5,3,3,1,3,541,1,1,541,1,0,1.6,NaN,-0.71713752023875,-0.71713752023875,750,1,0,congruent,1,1312.76819188943,4205.38695137255
56,104,2,204,0.5,0.5,-0.5,2,2,1,2,615,1,1,615,1,0,1.8,NaN,-0.0626234430699766,-0.0626234430699766,750,1,0,congruent,1,10481.1876877201,4341.9725419452
56,104,2,205,-0.5,0.5,0.5,1,3,1,1,812,1,0,812,0,0,1.8,1,1.67979916777122,1.67979916777122,750,0,0,incongruent,0,4802.16326069785,617.365097827689
56,104,2,206,0.5,0.5,0,2,NaN,0.8,2,565,1,1,565,1,0,1.6,NaN,-0.504862684400229,-0.504862684400229,750,0,0,neutral,1,10627.8378907559,5733.06207328469
56,104,2,207,-0.5,0.5,0.5,3,1,0.8,3,713,1,1,713,1,0,1.6,0.8,0.804165469937317,0.804165469937317,750,0,0,incongruent,0.1,10406.4617834425,1539.45201039835
56,104,2,208,-0.5,0.5,0,4,NaN,0.8,4,515,1,1,515,1,0,1.4,0.8,-0.947101925730481,-0.947101925730481,750,0,0,neutral,0.1,9824.90762709461,2985.17594056256
56,104,2,209,-0.5,0.5,-0.5,1,1,0.8,1,620,1,1,620,1,0,1.2,0.8,-0.0183995189369514,-0.0183995189369514,750,1,0,congruent,0.1,2238.61064891384,815.821697400139
56,104,2,210,-0.5,0.5,-0.5,2,2,0.8,2,712,1,1,712,1,0,1,0.8,0.795320685110712,0.795320685110712,750,1,0,congruent,0.1,3524.77654776602,5619.66808585255
56,104,2,211,0.5,-0.5,-0.5,3,3,1,3,560,1,1,560,1,0,1.2,NaN,-0.549086608533254,-0.549086608533254,750,1,0,congruent,1,2853.73402507202,893.227386742037
56,104,2,212,-0.5,0.5,-0.5,1,1,1,1,585,1,1,585,1,0,1.2,0.8,-0.327966987868128,-0.327966987868128,750,1,0,congruent,0.1,778.786105691259,3814.8112746857
56,104,2,213,-0.5,0.5,-0.5,3,3,1,3,514,1,1,514,1,0,1.2,1,-0.955946710557086,-0.955946710557086,750,1,0,congruent,0.1,4564.25272079724,648.349975945294
56,104,2,214,0.5,0.5,0,4,NaN,1,4,487,1,1,487,1,0,1.2,NaN,-1.19475590087542,-1.19475590087542,750,0,0,neutral,1,8257.28700325954,2570.97687318211
56,104,2,215,0.5,0.5,-0.5,3,3,1,3,730,1,1,730,1,0,1.4,NaN,0.954526811989603,0.954526811989603,750,1,0,congruent,1,1063.23812471483,6691.56273204662
56,104,2,216,0.5,-0.5,0,4,NaN,1,4,572,1,1,572,1,0,1.6,NaN,-0.442949190613993,-0.442949190613993,750,0,0,neutral,1,4775.92828052162,2773.94864064958
56,104,2,217,0.5,0.5,0.5,3,4,1,3,740,1,1,740,1,0,1.6,NaN,1.04297466025565,1.04297466025565,750,0,0,incongruent,1,6563.05565528475,11010.270814451
56,104,2,218,-0.5,-0.5,0.5,1,2,1,1,787,1,0,787,1,0,1.8,1,1.45867954710609,1.45867954710609,750,0,0,incongruent,0.1,5959.3223814318,8573.38939870295
56,104,2,219,-0.5,-0.5,0.5,2,4,1,2,701,1,1,701,1,0,1.8,1,0.698028052018057,0.698028052018057,750,0,0,incongruent,0.1,3257.58114604437,3930.51220872062
56,104,2,220,-0.5,-0.5,0.5,3,2,1,3,624,1,1,624,1,0,1.6,1,0.0169796203694688,0.0169796203694688,750,0,0,incongruent,0.1,2645.74110984003,2152.74881902265
56,104,2,221,0.5,-0.5,0.5,4,3,1,4,711,1,1,711,1,0,1.4,NaN,0.786475900284107,0.786475900284107,750,0,0,incongruent,1,1899.93813782378,1328.24521464157
56,104,2,222,-0.5,-0.5,-0.5,2,2,1,2,585,1,1,585,1,0,1.4,1,-0.327966987868128,-0.327966987868128,750,1,0,congruent,0.1,3088.91108039214,2356.86484539652
56,104,2,223,0.5,-0.5,0,3,NaN,1,3,440,1,1,440,1,0,1.2,NaN,-1.61046078772586,-1.61046078772586,750,0,0,neutral,1,3182.4033995274,1226.83962178614
56,104,2,224,-0.5,-0.5,-0.5,1,1,1,1,514,1,1,514,1,0,1.4,1,-0.955946710557086,-0.955946710557086,750,1,0,congruent,0.1,4328.21802123416,3142.61735234375
56,104,2,225,0.5,0.5,-0.5,2,2,1,2,599,1,1,599,1,0,1.4,NaN,-0.204140000295657,-0.204140000295657,750,1,0,congruent,1,1462.37976682984,3128.82310389243
56,104,2,226,0.5,0.5,-0.5,1,1,1,1,713,1,1,713,1,0,1.6,NaN,0.804165469937317,0.804165469937317,750,1,0,congruent,1,8618.84942587122,11172.1419908294
56,104,2,228,0.5,-0.5,-0.5,2,2,1,2,564,1,1,564,1,0,1.6,NaN,-0.513707469226834,-0.513707469226834,750,1,0,congruent,1,3294.25686832777,3516.23552895843
56,104,2,229,0.5,0.5,-0.5,4,4,1,4,491,1,1,491,1,0,1.6,NaN,-1.159376761569,-1.159376761569,750,1,0,congruent,1,4521.67118812236,1740.65849372492
56,104,2,230,0.5,-0.5,0,3,NaN,1,3,452,1,1,452,1,0,1.8,NaN,-1.5043233698066,-1.5043233698066,750,0,0,neutral,1,3766.82519688081,2944.56008143232
56,104,2,231,0.5,0.5,-0.5,2,2,1,2,594,1,1,594,1,0,1.8,NaN,-0.248363924428682,-0.248363924428682,750,1,0,congruent,1,3497.51452576423,1209.13803285097
56,104,2,232,0.5,0.5,-0.5,4,4,1,4,444,1,1,444,1,0,1.8,NaN,-1.57508164841944,-1.57508164841944,750,1,0,congruent,1,2285.29268810332,3593.56673799288
56,104,2,233,-0.5,0.5,-0.5,1,1,1,1,539,1,1,539,1,0,2,1,-0.73482708989196,-0.73482708989196,750,1,0,congruent,0.1,4737.71629295585,3361.45514519162
56,104,2,234,0.5,-0.5,-0.5,3,3,1,3,564,1,1,564,1,0,1.8,NaN,-0.513707469226834,-0.513707469226834,750,1,0,congruent,1,1671.87999839761,3197.76326881567
56,104,2,235,0.5,-0.5,0,1,NaN,1,1,660,1,1,660,1,0,1.8,NaN,0.33539187412725,0.33539187412725,750,0,0,neutral,1,2003.25229432522,2122.18153956051
56,104,2,236,-0.5,-0.5,-0.5,3,3,1,3,643,1,1,643,1,0,1.8,1,0.185030532074965,0.185030532074965,750,1,0,congruent,0.1,4847.10332301229,3550.96033586659
56,104,2,237,0.5,-0.5,0,1,NaN,1,1,673,1,1,673,1,0,1.6,NaN,0.450374076873116,0.450374076873116,750,0,0,neutral,1,2494.57026445009,2108.15876727943
56,104,2,238,0.5,0.5,0.5,4,3,1,4,491,1,1,491,1,0,1.6,NaN,-1.159376761569,-1.159376761569,750,0,0,incongruent,1,5591.00909437353,2569.98708047818
56,104,2,239,-0.5,-0.5,-0.5,1,1,1,1,536,1,1,536,1,0,1.8,1,-0.761361444371775,-0.761361444371775,750,1,0,congruent,0.1,1312.33807493034,638.365884160179
56,104,2,240,-0.5,0.5,0,4,NaN,1,4,582,1,1,582,1,0,1.6,1,-0.354501342347943,-0.354501342347943,750,0,0,neutral,0.1,3390.53635542767,2377.33010228087
56,104,2,241,-0.5,-0.5,-0.5,1,1,1,1,562,1,1,562,1,0,1.4,1,-0.531397038880044,-0.531397038880044,750,1,0,congruent,0.1,2991.71915339066,1459.57242783933
56,104,2,242,-0.5,-0.5,0,2,NaN,1,2,661,1,1,661,1,0,1.4,1,0.344236658953855,0.344236658953855,750,0,0,neutral,0.1,3481.02458832582,4462.78200717477
56,104,2,243,-0.5,-0.5,-0.5,4,4,1,4,521,1,1,521,1,0,1.2,1,-0.89403321677085,-0.89403321677085,750,1,0,congruent,0.1,6960.09677209916,2001.3423806421
56,104,2,244,-0.5,0.5,-0.5,3,3,1,3,633,1,1,633,1,0,1,1,0.0965826838089141,0.0965826838089141,750,1,0,congruent,0.1,7765.20008476761,8617.44201132045
56,104,2,245,-0.5,-0.5,-0.5,1,1,1,1,725,1,1,725,1,0,1,1,0.910302887856578,0.910302887856578,750,1,0,congruent,0.1,2314.07230729039,6802.83061252065
56,104,2,246,-0.5,0.5,0.5,4,2,1,4,718,1,1,718,1,0,1,1,0.848389394070343,0.848389394070343,750,0,0,incongruent,0.1,4995.30110453826,7047.816177818
56,104,2,247,-0.5,0.5,0.5,2,3,1,2,845,1,0,845,0,0,1,1,1.97167706704918,1.97167706704918,750,0,0,incongruent,0,8234.18685982493,5375.62395670663
56,104,2,248,-0.5,0.5,0,1,NaN,0.8,1,673,1,1,673,1,0,0.8,0.8,0.450374076873116,0.450374076873116,750,0,0,neutral,0.1,3280.34709673732,5209.3671896514
56,104,2,249,-0.5,-0.5,0.5,4,3,0.8,4,387,1,1,387,1,0,0.8,1,-2.07923438353593,-2.07923438353593,750,0,0,incongruent,0.1,7977.37744665361,2075.07728019473
56,104,2,250,0.5,0.5,0,1,NaN,0.8,1,575,1,1,575,1,0,0.8,NaN,-0.416414836134178,-0.416414836134178,750,0,0,neutral,1,2213.34359962033,3883.8558999036
56,104,2,251,-0.5,-0.5,0.5,3,2,0.8,3,654,1,1,654,1,0,1,1,0.28232316516762,0.28232316516762,750,0,0,incongruent,0.1,3394.06664200418,1342.5530453844
56,104,2,252,0.5,0.5,0.5,4,1,0.8,4,532,1,1,532,1,0,1,NaN,-0.796740583678195,-0.796740583678195,750,0,0,incongruent,1,2788.53163840915,2222.14774823933
56,104,2,253,0.5,-0.5,0,2,NaN,0.8,2,576,1,1,576,1,0,1.4,NaN,-0.407570051307573,-0.407570051307573,750,0,0,neutral,1,2349.46930664998,3481.88689901595
56,104,2,254,0.5,-0.5,-0.5,4,4,0.8,4,659,1,1,659,1,0,1.6,NaN,0.326547089300645,0.326547089300645,750,1,0,congruent,1,3905.03743627644,7527.80582671632
56,104,2,255,-0.5,-0.5,0,1,NaN,0.8,1,526,1,1,526,0,0,1.8,1,-0.849809292637825,-0.849809292637825,750,0,0,neutral,0,3205.18383588585,1415.06375687035
56,104,2,256,-0.5,0.5,-0.5,4,4,0.8,4,408,1,1,408,1,0,1.4,0.8,-1.89349390217722,-1.89349390217722,750,1,0,congruent,0.1,3637.41524826193,1224.8554907517
56,104,2,257,-0.5,-0.5,0.5,1,3,0.8,1,636,1,1,636,0,0,1.4,0.8,0.123117038288729,0.123117038288729,750,0,0,incongruent,0,2839.46426411134,613.479056752354
56,104,2,258,0.5,0.5,0.5,2,1,0.8,2,623,1,1,623,1,0,1,NaN,0.00813483554286374,0.00813483554286374,750,0,0,incongruent,1,8181.24871208697,3815.82350204339
56,104,2,259,0.5,-0.5,0,4,NaN,1,4,646,1,1,646,1,0,1,NaN,0.21156488655478,0.21156488655478,750,0,0,neutral,1,5526.9053174744,10777.8594276722
56,104,2,260,0.5,-0.5,-0.5,3,3,1,3,683,1,1,683,1,0,1,NaN,0.538821925139166,0.538821925139166,750,1,0,congruent,1,2167.28389284024,9197.84263545831
56,104,2,261,0.5,-0.5,0,4,NaN,1,4,533,1,1,533,1,0,1.4,NaN,-0.78789579885159,-0.78789579885159,750,0,0,neutral,1,7428.48872609902,2167.08076424666
56,104,2,262,-0.5,-0.5,-0.5,2,2,1,2,605,1,1,605,1,0,1.6,0.6,-0.151071291336027,-0.151071291336027,750,1,0,congruent,0.1,2304.7066611854,3111.24761049801
56,104,2,263,0.5,-0.5,0,3,NaN,1,3,759,1,0,759,1,0,1.8,NaN,1.21102557196115,1.21102557196115,750,0,0,neutral,1,6566.28267842367,6236.35538967814
56,104,2,264,-0.5,0.5,-0.5,4,4,1,4,584,1,1,584,1,0,1.8,0.8,-0.336811772694733,-0.336811772694733,750,1,0,congruent,0.1,3588.96868005767,4790.17546843649
56,104,2,265,-0.5,-0.5,0,2,NaN,1,2,572,1,1,572,1,0,1.6,0.6,-0.442949190613993,-0.442949190613993,750,0,0,neutral,0.1,2736.95720943593,4458.09901217429
56,104,2,266,-0.5,0.5,-0.5,4,4,1,4,587,1,1,587,1,0,1.4,0.8,-0.310277418214918,-0.310277418214918,750,1,0,congruent,0.1,4749.96166339009,4574.02810194755
56,104,2,267,-0.5,0.5,-0.5,1,1,1,1,607,1,1,607,1,0,1.2,0.8,-0.133381721682817,-0.133381721682817,750,1,0,congruent,0.1,4673.92517366976,10768.452716877
56,104,2,268,-0.5,-0.5,0.5,2,4,1,2,760,1,0,760,1,0,1.2,0.6,1.21987035678775,1.21987035678775,750,0,0,incongruent,0.1,9275.76221392112,12055.4902854885
56,104,2,269,0.5,0.5,0,3,NaN,1,3,622,1,1,622,1,0,1,NaN,-0.000709949283741297,-0.000709949283741297,750,0,0,neutral,1,4537.90719751786,405.359527860744
56,104,2,270,-0.5,-0.5,-0.5,4,4,1,4,711,1,1,711,1,0,1.2,0.6,0.786475900284107,0.786475900284107,750,1,0,congruent,0.1,1929.72503361049,6579.88713696812
56,104,2,271,0.5,0.5,-0.5,2,2,1,2,661,1,1,661,1,0,1.2,NaN,0.344236658953855,0.344236658953855,750,1,0,congruent,1,5487.04385459033,1652.76511607231
56,104,2,272,0.5,-0.5,0.5,3,1,1,3,577,1,1,577,1,0,1.4,NaN,-0.398725266480968,-0.398725266480968,750,0,0,incongruent,1,1992.736146659,5165.44757774199
56,104,2,273,0.5,0.5,-0.5,4,4,1,4,562,1,1,562,1,0,1.6,NaN,-0.531397038880044,-0.531397038880044,750,1,0,congruent,1,5941.5808472004,2453.6479398245
56,104,2,274,0.5,-0.5,0,1,NaN,1,1,761,1,0,761,1,0,1.8,NaN,1.22871514161436,1.22871514161436,750,0,0,neutral,1,2608.31750678831,8282.82841025079
56,104,2,275,-0.5,0.5,-0.5,3,3,1,3,697,1,1,697,1,0,1.8,1,0.662648912711637,0.662648912711637,750,1,0,congruent,0.1,5331.69398835786,4471.70079627443
56,104,2,276,0.5,-0.5,0,2,NaN,1,2,564,1,1,564,1,0,1.8,NaN,-0.513707469226834,-0.513707469226834,750,0,0,neutral,1,5071.31589576486,1649.42518393382
56,104,2,277,0.5,0.5,-0.5,4,4,1,4,620,1,1,620,1,0,1.8,NaN,-0.0183995189369514,-0.0183995189369514,750,1,0,congruent,1,4692.59880967923,1422.39100280891
56,104,2,278,-0.5,-0.5,-0.5,1,1,1,1,676,1,1,676,1,0,1.8,0.8,0.476908431352931,0.476908431352931,750,1,0,congruent,0.1,3383.09414876521,4850.12395661323
56,104,2,279,0.5,-0.5,0.5,3,2,1,4,952,0,0,NaN,1,0,1.6,NaN,2.91806904349592,NaN,750,0,1,incongruent,1,4858.14319306262,6905.1677445344
56,104,2,280,-0.5,-0.5,0.5,2,3,1,2,623,1,1,623,1,0,1.6,1,0.00813483554286374,0.00813483554286374,750,0,0,incongruent,0.1,905.614528584841,2664.9770682423
56,104,2,281,-0.5,-0.5,0.5,4,1,1,4,930,1,0,930,1,0,1.6,1,2.72348377731061,2.72348377731061,750,0,0,incongruent,0.1,4861.63295899891,6269.30114465864
56,104,2,282,-0.5,0.5,-0.5,3,3,1,3,678,1,1,678,1,0,1.4,1,0.494598001006141,0.494598001006141,750,1,0,congruent,0.1,840.474271378118,7017.78061252525
56,104,2,283,0.5,-0.5,-0.5,2,2,1,2,605,1,1,605,1,0,1.2,NaN,-0.151071291336027,-0.151071291336027,750,1,0,congruent,1,3169.81080585678,2539.33121071775
56,104,2,284,-0.5,-0.5,-0.5,4,4,1,4,676,1,1,676,1,0,1.4,1,0.476908431352931,0.476908431352931,750,1,0,congruent,0.1,1627.88037452504,9988.25402132697
56,104,2,285,0.5,-0.5,0,1,NaN,1,1,665,1,1,665,1,0,1.2,NaN,0.379615798260275,0.379615798260275,750,0,0,neutral,1,4880.92621796988,4764.57662670788
56,104,2,286,-0.5,0.5,-0.5,4,4,1,4,692,1,1,692,1,0,1.4,1,0.618424988578612,0.618424988578612,750,1,0,congruent,0.1,2276.85080284722,2132.7621842826
56,104,2,287,-0.5,-0.5,0.5,3,2,1,3,737,1,1,737,1,0,1.4,1,1.01644030577584,1.01644030577584,750,0,0,incongruent,0.1,2301.2438283751,1194.25431454202
56,104,2,288,-0.5,0.5,0,1,NaN,1,1,611,1,1,611,1,0,1.4,1,-0.0980025823763967,-0.0980025823763967,750,0,0,neutral,0.1,1380.03018293872,5483.59650245509
56,104,2,289,-0.5,-0.5,-0.5,2,2,1,2,576,1,1,576,1,0,1.2,1,-0.407570051307573,-0.407570051307573,750,1,0,congruent,0.1,10111.8948533872,774.309780463779
56,104,2,290,-0.5,-0.5,0.5,4,3,1,4,553,1,1,553,1,0,1.2,1,-0.611000102319489,-0.611000102319489,750,0,0,incongruent,0.1,1351.07735744236,1020.80249596245
56,104,2,291,-0.5,-0.5,0,2,NaN,1,2,683,1,1,683,1,0,1,1,0.538821925139166,0.538821925139166,750,0,0,neutral,0.1,936.944405278146,1943.00584461023
56,104,2,292,0.5,-0.5,-0.5,1,1,1,1,655,1,1,655,1,0,1,NaN,0.291167949994225,0.291167949994225,750,1,0,congruent,1,7945.36611501715,6457.66276838543
56,104,2,293,0.5,-0.5,0,2,NaN,1,2,627,1,1,627,1,0,1.2,NaN,0.0435139748492839,0.0435139748492839,750,0,0,neutral,1,1598.25646117751,4446.44369191923
56,104,2,294,-0.5,-0.5,0.5,3,4,1,3,731,1,1,731,1,0,1.4,1,0.963371596816208,0.963371596816208,750,0,0,incongruent,0.1,2089.77207242703,4333.59843074779
56,104,2,295,0.5,0.5,-0.5,2,2,1,2,920,1,0,920,0,0,1.4,NaN,2.63503592904456,2.63503592904456,750,1,0,congruent,0,1367.39442423665,9982.13813698096
56,104,2,296,0.5,-0.5,0,3,NaN,0.8,3,580,1,1,580,1,0,1.2,NaN,-0.372190912001153,-0.372190912001153,750,0,0,neutral,1,3751.58105026902,4274.03963975036
56,104,2,297,0.5,0.5,0.5,4,2,0.8,4,384,1,1,384,1,0,1.4,NaN,-2.10576873801574,-2.10576873801574,750,0,0,incongruent,1,2872.41021157568,781.057332136734
56,104,2,298,-0.5,0.5,0,1,NaN,0.8,1,563,1,1,563,1,0,1.4,1,-0.522552254053439,-0.522552254053439,750,0,0,neutral,0.1,8659.31446911513,758.698943786372
56,104,2,299,-0.5,0.5,-0.5,3,3,0.8,3,510,1,1,510,1,0,1.2,1,-0.991325849863506,-0.991325849863506,750,1,0,congruent,0.1,3778.89221069901,8992.77099604636
56,104,2,300,-0.5,-0.5,0.5,2,4,0.8,2,766,1,0,766,1,0,1.2,1,1.27293906574738,1.27293906574738,750,0,0,incongruent,0.1,3279.98456052115,3060.43918614173
56,104,3,301,-0.5,-0.5,0.5,3,2,0.8,3,682,1,1,682,1,0,1.4,1,0.529977140312561,0.529977140312561,750,0,0,incongruent,0.1,1360.91444159971,1711.94507128666
56,104,3,302,-0.5,-0.5,0.5,4,3,0.8,4,389,1,1,389,0,0,1.2,1,-2.06154481388272,-2.06154481388272,750,0,0,incongruent,0,2862.74718875292,1309.93963303746
56,104,3,303,0.5,-0.5,-0.5,1,1,0.8,1,513,1,1,513,0,0,0.8,NaN,-0.964791495383691,-0.964791495383691,750,1,0,congruent,0,1836.58287310322,3490.4734342157
56,104,3,304,-0.5,-0.5,0.5,3,4,0.8,3,751,1,0,751,1,0,0.6,0.8,1.14026729334831,1.14026729334831,750,0,0,incongruent,0.1,7040.99097327577,3283.72045983116
56,104,3,305,0.5,0.5,0.5,1,2,0.8,1,772,1,0,772,0,0,0.6,NaN,1.32600777470701,1.32600777470701,750,0,0,incongruent,0,5475.49613090063,3726.45119407221
56,104,3,306,0.5,0.5,0.5,4,3,0.6,4,573,1,1,573,1,0,0.4,NaN,-0.434104405787388,-0.434104405787388,750,0,0,incongruent,1,2134.87618190532,2610.93322729653
56,104,3,307,-0.5,0.5,0.5,3,1,0.8,3,576,1,1,576,1,0,0.6,1,-0.407570051307573,-0.407570051307573,750,0,0,incongruent,0.1,985.279223089409,2955.27845404561
56,104,3,308,0.5,0.5,0,2,NaN,0.8,2,512,1,1,512,1,0,0.8,NaN,-0.973636280210296,-0.973636280210296,750,0,0,neutral,1,5180.00927541947,1740.76090892908
56,104,3,309,-0.5,-0.5,-0.5,3,3,0.8,3,572,1,1,572,1,0,1.2,0.8,-0.442949190613993,-0.442949190613993,750,1,0,congruent,0.1,3320.15799118423,790.303344756971
56,104,3,310,-0.5,-0.5,0,2,NaN,0.8,2,633,1,1,633,1,0,1.2,0.8,0.0965826838089141,0.0965826838089141,750,0,0,neutral,0.1,3287.12171454151,5949.97926534181
56,104,3,311,-0.5,-0.5,0.5,3,4,0.8,3,709,1,1,709,1,0,1.4,0.8,0.768786330630897,0.768786330630897,750,0,0,incongruent,0.1,2115.60725438159,3551.40226643797
56,104,3,312,-0.5,-0.5,0,4,NaN,0.8,4,513,1,1,513,1,0,1.2,0.8,-0.964791495383691,-0.964791495383691,750,0,0,neutral,0.1,18772.1688304188,3382.00409540753
56,104,3,313,0.5,-0.5,-0.5,2,2,0.8,2,708,1,1,708,1,0,1.2,NaN,0.759941545804292,0.759941545804292,750,1,0,congruent,1,14423.6234876652,1386.30352433588
56,104,3,314,0.5,0.5,0.5,4,3,0.8,4,908,1,0,908,0,0,1.2,NaN,2.5288985111253,2.5288985111253,750,0,0,incongruent,0,1068.00346308706,1244.43164712208
56,104,3,315,0.5,0.5,-0.5,1,1,0.6,1,565,1,1,565,1,0,1,NaN,-0.504862684400229,-0.504862684400229,750,1,0,congruent,1,7279.06721197824,3549.3420808921
56,104,3,316,0.5,-0.5,0,4,NaN,0.8,4,494,1,1,494,0,0,1.2,NaN,-1.13284240708919,-1.13284240708919,750,0,0,neutral,0,4606.09020549841,1775.8094558301
56,104,3,317,-0.5,0.5,-0.5,1,1,0.8,1,690,1,1,690,1,0,1,1,0.600735418925401,0.600735418925401,750,1,0,congruent,0.1,13867.6092403717,4838.70053429551
56,104,3,318,0.5,-0.5,-0.5,2,2,0.8,2,512,1,1,512,1,0,1,NaN,-0.973636280210296,-0.973636280210296,750,1,0,congruent,1,4809.50935536628,1435.19639705375
56,104,3,319,-0.5,0.5,-0.5,3,3,0.8,3,556,1,1,556,1,0,1,1,-0.584465747839674,-0.584465747839674,750,1,0,congruent,0.1,2755.18392095663,1751.08279232822
56,104,3,320,0.5,-0.5,0.5,4,2,0.8,4,422,1,1,422,0,0,1.2,NaN,-1.76966691460475,-1.76966691460475,750,0,0,incongruent,0,2428.08491010448,6775.33933854203
56,104,3,321,0.5,0.5,0.5,3,4,0.8,3,658,1,1,658,1,0,0.8,NaN,0.31770230447404,0.31770230447404,750,0,0,incongruent,1,1545.24705130495,1890.13492115226
56,104,3,322,-0.5,0.5,-0.5,1,1,0.8,1,657,1,1,657,1,0,1.2,1,0.308857519647435,0.308857519647435,750,1,0,congruent,0.1,6242.07749947028,2293.14541975981
56,104,3,323,-0.5,0.5,0,2,NaN,1,2,630,1,1,630,1,0,1.2,1,0.070048329329099,0.070048329329099,750,0,0,neutral,0.1,3995.69707366528,3803.68691388973
56,104,3,324,-0.5,-0.5,-0.5,3,3,1,3,578,1,1,578,1,0,1,1,-0.389880481654363,-0.389880481654363,750,1,0,congruent,0.1,10427.7360577864,1843.32146015424
56,104,3,325,0.5,0.5,0.5,4,2,1,4,388,1,1,388,1,0,1,NaN,-2.07038959870932,-2.07038959870932,750,0,0,incongruent,1,3561.44158517792,6876.22700134686
56,104,3,326,-0.5,-0.5,0,3,NaN,1,3,689,1,1,689,1,0,1.4,1,0.591890634098796,0.591890634098796,750,0,0,neutral,0.1,7085.47646770243,3820.64116395361
56,104,3,327,-0.5,-0.5,-0.5,4,4,1,4,637,1,1,637,1,0,1.2,1,0.131961823115334,0.131961823115334,750,1,0,congruent,0.1,6707.7590825648,3454.67224792091
56,104,3,328,0.5,0.5,-0.5,3,3,1,3,564,1,1,564,1,0,1.2,NaN,-0.513707469226834,-0.513707469226834,750,1,0,congruent,1,8215.36525660549,2515.68274440478
56,104,3,329,0.5,-0.5,0,2,NaN,1,2,535,1,1,535,1,0,1.4,NaN,-0.77020622919838,-0.77020622919838,750,0,0,neutral,1,665.514982143203,2983.26916259388
56,104,3,330,0.5,-0.5,-0.5,1,1,1,1,708,1,1,708,1,0,1.6,NaN,0.759941545804292,0.759941545804292,750,1,0,congruent,1,1212.464480483,3284.81215360318
56,104,3,331,0.5,0.5,-0.5,3,3,1,3,758,1,0,758,0,0,1.6,NaN,1.20218078713454,1.20218078713454,750,1,0,congruent,0,3449.45092998867,7206.65269448602
56,104,3,332,0.5,-0.5,0.5,2,4,0.8,2,661,1,1,661,1,0,1.4,NaN,0.344236658953855,0.344236658953855,750,0,0,incongruent,1,1725.24747685397,5689.2358461279
56,104,3,333,-0.5,0.5,0,4,NaN,0.8,4,463,1,1,463,1,0,1.6,1,-1.40703073671394,-1.40703073671394,750,0,0,neutral,0.1,3070.90025196885,4930.51399223114
56,104,3,334,0.5,-0.5,0.5,1,2,0.8,1,604,1,1,604,1,0,1.4,NaN,-0.159916076162632,-0.159916076162632,750,0,0,incongruent,1,11985.5446669166,2404.37778178713
56,104,3,335,0.5,0.5,-0.5,3,3,0.8,3,602,1,1,602,1,0,1.4,NaN,-0.177605645815842,-0.177605645815842,750,1,0,congruent,1,5734.75650994288,2615.74327395024
56,104,3,336,0.5,0.5,0.5,1,4,0.8,1,661,1,1,661,1,0,1.4,NaN,0.344236658953855,0.344236658953855,750,0,0,incongruent,1,3668.7380501913,3178.12778695548
56,104,3,337,0.5,0.5,0.5,4,2,0.8,4,753,1,0,753,0,0,1.8,NaN,1.15795686300152,1.15795686300152,750,0,0,incongruent,0,6379.48471391497,1719.36956057305
56,104,3,338,0.5,0.5,-0.5,3,3,0.6,3,571,1,1,571,1,0,1.4,NaN,-0.451793975440598,-0.451793975440598,750,1,0,congruent,1,5529.03293871142,2501.86774328721
56,104,3,339,-0.5,-0.5,0,4,NaN,0.8,4,537,1,1,537,1,0,1.6,1,-0.75251665954517,-0.75251665954517,750,0,0,neutral,0.1,4461.18668243517,1664.40096576375
56,104,3,340,-0.5,0.5,0.5,1,4,0.8,1,587,1,1,587,1,0,1.4,1,-0.310277418214918,-0.310277418214918,750,0,0,incongruent,0.1,1406.89602819154,3779.54425479481
56,104,3,341,-0.5,-0.5,0.5,3,1,0.8,3,633,1,1,633,1,0,1.2,1,0.0965826838089141,0.0965826838089141,750,0,0,incongruent,0.1,6644.67650777118,470.984132438153
56,104,3,342,-0.5,0.5,0.5,2,3,0.8,2,650,1,1,650,1,0,1,1,0.2469440258612,0.2469440258612,750,0,0,incongruent,0.1,2217.81858903223,2309.62606313641
56,104,3,343,0.5,-0.5,0,3,NaN,0.8,3,678,1,1,678,1,0,1.2,NaN,0.494598001006141,0.494598001006141,750,0,0,neutral,1,4551.42844046839,7427.15247524269
56,104,3,344,0.5,-0.5,-0.5,2,2,0.8,2,796,1,0,796,1,0,1.2,NaN,1.53828261054554,1.53828261054554,750,1,0,congruent,1,5357.21262685698,2688.86793118859
56,104,3,345,0.5,-0.5,0,1,NaN,0.8,1,620,1,1,620,1,0,1.4,NaN,-0.0183995189369514,-0.0183995189369514,750,0,0,neutral,1,2743.30133650154,4637.27885796811
56,104,3,346,0.5,-0.5,-0.5,4,4,0.8,4,783,1,0,783,1,0,1.6,NaN,1.42330040779967,1.42330040779967,750,1,0,congruent,1,1950.70417981847,1760.87584064721
56,104,3,347,0.5,-0.5,-0.5,1,1,0.8,1,595,1,1,595,1,0,1.8,NaN,-0.239519139602077,-0.239519139602077,750,1,0,congruent,1,3808.66714324869,3186.19987689884
56,104,3,348,-0.5,0.5,0.5,2,3,0.8,2,709,1,1,709,1,0,2,1,0.768786330630897,0.768786330630897,750,0,0,incongruent,0.1,2056.31469846346,15623.7747372584
56,104,3,349,-0.5,0.5,0,3,NaN,0.8,3,653,1,1,653,1,0,1.8,1,0.273478380341015,0.273478380341015,750,0,0,neutral,0.1,7137.29911397921,1834.80683737023
56,104,3,350,0.5,-0.5,0.5,4,3,1,4,574,1,1,574,1,0,1.6,NaN,-0.425259620960783,-0.425259620960783,750,0,0,incongruent,1,6152.44098227117,4657.61415166418
56,104,3,351,0.5,0.5,0,1,NaN,1,1,635,1,1,635,1,0,1.6,NaN,0.114272253462124,0.114272253462124,750,0,0,neutral,1,6636.25685819947,3896.98736002686
56,104,3,352,-0.5,0.5,-0.5,3,3,1,3,600,1,1,600,1,0,1.6,1,-0.195295215469052,-0.195295215469052,750,1,0,congruent,0.1,7596.49861103981,6182.69234587591
56,104,3,353,0.5,0.5,-0.5,1,1,1,1,713,1,1,713,1,0,1.4,NaN,0.804165469937317,0.804165469937317,750,1,0,congruent,1,3626.99784340322,2716.79161933839
56,104,3,354,0.5,0.5,0,2,NaN,1,2,723,1,1,723,1,0,1.6,NaN,0.892613318203368,0.892613318203368,750,0,0,neutral,1,4160.81698225407,7941.32173559375
56,104,3,355,0.5,-0.5,0.5,4,2,1,4,826,1,0,826,1,0,1.8,NaN,1.80362615534369,1.80362615534369,750,0,0,incongruent,1,2148.76162783641,6689.20159680784
56,104,3,356,-0.5,-0.5,0.5,2,4,1,2,799,1,0,799,1,0,1.8,1,1.56481696502535,1.56481696502535,750,0,0,incongruent,0.1,4323.45510820676,4714.69937231664
56,104,3,357,0.5,0.5,0.5,1,3,1,1,907,1,0,907,0,0,1.6,NaN,2.5200537262987,2.5200537262987,750,0,0,incongruent,0,5212.23147962321,1954.83488131484
56,104,3,358,-0.5,-0.5,0.5,2,4,0.8,2,696,1,1,696,1,0,1.4,1,0.653804127885032,0.653804127885032,750,0,0,incongruent,0.1,4449.49313418347,6563.65662763992
56,104,3,359,-0.5,-0.5,0.5,3,1,0.8,3,608,1,1,608,1,0,1.2,1,-0.124536936856212,-0.124536936856212,750,0,0,incongruent,0.1,7863.34616947009,1870.26063912409
56,104,3,360,0.5,-0.5,-0.5,2,2,0.8,2,739,1,1,739,0,0,1,NaN,1.03412987542905,1.03412987542905,750,1,0,congruent,0,811.680766998674,2553.08974224065
56,104,3,361,-0.5,-0.5,-0.5,1,1,0.8,1,506,1,1,506,0,0,0.6,1,-1.02670498916993,-1.02670498916993,750,1,0,congruent,0,3786.02516887079,767.482925459695
56,104,3,362,0.5,0.5,0.5,2,3,0.8,2,656,1,1,656,1,0,0.4,NaN,0.30001273482083,0.30001273482083,750,0,0,incongruent,1,3088.68267991099,2259.13989346821
56,104,3,363,0.5,-0.5,0.5,4,1,0.8,4,743,1,1,743,1,0,0.8,NaN,1.06950901473547,1.06950901473547,750,0,0,incongruent,1,4865.98742398956,5246.00575266748
56,104,3,364,0.5,-0.5,-0.5,3,3,0.8,3,527,1,1,527,0,0,1,NaN,-0.84096450781122,-0.84096450781122,750,1,0,congruent,0,7229.35459223263,985.696115573945
56,104,3,365,0.5,-0.5,0,1,NaN,0.8,1,585,1,1,585,1,0,0.8,NaN,-0.327966987868128,-0.327966987868128,750,0,0,neutral,1,2711.91721240803,2758.53664245368
56,104,3,366,-0.5,0.5,0.5,3,4,0.8,3,834,1,0,834,0,0,1.2,1,1.87438443395653,1.87438443395653,750,0,0,incongruent,0,18386.2382082726,4019.77195016935
56,104,3,367,-0.5,-0.5,-0.5,2,2,0.6,2,784,1,0,784,0,0,1.2,0.8,1.43214519262628,1.43214519262628,750,1,0,congruent,0,6153.77393135997,2544.71051487434
56,104,3,368,0.5,0.5,0,1,NaN,0.6,1,396,1,1,396,1,0,0.8,NaN,-1.99963132009648,-1.99963132009648,750,0,0,neutral,1,1201.90421941159,1127.14497607832
56,104,3,369,0.5,-0.5,-0.5,3,3,0.6,3,733,1,1,733,0,0,0.8,NaN,0.981061166469418,0.981061166469418,750,1,0,congruent,0,6005.32646527494,1852.93554507829
56,104,3,370,0.5,-0.5,0,2,NaN,0.6,2,659,1,1,659,0,0,0.8,NaN,0.326547089300645,0.326547089300645,750,0,0,neutral,0,2694.4461135883,6462.40744306891
56,104,3,371,-0.5,-0.5,-0.5,3,3,0.6,3,740,1,1,740,0,0,0.4,0.6,1.04297466025565,1.04297466025565,750,1,0,congruent,0,4025.12271293764,5153.19084876211
56,104,3,372,0.5,-0.5,-0.5,1,1,0.6,2,693,0,1,NaN,1,0,0.4,NaN,0.627269773405217,NaN,750,0,1,congruent,1,5961.70559355609,2530.2420985432
56,104,3,373,-0.5,0.5,0.5,3,4,0.6,3,945,1,0,945,0,0,0.8,0.8,2.85615554970969,2.85615554970969,750,0,0,incongruent,0,3611.56655990259,4320.85437839528
56,104,3,374,0.5,-0.5,-0.5,1,1,0.4,1,467,1,1,467,1,0,0.4,NaN,-1.37165159740752,-1.37165159740752,750,1,0,congruent,1,6141.5319834235,1662.83956295487
56,104,3,375,0.5,0.5,0,2,NaN,0.4,1,840,0,0,NaN,0,0,0.8,NaN,1.92745314291616,NaN,750,0,1,neutral,0,5701.69267771294,1662.117531329
56,104,3,376,-0.5,0.5,0.5,3,1,0.4,3,789,1,0,789,0,0,0.8,0.6,1.4763691167593,1.4763691167593,750,0,0,incongruent,0,4462.4634772122,4244.26367247563
56,104,3,377,0.5,0.5,0,1,NaN,0.2,1,548,1,1,548,1,0,0.8,NaN,-0.655224026452514,-0.655224026452514,750,0,0,neutral,1,4409.40647866679,1296.42015133827
56,104,3,378,-0.5,0.5,0.5,2,4,0.4,2,758,1,0,758,0,0,0.8,0.4,1.20218078713454,1.20218078713454,750,0,0,incongruent,0,2017.32702634519,2214.10877631255
56,104,3,379,-0.5,0.5,0,4,NaN,0.2,4,484,1,1,484,1,0,0.8,0.2,-1.22129025535524,-1.22129025535524,750,0,0,neutral,0.1,1795.10844593072,4766.09401862341
56,104,3,380,-0.5,0.5,-0.5,2,2,0.4,2,779,1,0,779,0,0,0.6,0.2,1.38792126849325,1.38792126849325,750,1,0,congruent,0,6068.04261955981,3219.181176668
56,104,3,381,-0.5,0.5,0,1,NaN,0.4,1,452,1,1,452,1,0,0.6,0.2,-1.5043233698066,-1.5043233698066,750,0,0,neutral,0.1,2421.16676336585,1911.10872862951
56,104,3,382,0.5,-0.5,-0.5,4,4,0.6,4,418,1,1,418,1,0,0.8,NaN,-1.80504605391117,-1.80504605391117,750,1,0,congruent,1,1836.55811494013,1895.15624764903
56,104,3,383,-0.5,-0.5,0,1,NaN,0.6,1,548,1,1,548,0,0,0.8,0.4,-0.655224026452514,-0.655224026452514,750,0,0,neutral,0,1177.63399757248,2073.35982994882
56,104,3,384,-0.5,0.5,-0.5,4,4,0.6,4,644,1,1,644,1,0,0.8,0.4,0.19387531690157,0.19387531690157,750,1,0,congruent,0.1,5358.49508977471,1452.03406433105
56,104,3,385,-0.5,-0.5,0,2,NaN,0.6,2,643,1,1,643,1,0,0.8,0.2,0.185030532074965,0.185030532074965,750,0,0,neutral,0.1,5914.31069401768,1943.55768897244
56,104,3,386,-0.5,-0.5,-0.5,4,4,0.6,4,720,1,1,720,1,0,1,0.2,0.866078963723553,0.866078963723553,750,1,0,congruent,0.1,3047.73755364878,6673.68154147203
56,104,3,387,-0.5,0.5,0.5,2,3,0.6,2,752,1,0,752,0,0,1,0.6,1.14911207817491,1.14911207817491,750,0,0,incongruent,0,16693.0886163927,993.163401339204
56,104,3,388,0.5,0.5,0,4,NaN,0.6,4,535,1,1,535,1,0,0.6,NaN,-0.77020622919838,-0.77020622919838,750,0,0,neutral,1,2225.80924550342,2369.93989575942
56,104,3,389,0.5,-0.5,-0.5,2,2,0.6,2,660,1,1,660,1,0,1,NaN,0.33539187412725,0.33539187412725,750,1,0,congruent,1,3552.32426410554,1313.04509366735
56,104,3,390,0.5,-0.5,0,4,NaN,0.6,4,609,1,1,609,0,0,1.2,NaN,-0.115692152029607,-0.115692152029607,750,0,0,neutral,0,26207.978160718,2237.53514990594
56,104,3,391,0.5,-0.5,-0.5,3,3,0.6,3,659,1,1,659,0,0,1,NaN,0.326547089300645,0.326547089300645,750,1,0,congruent,0,2732.31967148223,7285.68932918324
56,104,3,392,0.5,0.5,0,1,NaN,0.6,1,703,1,1,703,1,0,0.8,NaN,0.715717621671267,0.715717621671267,750,0,0,neutral,1,2114.89689697254,1509.9388784382
56,104,3,393,0.5,0.5,-0.5,4,4,0.8,4,492,1,1,492,1,0,1.2,NaN,-1.1505319767424,-1.1505319767424,750,1,0,congruent,1,4936.35309195403,2068.81828366941
56,104,3,395,0.5,-0.5,-0.5,4,4,0.8,4,616,1,1,616,1,0,1,NaN,-0.0537786582433715,-0.0537786582433715,750,1,0,congruent,1,1578.96636155755,1198.16939918405
56,104,3,396,-0.5,-0.5,0.5,3,2,0.8,3,570,1,1,570,0,0,1.4,0.4,-0.460638760267203,-0.460638760267203,750,0,0,incongruent,0,3424.5804639152,2939.71678595818
56,104,3,397,-0.5,0.5,0,4,NaN,0.8,4,726,1,1,726,1,0,1.4,0.6,0.919147672683183,0.919147672683183,750,0,0,neutral,0.1,2876.87757740753,1337.01602248753
56,104,3,398,0.5,-0.5,0.5,3,2,1,3,648,1,1,648,1,0,1.2,NaN,0.22925445620799,0.22925445620799,750,0,0,incongruent,1,4839.87375960426,3537.77271219509
56,104,3,399,-0.5,-0.5,0.5,4,3,1,4,928,1,0,928,1,0,1.2,0.4,2.7057942076574,2.7057942076574,750,0,0,incongruent,0.1,4734.07346403663,12580.0460201622
56,104,3,400,-0.5,-0.5,-0.5,2,2,1,2,830,1,0,830,1,0,1.2,0.6,1.83900529465011,1.83900529465011,750,1,0,congruent,0.1,10438.1241750233,3883.77072514702
56,104,3,401,0.5,-0.5,-0.5,4,4,1,4,728,1,1,728,1,0,1,NaN,0.936837242336393,0.936837242336393,750,1,0,congruent,1,6981.63478080386,2601.82099295012
56,104,3,402,0.5,0.5,-0.5,1,1,1,1,545,1,1,545,1,0,1.4,NaN,-0.681758380932329,-0.681758380932329,750,1,0,congruent,1,2951.38916518258,2719.65733126871
56,104,3,403,0.5,0.5,0,4,NaN,1,4,731,1,1,731,1,0,1.6,NaN,0.963371596816208,0.963371596816208,750,0,0,neutral,1,3481.79741632111,11713.3081671122
56,104,3,404,0.5,0.5,0.5,3,1,1,3,754,1,0,754,0,0,1.6,NaN,1.16680164782812,1.16680164782812,750,0,0,incongruent,0,2650.55881624094,7713.30910731289
56,104,3,405,-0.5,-0.5,-0.5,4,4,0.8,4,550,1,1,550,1,0,1.4,0.8,-0.637534456799304,-0.637534456799304,750,1,0,congruent,0.1,2589.02483544522,411.223232452708
56,104,3,406,-0.5,0.5,0,1,NaN,0.8,1,599,1,1,599,1,0,1.4,0.8,-0.204140000295657,-0.204140000295657,750,0,0,neutral,0.1,10147.8397636731,5429.09255628307
56,104,3,407,0.5,-0.5,-0.5,2,2,0.8,2,609,1,1,609,1,0,1.2,NaN,-0.115692152029607,-0.115692152029607,750,1,0,congruent,1,1533.51390116558,4469.27002516896
56,104,3,408,-0.5,0.5,0.5,4,3,0.8,4,920,1,0,920,0,0,1.2,0.8,2.63503592904456,2.63503592904456,750,0,0,incongruent,0,4659.52195456418,5552.36908372883
56,104,3,409,0.5,0.5,0,1,NaN,0.6,1,654,1,1,654,1,0,0.8,NaN,0.28232316516762,0.28232316516762,750,0,0,neutral,1,1534.49477884703,9439.45629847951
56,104,3,410,-0.5,0.5,-0.5,3,3,0.6,3,638,1,1,638,1,0,1.2,0.6,0.140806607941939,0.140806607941939,750,1,0,congruent,0.1,11576.6571286417,17750.2692487912
56,104,3,411,0.5,-0.5,0.5,1,4,0.6,1,828,1,0,828,0,0,1.2,NaN,1.8213157249969,1.8213157249969,750,0,0,incongruent,0,9247.24091616963,7653.02986600432
56,104,3,412,-0.5,0.5,0,4,NaN,0.6,4,667,1,1,667,1,0,1,0.8,0.397305367913486,0.397305367913486,750,0,0,neutral,0.1,2258.39770243752,2306.54963481497
56,104,3,413,-0.5,0.5,-0.5,1,1,0.8,1,918,1,0,918,0,0,0.8,0.8,2.61734635939135,2.61734635939135,750,1,0,congruent,0,4526.65089192203,3214.89425666265
56,104,3,414,0.5,-0.5,0.5,4,3,0.6,4,583,1,1,583,1,0,0.8,NaN,-0.345656557521338,-0.345656557521338,750,0,0,incongruent,1,7525.71459193412,1361.87901641564
56,104,3,415,0.5,0.5,0,1,NaN,0.6,1,822,1,0,822,0,0,0.8,NaN,1.76824701603727,1.76824701603727,750,0,0,neutral,0,943.804763252434,2962.01079743023
56,104,3,416,-0.5,0.5,0.5,2,4,0.6,2,625,1,1,625,1,0,0.6,0.6,0.0258244051960738,0.0258244051960738,750,0,0,incongruent,0.1,1591.95365836772,7559.99967850588
56,104,3,417,-0.5,-0.5,-0.5,1,1,0.6,1,661,1,1,661,1,0,0.8,0.8,0.344236658953855,0.344236658953855,750,1,0,congruent,0.1,2691.65442924253,5845.85528079055
56,104,3,418,-0.5,0.5,0.5,2,3,0.6,2,652,1,1,652,1,0,0.8,0.6,0.26463359551441,0.26463359551441,750,0,0,incongruent,0.1,8492.74109069887,8773.07211400019
56,104,3,419,0.5,0.5,-0.5,4,4,0.6,4,591,1,1,591,1,0,1,NaN,-0.274898278908498,-0.274898278908498,750,1,0,congruent,1,1527.43521381679,2705.25457435112
56,104,3,420,0.5,-0.5,-0.5,2,2,0.6,2,902,1,0,902,0,0,1,NaN,2.47582980216567,2.47582980216567,750,1,0,congruent,0,2862.12890646903,5764.65016932277
56,104,3,422,0.5,-0.5,0.5,4,3,0.8,4,456,1,1,456,1,0,1,NaN,-1.46894423050018,-1.46894423050018,750,0,0,incongruent,1,11163.8024090088,4609.96020898373
56,104,3,423,-0.5,0.5,-0.5,1,1,0.8,1,472,1,1,472,1,0,1.2,0.8,-1.3274276732745,-1.3274276732745,750,1,0,congruent,0.1,5019.63728494773,4316.57285149991
56,104,3,424,-0.5,0.5,0,3,NaN,1,3,665,1,1,665,1,0,1.2,0.8,0.379615798260275,0.379615798260275,750,0,0,neutral,0.1,5445.61969958997,3565.3389815925
56,104,3,425,-0.5,0.5,-0.5,1,1,1,1,681,1,1,681,1,0,1,1,0.521132355485956,0.521132355485956,750,1,0,congruent,0.1,4378.63692863487,7582.53498613106
56,104,3,426,-0.5,0.5,0,2,NaN,1,2,578,1,1,578,1,0,1.2,1,-0.389880481654363,-0.389880481654363,750,0,0,neutral,0.1,8230.51874333775,6106.78648712925
56,104,3,427,-0.5,0.5,-0.5,1,1,1,1,715,1,1,715,1,0,1.2,1,0.821855039590528,0.821855039590528,750,1,0,congruent,0.1,5001.92803263616,9348.35279834814
56,104,3,428,0.5,-0.5,-0.5,4,4,1,4,552,1,1,552,1,0,1,NaN,-0.619844887146094,-0.619844887146094,750,1,0,congruent,1,4013.02119570264,2182.6625018114
56,104,3,429,0.5,0.5,0,2,NaN,1,2,726,1,1,726,1,0,1.2,NaN,0.919147672683183,0.919147672683183,750,0,0,neutral,1,992.734402117825,3173.47333720332
56,104,3,430,-0.5,-0.5,-0.5,3,3,1,3,644,1,1,644,1,0,1.4,0.8,0.19387531690157,0.19387531690157,750,1,0,congruent,0.1,2949.8532013435,2210.35688276107
56,104,3,431,-0.5,0.5,-0.5,2,2,1,2,768,1,0,768,0,0,1.4,1,1.29062863540059,1.29062863540059,750,1,0,congruent,0,3199.16824543554,1193.02824927525
56,104,3,432,0.5,-0.5,-0.5,1,1,0.8,1,552,1,1,552,1,0,1.2,NaN,-0.619844887146094,-0.619844887146094,750,1,0,congruent,1,3731.12237217462,6465.72141926626
56,104,3,433,0.5,-0.5,0,2,NaN,0.8,2,691,1,1,691,1,0,1.4,NaN,0.609580203752006,0.609580203752006,750,0,0,neutral,1,4980.06659448169,1274.68506762816
56,104,3,434,0.5,0.5,0.5,3,2,0.8,3,701,1,1,701,1,0,1.4,NaN,0.698028052018057,0.698028052018057,750,0,0,incongruent,1,6113.74079463253,3517.12512538327
56,104,3,435,-0.5,0.5,0.5,2,4,0.8,2,705,1,1,705,1,0,1.4,0.8,0.733407191324477,0.733407191324477,750,0,0,incongruent,0.1,5835.54893297026,4533.45149471169
56,104,3,436,0.5,-0.5,0.5,1,2,0.8,1,590,1,1,590,1,0,1.4,NaN,-0.283743063735103,-0.283743063735103,750,0,0,incongruent,1,9600.35108909676,4470.61417232518
56,104,3,437,0.5,-0.5,-0.5,4,4,0.8,4,706,1,1,706,1,0,1.8,NaN,0.742251976151082,0.742251976151082,750,1,0,congruent,1,1197.98750497133,7775.83065213119
56,104,3,438,-0.5,0.5,0,1,NaN,0.8,1,805,1,0,805,0,0,1.8,0.8,1.61788567398498,1.61788567398498,750,0,0,neutral,0,4979.78252741632,2977.41935630026
56,104,3,439,-0.5,0.5,-0.5,4,4,0.6,4,475,1,1,475,1,0,1.4,0.6,-1.30089331879468,-1.30089331879468,750,1,0,congruent,0.1,3133.05692016572,919.372730827373
56,104,3,440,-0.5,-0.5,0.5,2,1,0.6,2,666,1,1,666,0,0,1.2,1,0.38846058308688,0.38846058308688,750,0,0,incongruent,0,2345.34551149334,4102.37723766497
56,104,3,441,-0.5,0.5,0.5,3,4,0.6,3,601,1,1,601,1,0,1,0.6,-0.186450430642447,-0.186450430642447,750,0,0,incongruent,0.1,704.238802431702,2698.90014614035
56,104,3,443,-0.5,-0.5,0,3,NaN,0.8,3,534,1,1,534,0,0,0.6,0.8,-0.779051014024985,-0.779051014024985,750,0,0,neutral,0,3595.19063371725,2600.48428168145
56,104,3,444,0.5,-0.5,0.5,2,1,0.8,2,719,1,1,719,1,0,0.6,NaN,0.857234178896948,0.857234178896948,750,0,0,incongruent,1,4151.66385262669,2144.40245138376
56,104,3,445,0.5,-0.5,-0.5,3,3,0.8,3,483,1,1,483,1,0,0.8,NaN,-1.23013504018184,-1.23013504018184,750,1,0,congruent,1,3267.72916794569,2774.44558094002
56,104,3,446,0.5,0.5,0.5,1,2,0.8,1,507,1,1,507,1,0,1.2,NaN,-1.01786020434332,-1.01786020434332,750,0,0,incongruent,1,2249.6643683166,4288.06821576434
56,104,3,447,-0.5,-0.5,0.5,3,4,0.8,3,606,1,1,606,1,0,1.4,0.6,-0.142226506509422,-0.142226506509422,750,0,0,incongruent,0.1,5055.5955680015,6147.6771343536
56,104,3,448,0.5,-0.5,-0.5,1,1,0.8,1,683,1,1,683,1,0,1.4,NaN,0.538821925139166,0.538821925139166,750,1,0,congruent,1,2906.6955374343,8801.19699003126
56,104,3,449,0.5,-0.5,-0.5,2,2,0.8,2,665,1,1,665,0,0,1.8,NaN,0.379615798260275,0.379615798260275,750,1,0,congruent,0,6021.26517650504,6503.65871679885
56,104,3,450,-0.5,0.5,0.5,1,4,0.8,1,609,1,1,609,1,0,1.4,0.6,-0.115692152029607,-0.115692152029607,750,0,0,incongruent,0.1,1175.27540022299,4109.85072659123
56,104,4,451,0.5,-0.5,0,2,NaN,0.8,2,600,1,1,600,0,0,1.2,NaN,-0.195295215469052,-0.195295215469052,750,0,0,neutral,0,5341.12007299997,1935.61522121632
56,104,4,452,-0.5,0.5,-0.5,3,3,0.8,3,535,1,1,535,1,0,0.8,0.8,-0.77020622919838,-0.77020622919838,750,1,0,congruent,0.1,4362.20320978351,3398.86843591541
56,104,4,453,0.5,-0.5,0.5,4,2,1,4,400,1,1,400,1,0,0.8,NaN,-1.96425218079006,-1.96425218079006,750,0,0,incongruent,1,2977.26080721082,1514.02504783286
56,104,4,454,-0.5,-0.5,0,1,NaN,1,1,532,1,1,532,1,0,0.8,0.6,-0.796740583678195,-0.796740583678195,750,0,0,neutral,0.1,9490.29194713669,1857.85931558522
56,104,4,455,-0.5,0.5,0.5,4,2,1,4,788,1,0,788,0,0,1,0.8,1.4675243319327,1.4675243319327,750,0,0,incongruent,0,2332.13838907454,3946.143445762
56,104,4,456,0.5,0.5,0.5,1,3,0.8,1,642,1,1,642,1,0,0.8,NaN,0.17618574724836,0.17618574724836,750,0,0,incongruent,1,6564.79491387176,2296.54956998048
56,104,4,457,-0.5,0.5,0,2,NaN,0.8,2,436,1,1,436,1,0,1.2,0.8,-1.64583992703228,-1.64583992703228,750,0,0,neutral,0.1,1329.68286128537,6594.95099158583
56,104,4,458,-0.5,0.5,-0.5,3,3,0.8,3,463,1,1,463,1,0,1.2,0.8,-1.40703073671394,-1.40703073671394,750,1,0,congruent,0.1,1162.52816467448,1297.46962405044
56,104,4,459,0.5,-0.5,0,4,NaN,0.8,4,430,1,1,430,0,0,1,NaN,-1.69890863599191,-1.69890863599191,750,0,0,neutral,0,2050.54253934866,1036.02689153716
56,104,4,460,0.5,0.5,0.5,2,1,0.8,2,449,1,1,449,1,0,0.8,NaN,-1.53085772428641,-1.53085772428641,750,0,0,incongruent,1,2226.16656819073,1067.99088798714
56,104,4,461,-0.5,-0.5,0,4,NaN,0.8,4,543,1,1,543,1,0,1.2,0.6,-0.69944795058554,-0.69944795058554,750,0,0,neutral,0.1,1889.54871036226,821.998166219789
56,104,4,462,0.5,0.5,-0.5,1,1,0.8,1,596,1,1,596,1,0,1,NaN,-0.230674354775472,-0.230674354775472,750,1,0,congruent,1,1449.49195928197,3734.94401924415
56,104,4,463,-0.5,0.5,0,4,NaN,1,4,525,1,1,525,1,0,1.2,0.8,-0.85865407746443,-0.85865407746443,750,0,0,neutral,0.1,3169.08629295794,583.11384903129
56,104,4,464,-0.5,0.5,-0.5,3,3,1,3,587,1,1,587,1,0,1.2,0.8,-0.310277418214918,-0.310277418214918,750,1,0,congruent,0.1,7109.58418432954,5543.26661072964
56,104,4,465,-0.5,0.5,0,1,NaN,1,1,844,1,0,844,0,0,1.4,0.8,1.96283228222258,1.96283228222258,750,0,0,neutral,0,6764.79568901665,5553.91062712237
56,104,4,466,0.5,-0.5,-0.5,2,2,0.8,2,558,1,1,558,0,0,1,NaN,-0.566776178186464,-0.566776178186464,750,1,0,congruent,0,6895.60998963876,2979.14716160517
56,104,4,467,0.5,-0.5,0,1,NaN,0.8,1,747,1,1,747,1,0,0.8,NaN,1.10488815404189,1.10488815404189,750,0,0,neutral,1,3342.99170560922,2473.19186967162
56,104,4,468,-0.5,-0.5,-0.5,2,2,0.8,1,581,0,1,NaN,1,0,0.8,0.8,-0.363346127174548,NaN,750,0,1,congruent,0.1,3974.44326548171,3611.46091547371
56,104,4,469,0.5,0.5,0.5,3,1,0.8,3,517,1,1,517,1,0,0.8,NaN,-0.929412356077271,-0.929412356077271,750,0,0,incongruent,1,1528.03610325669,1405.55608308578
56,104,4,470,0.5,0.5,0.5,2,4,0.8,2,721,1,1,721,1,0,1,NaN,0.874923748550158,0.874923748550158,750,0,0,incongruent,1,3781.10291969361,4746.96312260218
56,104,4,471,-0.5,0.5,0.5,3,1,0.8,3,507,1,1,507,1,0,1.4,0.8,-1.01786020434332,-1.01786020434332,750,0,0,incongruent,0.1,12947.6118359658,1090.26195899
56,104,4,472,-0.5,0.5,-0.5,2,2,0.8,2,625,1,1,625,1,0,1.6,0.8,0.0258244051960738,0.0258244051960738,750,1,0,congruent,0.1,9254.14665755429,2505.74989233574
56,104,4,473,0.5,0.5,0.5,4,3,0.8,3,734,0,1,NaN,0,0,1.4,NaN,0.989905951296023,NaN,750,1,0,incongruent,0,24672.1225841068,2686.7551924753
56,104,4,474,0.5,0.5,-0.5,1,1,0.8,1,627,1,1,627,1,0,1.2,NaN,0.0435139748492839,0.0435139748492839,750,1,0,congruent,1,3560.82012458424,1994.65095797168
56,104,4,475,0.5,0.5,0,4,NaN,0.8,4,451,1,1,451,1,0,1.2,NaN,-1.5131681546332,-1.5131681546332,750,0,0,neutral,1,2181.49925875512,2020.34544264156
56,104,4,476,-0.5,-0.5,-0.5,1,1,0.8,1,695,1,1,695,1,0,1.2,0.8,0.644959343058427,0.644959343058427,750,1,0,congruent,0.1,3379.69617436576,3693.88627327613
56,104,4,477,0.5,-0.5,0,4,NaN,0.8,4,589,1,1,589,0,0,1.2,NaN,-0.292587848561708,-0.292587848561708,750,0,0,neutral,0,3038.91452874276,866.576846527807
56,104,4,478,-0.5,0.5,-0.5,1,1,0.8,1,591,1,1,591,1,0,1,0.8,-0.274898278908498,-0.274898278908498,750,1,0,congruent,0.1,5739.85628471145,6094.03701436816
56,104,4,479,-0.5,0.5,0,3,NaN,0.8,3,755,1,0,755,0,0,1.2,0.8,1.17564643265473,1.17564643265473,750,0,0,neutral,0,8519.56864245478,2762.14980759662
56,104,4,481,-0.5,0.5,0,1,NaN,0.8,1,638,1,1,638,1,0,0.8,0.6,0.140806607941939,0.140806607941939,750,0,0,neutral,0.1,3751.66226699163,7975.77471242934
56,104,4,482,-0.5,-0.5,-0.5,4,4,0.8,4,509,1,1,509,0,0,0.8,1,-1.00017063469011,-1.00017063469011,750,1,0,congruent,0,6239.38254684887,1690.63789446906
56,104,4,483,-0.5,-0.5,0.5,1,3,0.8,1,999,1,0,999,1,0,0.8,0.8,3.33377393034636,3.33377393034636,750,0,0,incongruent,0.1,4015.14527696733,7425.49192623922
56,104,4,484,0.5,0.5,-0.5,2,2,0.8,2,495,1,1,495,1,0,0.8,NaN,-1.12399762226258,-1.12399762226258,750,1,0,congruent,1,2548.14040091021,4316.82822404643
56,104,4,485,-0.5,0.5,-0.5,3,3,0.8,3,759,1,0,759,0,0,1.2,0.8,1.21102557196115,1.21102557196115,750,1,0,congruent,0,8075.51092802721,2426.70117723128
56,104,4,486,0.5,0.5,-0.5,1,1,0.6,1,550,1,1,550,1,0,0.8,NaN,-0.637534456799304,-0.637534456799304,750,1,0,congruent,1,6513.07823262835,2216.81939412694
56,104,4,487,-0.5,-0.5,0,4,NaN,0.8,4,533,1,1,533,1,0,1,0.8,-0.78789579885159,-0.78789579885159,750,0,0,neutral,0.1,2874.15091666243,1265.27714456455
56,104,4,488,-0.5,-0.5,-0.5,1,1,0.8,1,683,1,1,683,1,0,1.2,0.8,0.538821925139166,0.538821925139166,750,1,0,congruent,0.1,4321.58579198878,4983.0757512264
56,104,4,489,-0.5,0.5,-0.5,4,4,0.8,4,594,1,1,594,1,0,1.2,0.6,-0.248363924428682,-0.248363924428682,750,1,0,congruent,0.1,2525.45047274059,1967.16628892251
56,104,4,490,-0.5,0.5,-0.5,1,1,0.8,1,562,1,1,562,1,0,1,0.6,-0.531397038880044,-0.531397038880044,750,1,0,congruent,0.1,2392.38252415973,2229.30886128319
56,104,4,491,-0.5,0.5,0,2,NaN,0.8,2,584,1,1,584,1,0,1.2,0.6,-0.336811772694733,-0.336811772694733,750,0,0,neutral,0.1,1513.08251069412,3227.18189925915
56,104,4,492,0.5,0.5,-0.5,1,1,0.8,1,693,1,1,693,1,0,1,NaN,0.627269773405217,0.627269773405217,750,1,0,congruent,1,3122.43832941798,3287.72077473675
56,104,4,493,-0.5,0.5,0.5,3,4,1,3,778,1,0,778,0,0,1.2,0.8,1.37907648366665,1.37907648366665,750,0,0,incongruent,0,4229.02018611147,2321.68144588248
56,104,4,494,0.5,0.5,0.5,1,3,0.8,1,755,1,0,755,0,0,1,NaN,1.17564643265473,1.17564643265473,750,0,0,incongruent,0,2583.82779999018,5185.75054938967
56,104,4,495,-0.5,0.5,0.5,4,2,0.6,4,479,1,1,479,1,0,0.8,0.6,-1.26551417948826,-1.26551417948826,750,0,0,incongruent,0.1,4536.76446288545,3961.37296136127
56,104,4,496,-0.5,0.5,0,3,NaN,0.6,3,487,1,1,487,1,0,0.8,0.8,-1.19475590087542,-1.19475590087542,750,0,0,neutral,0.1,7914.26811340918,1568.06163339712
56,104,4,497,0.5,0.5,-0.5,2,2,0.6,2,581,1,1,581,1,0,0.8,NaN,-0.363346127174548,-0.363346127174548,750,1,0,congruent,1,2898.7329509644,5046.08615818743
56,104,4,498,-0.5,0.5,0,1,NaN,0.6,1,533,1,1,533,1,0,0.8,0.8,-0.78789579885159,-0.78789579885159,750,0,0,neutral,0.1,4497.37175037874,10444.367982425
56,104,4,499,0.5,0.5,0.5,4,1,0.8,4,807,1,0,807,0,0,1,NaN,1.63557524363819,1.63557524363819,750,0,0,incongruent,0,4350.92627918438,8187.29936013318
56,104,4,500,-0.5,-0.5,0.5,1,2,0.8,1,829,1,0,829,1,0,1,0.8,1.8301605098235,1.8301605098235,750,0,0,incongruent,0.1,6149.2777110937,6363.39517298022
56,104,4,501,-0.5,-0.5,0,2,NaN,0.8,2,587,1,1,587,1,0,1,0.8,-0.310277418214918,-0.310277418214918,750,0,0,neutral,0.1,8757.76983270884,2124.24039506681
56,104,4,502,0.5,-0.5,-0.5,4,4,0.8,4,526,1,1,526,1,0,1,NaN,-0.849809292637825,-0.849809292637825,750,1,0,congruent,1,3512.14065304492,2714.91680837914
56,104,4,503,-0.5,0.5,-0.5,1,1,0.8,1,507,1,1,507,1,0,1,0.8,-1.01786020434332,-1.01786020434332,750,1,0,congruent,0.1,6525.9899569463,3889.87998872841
56,104,4,504,-0.5,0.5,0.5,3,2,0.8,3,814,1,0,814,0,0,1,0.8,1.69748873742443,1.69748873742443,750,0,0,incongruent,0,7699.42922655315,6887.88316866244
56,104,4,505,-0.5,0.5,-0.5,1,1,0.6,1,641,1,1,641,1,0,1,0.8,0.167340962421754,0.167340962421754,750,1,0,congruent,0.1,4724.30751799386,4805.25708244424
56,104,4,506,0.5,-0.5,0.5,4,3,0.6,4,443,1,1,443,1,0,1,NaN,-1.58392643324604,-1.58392643324604,750,0,0,incongruent,1,5963.31976836156,2492.40789737984
56,104,4,507,-0.5,0.5,0.5,3,1,0.6,3,429,1,1,429,1,0,1.2,0.8,-1.70775342081851,-1.70775342081851,750,0,0,incongruent,0.1,2396.64264398047,1953.62908998626
56,104,4,508,0.5,-0.5,-0.5,4,4,0.6,4,467,1,1,467,1,0,1,NaN,-1.37165159740752,-1.37165159740752,750,1,0,congruent,1,2629.39588782812,3166.83740661483
56,104,4,509,0.5,-0.5,-0.5,3,3,0.6,3,572,1,1,572,0,0,1.2,NaN,-0.442949190613993,-0.442949190613993,750,1,0,congruent,0,3480.47869500633,2105.33860853453
56,104,4,510,-0.5,0.5,-0.5,4,4,0.6,4,573,1,1,573,1,0,1.2,0.8,-0.434104405787388,-0.434104405787388,750,1,0,congruent,0.1,1988.41098844552,4665.63968431145
56,104,4,511,-0.5,0.5,0,2,NaN,0.8,2,821,1,0,821,0,0,1.2,0.8,1.75940223121066,1.75940223121066,750,0,0,neutral,0,5307.65365187517,9223.56034117409
56,104,4,512,-0.5,-0.5,0.5,3,4,0.6,3,663,1,1,663,1,0,0.8,1,0.361926228607065,0.361926228607065,750,0,0,incongruent,0.1,1206.83971407749,1508.34647751463
56,104,4,513,0.5,-0.5,-0.5,1,1,0.6,1,556,1,1,556,0,0,0.8,NaN,-0.584465747839674,-0.584465747839674,750,1,0,congruent,0,5990.67325959034,1560.09011277167
56,104,4,514,0.5,0.5,0.5,2,3,0.6,2,759,1,0,759,0,0,0.4,NaN,1.21102557196115,1.21102557196115,750,0,0,incongruent,0,1641.23948716271,4768.63826203831
56,104,4,516,-0.5,0.5,-0.5,2,2,0.6,2,603,1,1,603,1,0,0.4,0.6,-0.168760860989237,-0.168760860989237,750,1,0,congruent,0.1,5866.71226126678,1859.18994460713
56,104,4,517,0.5,-0.5,-0.5,4,4,0.6,4,488,1,1,488,0,0,0.6,NaN,-1.18591111604882,-1.18591111604882,750,1,0,congruent,0,3326.62778948881,1254.19105310747
56,104,4,518,-0.5,-0.5,0,2,NaN,0.6,2,836,1,0,836,1,0,0.4,1,1.89207400360974,1.89207400360974,750,0,0,neutral,0.1,7680.95283082863,2994.25117469073
56,104,4,519,-0.5,-0.5,-0.5,3,3,0.6,3,480,1,1,480,0,0,0.6,1,-1.25666939466166,-1.25666939466166,750,1,0,congruent,0,9991.33477641664,1940.39690909074
56,104,4,520,0.5,-0.5,-0.5,2,2,0.6,2,645,1,1,645,0,0,0.6,NaN,0.202720101728175,0.202720101728175,750,1,0,congruent,0,6492.15594977295,3679.61920121206
56,104,4,521,0.5,-0.5,0,4,NaN,0.6,4,662,1,1,662,0,0,0.4,NaN,0.35308144378046,0.35308144378046,750,0,0,neutral,0,5222.30736653507,4378.80786715935
56,104,4,522,0.5,-0.5,-0.5,3,3,0.6,3,574,1,1,574,1,0,0.2,NaN,-0.425259620960783,-0.425259620960783,750,1,0,congruent,1,6535.02797873019,11297.182114764
56,104,4,523,0.5,-0.5,0,1,NaN,0.6,2,883,0,0,NaN,1,0,0.6,NaN,2.30777889046017,NaN,750,0,1,neutral,1,10388.9792058105,2653.96347205661
56,104,4,524,-0.5,0.5,-0.5,3,3,0.6,3,656,1,1,656,1,0,0.8,0.8,0.30001273482083,0.30001273482083,750,1,0,congruent,0.1,2739.57418552968,4607.56851939676
56,104,4,525,-0.5,0.5,0,2,NaN,0.6,2,687,1,1,687,1,0,1,0.8,0.574201064445586,0.574201064445586,750,0,0,neutral,0.1,1924.57015462133,1479.67017470341
56,104,4,526,0.5,-0.5,0.5,4,1,0.6,4,608,1,1,608,1,0,1.2,NaN,-0.124536936856212,-0.124536936856212,750,0,0,incongruent,1,7664.07988383229,4241.20021657513
56,104,4,527,-0.5,-0.5,0.5,1,2,0.6,1,601,1,1,601,1,0,1.6,0.8,-0.186450430642447,-0.186450430642447,750,0,0,incongruent,0.1,1217.08795889515,5155.21834575718
56,104,4,528,-0.5,0.5,-0.5,4,4,0.6,4,530,1,1,530,1,0,1.4,0.8,-0.814430153331405,-0.814430153331405,750,1,0,congruent,0.1,2923.7683921717,6082.53603061105
56,104,4,529,0.5,-0.5,0,3,NaN,0.8,3,420,1,1,420,1,0,1.2,NaN,-1.78735648425796,-1.78735648425796,750,0,0,neutral,1,3204.63892938053,459.59283814837
56,104,4,530,-0.5,0.5,-0.5,1,1,0.8,1,515,1,1,515,1,0,1.4,0.8,-0.947101925730481,-0.947101925730481,750,1,0,congruent,0.1,2557.06159697765,2872.24956792254
56,104,4,531,0.5,-0.5,-0.5,3,3,1,3,515,1,1,515,1,0,1.4,NaN,-0.947101925730481,-0.947101925730481,750,1,0,congruent,1,7528.79019766266,2177.5884097093
56,104,4,532,0.5,-0.5,0.5,2,4,1,2,587,1,1,587,1,0,1.4,NaN,-0.310277418214918,-0.310277418214918,750,0,0,incongruent,1,1923.63716750274,6440.98640115452
56,104,4,533,0.5,-0.5,0.5,3,2,1,3,686,1,1,686,1,0,1.6,NaN,0.565356279618981,0.565356279618981,750,0,0,incongruent,1,4614.54646799941,4850.76840312537
56,104,4,534,-0.5,-0.5,-0.5,4,4,1,4,638,1,1,638,1,0,1.8,0.8,0.140806607941939,0.140806607941939,750,1,0,congruent,0.1,15525.587120493,3051.98227857202
56,104,4,535,-0.5,-0.5,0.5,3,1,1,3,603,1,1,603,1,0,1.6,0.8,-0.168760860989237,-0.168760860989237,750,0,0,incongruent,0.1,2754.20475553079,5702.13038984981
56,104,4,536,-0.5,-0.5,0.5,1,3,1,1,451,1,1,451,1,0,1.6,0.8,-1.5131681546332,-1.5131681546332,750,0,0,incongruent,0.1,5036.94507351948,9611.72630943883
56,104,4,537,0.5,-0.5,-0.5,2,2,1,2,606,1,1,606,1,0,1.4,NaN,-0.142226506509422,-0.142226506509422,750,1,0,congruent,1,5170.941504071,2357.09402531326
56,104,4,538,-0.5,-0.5,-0.5,3,3,1,3,468,1,1,468,1,0,1.4,0.8,-1.36280681258092,-1.36280681258092,750,1,0,congruent,0.1,694.86626373456,2606.49088254294
56,104,4,539,-0.5,-0.5,0.5,4,2,1,4,681,1,1,681,1,0,1.2,1,0.521132355485956,0.521132355485956,750,0,0,incongruent,0.1,4621.03079144077,2517.03505121973
56,104,4,540,-0.5,0.5,-0.5,3,3,1,3,594,1,1,594,1,0,1.2,1,-0.248363924428682,-0.248363924428682,750,1,0,congruent,0.1,3610.06345539055,1850.73419196451
56,104,4,541,0.5,-0.5,-0.5,4,4,1,4,517,1,1,517,1,0,1.2,NaN,-0.929412356077271,-0.929412356077271,750,1,0,congruent,1,1368.0672004957,5486.18644693425
56,104,4,542,-0.5,0.5,-0.5,1,1,1,1,766,1,0,766,0,0,1.4,1,1.27293906574738,1.27293906574738,750,1,0,congruent,0,11929.2487098176,9835.60459969519
56,104,4,543,-0.5,-0.5,-0.5,4,4,0.8,4,927,1,0,927,1,0,1,1,2.6969494228308,2.6969494228308,750,1,0,congruent,0.1,3561.98825762137,2767.66250662143
56,104,4,544,0.5,-0.5,0.5,1,2,0.8,1,860,1,0,860,1,0,1,NaN,2.10434883944826,2.10434883944826,750,0,0,incongruent,1,2710.10081056329,6191.86212051462
56,104,4,545,-0.5,-0.5,0,2,NaN,0.8,2,570,1,1,570,1,0,1.2,1,-0.460638760267203,-0.460638760267203,750,0,0,neutral,0.1,3846.67510526393,4108.47765993828
56,104,4,546,0.5,0.5,-0.5,1,1,0.8,1,599,1,1,599,1,0,1.2,NaN,-0.204140000295657,-0.204140000295657,750,1,0,congruent,1,3767.15440848122,4998.97757264256
56,104,4,547,-0.5,0.5,0,2,NaN,0.8,2,605,1,1,605,1,0,1.2,0.8,-0.151071291336027,-0.151071291336027,750,0,0,neutral,0.1,4674.56393802478,4724.45984776918
56,104,4,548,-0.5,0.5,0.5,4,3,0.8,4,810,1,0,810,0,0,1.4,0.8,1.66210959811801,1.66210959811801,750,0,0,incongruent,0,5021.01742115645,965.304734336305
56,104,4,549,-0.5,0.5,-0.5,2,2,0.6,2,662,1,1,662,1,0,1.2,0.6,0.35308144378046,0.35308144378046,750,1,0,congruent,0.1,3224.66487843679,801.681825179187
56,104,4,550,-0.5,-0.5,-0.5,1,1,0.6,1,587,1,1,587,1,0,1,1,-0.310277418214918,-0.310277418214918,750,1,0,congruent,0.1,4569.67869547307,1795.3731968154
56,104,4,551,0.5,-0.5,0.5,4,3,0.6,4,686,1,1,686,1,0,1,NaN,0.565356279618981,0.565356279618981,750,0,0,incongruent,1,3734.55464230904,11651.7970814646
56,104,4,552,0.5,0.5,0,2,NaN,0.6,2,662,1,1,662,1,0,1,NaN,0.35308144378046,0.35308144378046,750,0,0,neutral,1,34803.6678776118,7715.97293192784
56,104,4,553,0.5,-0.5,0.5,3,2,0.8,3,698,1,1,698,0,0,1.2,NaN,0.671493697538242,0.671493697538242,750,0,0,incongruent,0,3525.96269337275,2931.48531977773
56,104,4,554,0.5,-0.5,-0.5,4,4,0.8,4,367,1,1,367,1,0,1.2,NaN,-2.25613008006803,-2.25613008006803,750,1,0,congruent,1,1116.50056740567,781.007058983867
56,104,4,555,-0.5,-0.5,-0.5,3,3,0.8,3,644,1,1,644,1,0,1.4,1,0.19387531690157,0.19387531690157,750,1,0,congruent,0.1,2640.4864242672,540.372478973783
56,104,4,556,0.5,-0.5,0,4,NaN,0.8,4,547,1,1,547,1,0,1.4,NaN,-0.664068811279119,-0.664068811279119,750,0,0,neutral,1,1689.33180953918,2791.11261610293
56,104,4,557,0.5,0.5,0.5,1,2,0.8,1,738,1,1,738,1,0,1.4,NaN,1.02528509060244,1.02528509060244,750,0,0,incongruent,1,3645.65099240559,4489.97645024265
56,104,4,558,-0.5,0.5,-0.5,4,4,0.8,4,474,1,1,474,1,0,1.4,0.6,-1.30973810362129,-1.30973810362129,750,1,0,congruent,0.1,3082.6906036808,1364.18400979677
56,104,4,559,-0.5,0.5,-0.5,2,2,0.8,2,604,1,1,604,1,0,1.6,0.6,-0.159916076162632,-0.159916076162632,750,1,0,congruent,0.1,1850.10771999721,1747.74479905314
56,104,4,560,-0.5,0.5,-0.5,4,4,1,4,520,1,1,520,1,0,1.4,0.8,-0.902878001597455,-0.902878001597455,750,1,0,congruent,0.1,639.147481687234,3706.59473333175
56,104,4,561,0.5,-0.5,0.5,3,2,1,3,568,1,1,568,1,0,1.4,NaN,-0.478328329920413,-0.478328329920413,750,0,0,incongruent,1,4427.5874484464,4391.74457467916
56,104,4,562,-0.5,0.5,0.5,2,4,1,2,698,1,1,698,1,0,1.4,0.8,0.671493697538242,0.671493697538242,750,0,0,incongruent,0.1,3993.6049324904,4169.73059348187
56,104,4,563,-0.5,0.5,0.5,1,3,1,1,567,1,1,567,1,0,1.2,1,-0.487173114747019,-0.487173114747019,750,0,0,incongruent,0.1,32183.5870145031,4880.84686763526
56,104,4,564,0.5,0.5,-0.5,4,4,1,4,523,1,1,523,1,0,1.2,NaN,-0.87634364711764,-0.87634364711764,750,1,0,congruent,1,7289.39364159841,2512.70705136951
56,104,4,565,-0.5,-0.5,0.5,2,1,1,1,807,0,0,NaN,1,0,1.4,1,1.63557524363819,NaN,750,1,0,incongruent,0.1,10188.1935307544,1727.52555952797
56,104,4,566,0.5,0.5,-0.5,3,3,1,3,570,1,1,570,1,0,1.4,NaN,-0.460638760267203,-0.460638760267203,750,1,0,congruent,1,2547.42842712005,7027.87415893511
56,104,4,567,0.5,-0.5,0.5,4,2,1,4,581,1,1,581,1,0,1.4,NaN,-0.363346127174548,-0.363346127174548,750,0,0,incongruent,1,5125.81897945868,2535.97034393685
56,104,4,568,0.5,-0.5,0,3,NaN,1,3,649,1,1,649,1,0,1.6,NaN,0.238099241034595,0.238099241034595,750,0,0,neutral,1,4073.85010222608,5609.42119609142
56,104,4,569,-0.5,-0.5,0.5,2,3,1,2,794,1,0,794,1,0,1.8,1,1.52059304089233,1.52059304089233,750,0,0,incongruent,0.1,16028.4028034261,7118.50663546868
56,104,4,570,-0.5,-0.5,0.5,3,4,1,4,689,0,1,NaN,1,0,1.6,1,0.591890634098796,NaN,750,1,0,incongruent,0.1,2749.13165429419,6780.79289384432
56,104,4,571,-0.5,-0.5,0,2,NaN,1,2,694,1,1,694,1,0,1.6,1,0.636114558231822,0.636114558231822,750,0,0,neutral,0.1,1679.58514439746,3834.63703715988
56,104,4,572,-0.5,-0.5,0.5,3,1,1,3,621,1,1,621,1,0,1.4,1,-0.00955473411034634,-0.00955473411034634,750,0,0,incongruent,0.1,2920.06704337802,5312.56754387897
56,104,4,573,-0.5,0.5,-0.5,2,2,1,2,619,1,1,619,1,0,1.2,1,-0.0272443037635564,-0.0272443037635564,750,1,0,congruent,0.1,3936.4251964003,3388.76921390568
56,104,4,574,0.5,0.5,-0.5,3,3,1,3,638,1,1,638,1,0,1,NaN,0.140806607941939,0.140806607941939,750,1,0,congruent,1,4482.2649834491,4509.52488446862
56,104,4,575,-0.5,-0.5,0,4,NaN,1,4,542,1,1,542,1,0,1.2,1,-0.708292735412145,-0.708292735412145,750,0,0,neutral,0.1,771.413574376653,2828.80064685726
56,104,4,576,0.5,-0.5,0.5,2,1,1,2,631,1,1,631,1,0,1.2,NaN,0.0788931141557041,0.0788931141557041,750,0,0,incongruent,1,3181.08737077845,2100.96320096899
56,104,4,577,-0.5,-0.5,0,3,NaN,1,3,604,1,1,604,1,0,1.4,1,-0.159916076162632,-0.159916076162632,750,0,0,neutral,0.1,5745.35432812214,5162.4662185921
56,104,4,578,0.5,-0.5,-0.5,4,4,1,4,453,1,1,453,1,0,1.4,NaN,-1.49547858497999,-1.49547858497999,750,1,0,congruent,1,2332.84773086901,1472.51744190494
56,104,4,579,0.5,0.5,-0.5,3,3,1,3,557,1,1,557,1,0,1.6,NaN,-0.575620963013069,-0.575620963013069,750,1,0,congruent,1,9304.56415140522,1167.24949952377
56,104,4,580,0.5,-0.5,-0.5,2,2,1,2,515,1,1,515,1,0,1.6,NaN,-0.947101925730481,-0.947101925730481,750,1,0,congruent,1,4874.67451445597,1638.45519795455
56,104,4,581,-0.5,-0.5,0,1,NaN,1,1,627,1,1,627,1,0,1.8,1,0.0435139748492839,0.0435139748492839,750,0,0,neutral,0.1,5778.38373602825,2139.38252895386
56,104,4,582,0.5,-0.5,0.5,3,1,1,3,664,1,1,664,1,0,1.6,NaN,0.37077101343367,0.37077101343367,750,0,0,incongruent,1,6034.25582798717,2891.86404284514
56,104,4,583,-0.5,-0.5,-0.5,4,4,1,4,707,1,1,707,1,0,1.8,1,0.751096760977687,0.751096760977687,750,1,0,congruent,0.1,4736.86589373704,4413.53648834762
56,104,4,584,-0.5,0.5,0,1,NaN,1,1,664,1,1,664,1,0,1.6,1,0.37077101343367,0.37077101343367,750,0,0,neutral,0.1,2467.96170240939,2238.57420881426
56,104,4,585,-0.5,-0.5,-0.5,2,2,1,2,682,1,1,682,1,0,1.4,1,0.529977140312561,0.529977140312561,750,1,0,congruent,0.1,3642.14458932024,1547.75942755346
56,104,4,586,-0.5,0.5,-0.5,4,4,1,4,481,1,1,481,1,0,1.2,1,-1.24782460983505,-1.24782460983505,750,1,0,congruent,0.1,1201.57150709135,1744.80796216316
56,104,4,587,0.5,-0.5,0,2,NaN,1,2,735,1,1,735,1,0,1.2,NaN,0.998750736122628,0.998750736122628,750,0,0,neutral,1,32580.15263394,2105.79624187374
56,104,4,588,-0.5,0.5,0.5,4,1,1,4,790,1,0,790,0,0,1.2,1,1.48521390158591,1.48521390158591,750,0,0,incongruent,0,2840.16926558434,6686.62841548278
56,104,4,589,-0.5,0.5,0.5,2,3,0.8,2,815,1,0,815,0,0,1,0.8,1.70633352225103,1.70633352225103,750,0,0,incongruent,0,7515.86872313531,7718.98978306539
56,104,4,590,0.5,0.5,-0.5,1,1,0.6,1,597,1,1,597,1,0,0.8,NaN,-0.221829569948867,-0.221829569948867,750,1,0,congruent,1,4845.88311229907,2027.81811993753
56,104,4,591,0.5,0.5,0.5,3,2,0.6,3,666,1,1,666,1,0,1,NaN,0.38846058308688,0.38846058308688,750,0,0,incongruent,1,4648.00255166093,5978.75511226708
56,104,4,592,0.5,-0.5,0.5,4,3,0.6,4,669,1,1,669,0,0,1.2,NaN,0.414994937566696,0.414994937566696,750,0,0,incongruent,0,4322.81775340506,1565.38120926682
56,104,4,593,-0.5,-0.5,0.5,1,4,0.6,1,767,1,0,767,1,0,0.8,1,1.28178385057399,1.28178385057399,750,0,0,incongruent,0.1,2625.04380899426,3892.1163183968
56,104,4,594,-0.5,0.5,0.5,3,1,0.6,3,412,1,1,412,1,0,1,0.6,-1.8581147628708,-1.8581147628708,750,0,0,incongruent,0.1,5071.6934143443,3209.9834655871
56,104,4,595,-0.5,-0.5,0,1,NaN,0.6,1,732,1,1,732,0,0,1.2,1,0.972216381642813,0.972216381642813,750,0,0,neutral,0,8847.08239907484,3431.37715638587
56,104,4,596,0.5,0.5,0.5,4,1,0.6,4,590,1,1,590,1,0,0.8,NaN,-0.283743063735103,-0.283743063735103,750,0,0,incongruent,1,3867.50161384971,7362.96205756668
56,104,4,597,-0.5,0.5,-0.5,3,3,0.8,3,726,1,1,726,1,0,0.8,0.6,0.919147672683183,0.919147672683183,750,1,0,congruent,0.1,3771.51139151697,11730.397210169
56,104,4,598,0.5,0.5,0,4,NaN,1,4,626,1,1,626,1,0,1,NaN,0.0346691900226789,0.0346691900226789,750,0,0,neutral,1,7352.77962863342,1844.10496843241
56,104,4,599,-0.5,-0.5,0.5,1,2,1,1,956,1,0,956,1,0,1.2,0.8,2.95344818280234,2.95344818280234,750,0,0,incongruent,0.1,1206.00157794542,2876.45046535317
56,104,4,600,-0.5,0.5,0.5,2,1,1,2,450,1,1,450,1,0,1.2,0.6,-1.52201293945981,-1.52201293945981,750,0,0,incongruent,0.1,1994.44758747068,2457.72760161381
