subid,vers,block,trial,rewlvl,efflvl,congruency,targetresp,distractorresp,rollingefflvl,resp,rt,acc,fast,accrt,isrewarded,ismiss,runavgrrgen,runavgrrcond,zrt,acczrt,rtthreshold,isdisterror,isranderror,congruence,feedback,fcz_resp_theta,fcz_resp_theta_baseline
57,104,1,1,0.5,-0.5,0.5,3,1,0.4,2,975,0,0,NaN,0,0,0,NaN,2.16930025560904,NaN,750,0,1,incongruent,0,2838.88335478131,6885.03669193283
57,104,1,2,-0.5,-0.5,0,4,NaN,0.4,4,913,1,0,913,0,0,0,0,1.77472961917666,1.77472961917666,750,0,0,neutral,0,2536.73423378108,12044.6428530136
57,104,1,3,0.5,-0.5,-0.5,2,2,0.4,2,835,1,0,835,1,0,0,NaN,1.27833430237462,1.27833430237462,750,1,0,congruent,1,2036.72188375576,1821.377917283
57,104,1,4,0.5,-0.5,0,3,NaN,0.4,4,607,0,1,NaN,0,0,0.4,NaN,-0.172667392892854,NaN,750,0,1,neutral,0,4869.36135883806,1911.33779019549
57,104,1,5,-0.5,-0.5,-0.5,1,1,0.4,1,480,1,1,480,0,0,0.4,0,-0.980900793326932,-0.980900793326932,750,1,0,congruent,0,3167.42628886576,5958.71754959458
57,104,1,7,0.5,-0.5,0,1,NaN,0.3,1,702,1,1,702,0,0,0.4,NaN,0.431916646801928,0.431916646801928,750,0,0,neutral,0,1880.66369036758,3893.74847829415
57,104,1,8,0.5,-0.5,-0.5,2,2,0.3,2,780,1,0,780,0,0,0.4,NaN,0.92831196360396,0.92831196360396,750,1,0,congruent,0,4734.7538042517,4619.65072695251
57,104,1,11,-0.5,-0.5,0,4,NaN,0.3,4,960,1,0,960,0,0,0,0,2.0738396177625,2.0738396177625,750,0,0,neutral,0,16900.1271850153,3212.07095333679
57,104,1,13,-0.5,0.5,0,1,NaN,0.5,1,601,1,1,601,1,0,0.4,0,-0.210851648031472,-0.210851648031472,750,0,0,neutral,0.1,1550.40120308162,2807.95762203158
57,104,1,14,0.5,0.5,0.5,3,1,0.6,4,927,0,0,NaN,0,0,0.6,NaN,1.8638262145001,NaN,750,0,1,incongruent,0,8337.22269007556,4997.56995830355
57,104,1,15,-0.5,0.5,0,1,NaN,0.5,1,490,1,1,490,1,0,0.6,0.2,-0.917260368095902,-0.917260368095902,750,0,0,neutral,0.1,1330.83503726285,6334.82751724397
57,104,1,16,0.5,-0.5,0.5,4,2,0.6,4,811,1,0,811,0,0,0.8,NaN,1.12559728182015,1.12559728182015,750,0,0,incongruent,0,406.830552213247,9698.74530915705
57,104,1,17,0.5,-0.5,-0.5,3,3,0.6,3,889,1,0,889,0,0,0.8,NaN,1.62199259862218,1.62199259862218,750,1,0,congruent,0,1286.33939916016,1693.64089518686
57,104,1,18,0.5,-0.5,0,1,NaN,0.6,1,453,1,1,453,0,0,0.4,NaN,-1.15272994145071,-1.15272994145071,750,0,0,neutral,0,4457.22832635353,2217.28346758357
57,104,1,19,0.5,0.5,-0.5,4,4,0.6,4,732,1,1,732,1,0,0.2,NaN,0.622837922495017,0.622837922495017,750,1,0,congruent,1,9080.20743233393,3302.32752643362
57,104,1,20,-0.5,0.5,0.5,2,1,0.8,2,697,1,1,697,1,0,0.6,0.4,0.400096434186413,0.400096434186413,750,0,0,incongruent,0.1,5894.15465782947,1639.27532436722
57,104,1,21,0.5,0.5,0,1,NaN,0.8,1,669,1,1,669,1,0,0.6,NaN,0.22190324353953,0.22190324353953,750,0,0,neutral,1,982.389307247503,1780.6330859737
57,104,1,22,-0.5,-0.5,0.5,4,3,0.8,4,697,1,1,697,1,0,1,0,0.400096434186413,0.400096434186413,750,0,0,incongruent,0.1,986.064519889566,2880.50831422403
57,104,1,23,-0.5,0.5,0.5,1,2,0.8,1,724,1,1,724,1,0,1.2,0.6,0.571925582310194,0.571925582310194,750,0,0,incongruent,0.1,4727.9412553841,6379.86833042619
57,104,1,24,-0.5,-0.5,-0.5,4,4,1,4,540,1,1,540,1,0,1.4,0.2,-0.599058241940753,-0.599058241940753,750,1,0,congruent,0.1,3117.48435774959,2355.44878122092
57,104,1,26,0.5,0.5,0.5,1,4,0.8,1,629,1,1,629,1,0,1,NaN,-0.0326584573845888,-0.0326584573845888,750,0,0,incongruent,1,3294.92805280572,6107.58629018501
57,104,1,27,0.5,-0.5,-0.5,3,3,0.8,3,830,1,0,830,1,0,1,NaN,1.24651408975911,1.24651408975911,750,1,0,congruent,1,2471.80035584932,2203.2395229601
57,104,1,29,0.5,-0.5,0.5,1,3,0.8,1,589,1,1,589,1,0,1.2,NaN,-0.287220158308708,-0.287220158308708,750,0,0,incongruent,1,8232.70280682932,6597.09138404094
57,104,1,30,-0.5,-0.5,-0.5,4,4,0.8,1,714,0,1,NaN,1,0,1.4,0.6,0.508285157079164,NaN,750,0,1,congruent,0.1,2352.21691582867,7530.06246753918
57,104,1,31,0.5,0.5,-0.5,1,1,0.8,1,470,1,1,470,1,0,1.6,NaN,-1.04454121855796,-1.04454121855796,750,1,0,congruent,1,446.780366582338,1650.32624048603
57,104,1,32,-0.5,-0.5,-0.5,4,4,0.8,4,521,1,1,521,1,0,1.6,0.8,-0.71997504987971,-0.71997504987971,750,1,0,congruent,0.1,1432.50393593155,2006.23217096044
57,104,1,33,0.5,0.5,0,3,NaN,0.8,3,742,1,1,742,1,0,1.4,NaN,0.686478347726047,0.686478347726047,750,0,0,neutral,1,16216.2530868163,17005.8838768705
57,104,1,34,0.5,-0.5,-0.5,2,2,0.8,2,817,1,0,817,1,0,1.6,NaN,1.16378153695877,1.16378153695877,750,1,0,congruent,1,3943.44784407741,5193.15884833679
57,104,1,35,0.5,0.5,-0.5,1,1,0.8,2,469,0,1,NaN,0,0,1.6,NaN,-1.05090526108106,NaN,750,0,1,congruent,0,25026.7784584916,3981.81886369168
57,104,1,36,-0.5,0.5,0.5,3,4,0.6,3,892,1,0,892,0,0,1.4,0.8,1.64108472619149,1.64108472619149,750,0,0,incongruent,0,3363.64578907075,12306.6558242857
57,104,1,37,-0.5,0.5,0.5,4,1,0.6,2,801,0,0,NaN,0,0,1,0.8,1.06195685658912,NaN,750,0,1,incongruent,0,6407.9469352558,3675.7458936805
57,104,1,38,0.5,0.5,0.5,1,2,0.4,1,614,1,1,614,1,0,0.8,NaN,-0.128119095231133,-0.128119095231133,750,0,0,incongruent,1,6427.51297346166,4478.84469610754
57,104,1,39,-0.5,0.5,-0.5,3,3,0.4,4,901,0,0,NaN,0,0,0.8,0.6,1.69836110889942,NaN,750,0,1,congruent,0,5115.68735669608,2215.40903107835
57,104,1,40,-0.5,-0.5,-0.5,4,4,0.2,3,995,0,0,NaN,1,0,0.4,1,2.2965811060711,NaN,750,0,1,congruent,0.1,11787.4109807151,1767.26047958041
57,104,1,43,0.5,-0.5,0.5,4,3,0.2,2,906,0,0,NaN,0,0,0.6,NaN,1.73018132151493,NaN,750,0,1,incongruent,0,5839.27766114998,3206.3204115879
57,104,1,44,0.5,-0.5,0.5,2,4,0.2,2,770,1,0,770,0,0,0.2,NaN,0.86467153837293,0.86467153837293,750,0,0,incongruent,0,652.17974183917,3732.86899924274
57,104,1,45,-0.5,-0.5,-0.5,3,3,0.2,3,871,1,0,871,0,0,0.2,1,1.50743983320633,1.50743983320633,750,1,0,congruent,0,1960.74083395959,9263.58643048059
57,104,1,46,0.5,-0.5,0.5,1,4,0.2,1,754,1,0,754,0,0,0,NaN,0.762846858003283,0.762846858003283,750,0,0,incongruent,0,1866.20637303574,4548.08487047892
57,104,1,47,-0.5,0.5,0,3,NaN,0.2,2,712,0,1,NaN,0,0,0,0.2,0.495557072032958,NaN,750,0,1,neutral,0,9357.38868313628,2433.24199371291
57,104,1,48,0.5,0.5,-0.5,2,2,0.2,1,525,0,1,NaN,0,0,0,NaN,-0.694518879787298,NaN,750,0,1,congruent,0,1952.94152016921,1186.03089021897
57,104,1,49,-0.5,0.5,-0.5,4,4,0.2,3,614,0,1,NaN,0,0,0,0,-0.128119095231133,NaN,750,0,1,congruent,0,14032.5882838458,3596.80474850911
57,104,1,50,0.5,-0.5,0,2,NaN,0,2,850,1,0,850,0,0,0,NaN,1.37379494022117,1.37379494022117,750,0,0,neutral,0,1995.97301892939,2208.12029776702
57,104,1,51,-0.5,0.5,-0.5,1,1,0,1,391,1,1,391,1,0,0,0,-1.5473005778831,-1.5473005778831,750,1,0,congruent,0.1,4860.51883281958,3099.05034284126
57,104,1,52,0.5,0.5,-0.5,4,4,0.2,3,738,0,1,NaN,0,0,0.2,NaN,0.661022177633635,NaN,750,0,1,congruent,0,6286.30096972884,5226.10475388782
57,104,1,53,0.5,0.5,0.5,1,2,0.2,1,691,1,1,691,1,0,0.2,NaN,0.361912179047796,0.361912179047796,750,0,0,incongruent,1,4965.74528789204,1513.09203062854
57,104,1,54,-0.5,-0.5,0.5,3,1,0.4,2,799,0,0,NaN,1,0,0.6,0.8,1.04922877154292,NaN,750,0,1,incongruent,0.1,12081.9064372337,3223.45287120701
57,104,1,55,0.5,-0.5,-0.5,4,4,0.4,4,659,1,1,659,0,0,0.8,NaN,0.1582628183085,0.1582628183085,750,1,0,congruent,0,2443.12869067074,5792.23606815292
57,104,1,56,0.5,-0.5,0,1,NaN,0.4,1,636,1,1,636,0,0,0.8,NaN,0.011889840277132,0.011889840277132,750,0,0,neutral,0,6484.54903339619,5354.29816429567
57,104,1,57,0.5,0.5,0.5,2,1,0.4,2,866,1,0,866,0,0,0.6,NaN,1.47561962059082,1.47561962059082,750,0,0,incongruent,0,4065.94045799034,10001.400059625
57,104,1,58,-0.5,-0.5,0,4,NaN,0.4,4,944,1,0,944,1,0,0.6,0.8,1.97201493739285,1.97201493739285,750,0,0,neutral,0.1,4038.04275345315,13426.4625097711
57,104,1,59,0.5,0.5,-0.5,2,2,0.4,2,541,1,1,541,1,0,0.4,NaN,-0.59269419941765,-0.59269419941765,750,1,0,congruent,1,3740.14841171997,5400.72553319735
57,104,1,60,0.5,0.5,-0.5,3,3,0.6,3,873,1,0,873,0,0,0.6,NaN,1.52016791825254,1.52016791825254,750,1,0,congruent,0,26401.4944806459,5790.0608913193
57,104,1,61,-0.5,0.5,0.5,2,4,0.4,4,724,0,1,NaN,0,0,0.6,0.2,0.571925582310194,NaN,750,1,0,incongruent,0,2613.86861810296,4220.61754164624
57,104,1,64,-0.5,0.5,-0.5,1,1,0.2,2,676,0,1,NaN,0,0,0.4,0.2,0.266451541201251,NaN,750,0,1,congruent,0,8388.70044778576,2806.70357287277
57,104,1,65,0.5,0.5,-0.5,2,2,0,2,702,1,1,702,1,0,0,NaN,0.431916646801928,0.431916646801928,750,1,0,congruent,1,5655.7106233612,4500.71899026664
57,104,1,66,0.5,-0.5,0.5,4,3,0.2,4,789,1,0,789,0,0,0.4,NaN,0.985588346311887,0.985588346311887,750,0,0,incongruent,0,2016.68995718562,6346.22988961825
57,104,1,67,0.5,0.5,0.5,2,1,0.2,2,809,1,0,809,0,0,0.4,NaN,1.11286919677395,1.11286919677395,750,0,0,incongruent,0,3001.15284740742,4256.53608665079
57,104,1,69,0.5,0.5,0.5,3,2,0.2,1,707,0,1,NaN,0,0,0.4,NaN,0.463736859417443,NaN,750,0,1,incongruent,0,10225.299058632,6148.96475017247
57,104,1,70,0.5,-0.5,0,2,NaN,0.2,2,862,1,0,862,0,0,0.4,NaN,1.4501634504984,1.4501634504984,750,0,0,neutral,0,4206.10800786368,3188.83787351727
57,104,1,71,0.5,-0.5,0.5,1,4,0.2,1,685,1,1,685,0,0,0,NaN,0.323727923909178,0.323727923909178,750,0,0,incongruent,0,3916.43199640485,2595.48270771991
57,104,1,72,-0.5,0.5,-0.5,3,3,0.2,3,833,1,0,833,0,0,0,0.2,1.26560621732842,1.26560621732842,750,1,0,congruent,0,2239.62688865595,8154.28997226456
57,104,1,73,0.5,0.5,0,1,NaN,0.2,1,539,1,1,539,1,0,0,NaN,-0.605422284463856,-0.605422284463856,750,0,0,neutral,1,2940.74508162943,663.986668933324
57,104,1,74,0.5,0.5,0.5,4,1,0.4,3,802,0,0,NaN,0,0,0.4,NaN,1.06832089911223,NaN,750,0,1,incongruent,0,6785.26449757171,4086.7620752019
57,104,1,76,0.5,-0.5,-0.5,2,2,0.2,2,937,1,0,937,0,0,0.4,NaN,1.92746663973113,1.92746663973113,750,1,0,congruent,0,4950.1578084622,1243.64575582836
57,104,1,77,-0.5,0.5,0,1,NaN,0.2,1,530,1,1,530,1,0,0.4,0,-0.662698667171783,-0.662698667171783,750,0,0,neutral,0.1,4295.4918469727,729.097749656864
57,104,1,78,0.5,0.5,0.5,4,2,0.4,3,739,0,1,NaN,0,0,0.6,NaN,0.667386220156738,NaN,750,0,1,incongruent,0,3623.86087047285,4194.79454828218
57,104,1,79,0.5,-0.5,0.5,2,3,0.4,2,935,1,0,935,1,0,0.2,NaN,1.91473855468492,1.91473855468492,750,0,0,incongruent,1,6299.13516408428,1393.86040014517
57,104,1,80,-0.5,-0.5,0.5,1,2,0.4,1,540,1,1,540,0,0,0.6,0.8,-0.599058241940753,-0.599058241940753,750,0,0,incongruent,0,3504.09004490127,2418.00217369109
57,104,1,81,0.5,-0.5,0.5,3,1,0.4,3,682,1,1,682,0,0,0.6,NaN,0.304635796339869,0.304635796339869,750,0,0,incongruent,0,2650.00564891161,3033.93525047776
57,104,1,82,0.5,-0.5,-0.5,4,4,0.4,4,603,1,1,603,1,0,0.6,NaN,-0.198123562985266,-0.198123562985266,750,1,0,congruent,1,5123.27715320812,1130.52870792284
57,104,1,83,0.5,-0.5,-0.5,2,2,0.4,2,611,1,1,611,1,0,0.8,NaN,-0.147211222800442,-0.147211222800442,750,1,0,congruent,1,4775.20781578261,2152.21698717131
57,104,1,84,0.5,-0.5,-0.5,3,3,0.4,3,962,1,0,962,0,0,1.2,NaN,2.0865677028087,2.0865677028087,750,1,0,congruent,0,2111.07699923388,2712.11085740201
57,104,1,86,-0.5,-0.5,0.5,2,1,0.4,1,517,0,1,NaN,0,0,0.8,0.4,-0.745431219972122,NaN,750,1,0,incongruent,0,6872.48442100023,2043.62567129762
57,104,1,87,0.5,0.5,0.5,1,2,0.4,1,651,1,1,651,1,0,0.8,NaN,0.107350478123677,0.107350478123677,750,0,0,incongruent,1,3285.23111426883,7567.27066387324
57,104,1,88,0.5,0.5,0.5,4,3,0.4,4,987,1,0,987,0,0,0.8,NaN,2.24566876588628,2.24566876588628,750,0,0,incongruent,0,1392.98804647149,3940.72161297086
57,104,1,89,0.5,0.5,0.5,1,4,0.4,1,510,1,1,510,1,0,0.4,NaN,-0.789979517633843,-0.789979517633843,750,0,0,incongruent,1,1719.73179356925,1139.12891339092
57,104,1,90,0.5,-0.5,0,3,NaN,0.6,2,654,0,1,NaN,0,0,0.8,NaN,0.126442605692986,NaN,750,0,1,neutral,0,13891.8357193998,2384.38399147731
57,104,1,91,0.5,0.5,0.5,2,1,0.6,2,829,1,0,829,0,0,0.8,NaN,1.24015004723601,1.24015004723601,750,0,0,incongruent,0,10531.7455740656,16615.0246850439
57,104,1,92,-0.5,0.5,0,4,NaN,0.4,4,588,1,1,588,1,0,0.8,0.2,-0.293584200831811,-0.293584200831811,750,0,0,neutral,0.1,4680.82316410896,3337.46333648234
57,104,1,93,-0.5,0.5,-0.5,3,3,0.6,3,540,1,1,540,1,0,0.6,0.4,-0.599058241940753,-0.599058241940753,750,1,0,congruent,0.1,1592.15978496872,5939.4351316471
57,104,1,94,0.5,0.5,0,4,NaN,0.6,4,677,1,1,677,1,0,0.8,NaN,0.272815583724354,0.272815583724354,750,0,0,neutral,1,4394.80968818084,3421.89167133447
57,104,1,95,-0.5,0.5,-0.5,1,1,0.8,1,451,1,1,451,1,0,0.8,0.6,-1.16545802649692,-1.16545802649692,750,1,0,congruent,0.1,6665.0076349089,1619.05042320898
57,104,1,96,-0.5,0.5,0.5,4,3,0.8,2,937,0,0,NaN,0,0,1,0.8,1.92746663973113,NaN,750,0,1,incongruent,0,3188.32339275617,8103.13287507241
57,104,1,97,0.5,0.5,0,1,NaN,0.8,1,500,1,1,500,1,0,1,NaN,-0.853619942864872,-0.853619942864872,750,0,0,neutral,1,4434.40714971002,3786.76106299701
57,104,1,98,0.5,-0.5,-0.5,3,3,0.8,3,749,1,1,749,1,0,1.2,NaN,0.731026645387768,0.731026645387768,750,1,0,congruent,1,509.898805866171,1595.5751033976
57,104,1,99,0.5,0.5,0,4,NaN,0.8,2,680,0,1,NaN,0,0,1.4,NaN,0.291907711293663,NaN,750,0,1,neutral,0,2475.38673294809,3821.35007805015
57,104,1,100,-0.5,-0.5,-0.5,2,2,0.6,2,726,1,1,726,0,0,1,0.4,0.5846536673564,0.5846536673564,750,1,0,congruent,0,6303.84386960262,12512.14040725
57,104,1,101,0.5,0.5,0.5,4,3,0.6,3,665,0,1,NaN,0,0,0.8,NaN,0.196447073447118,NaN,750,1,0,incongruent,0,4093.29540228387,5353.91790922981
57,104,1,102,-0.5,-0.5,-0.5,1,1,0.4,1,567,1,1,567,0,0,0.8,0.2,-0.427229093816973,-0.427229093816973,750,1,0,congruent,0,6134.3978973984,2195.69813560964
57,104,1,103,0.5,0.5,0,3,NaN,0.4,4,608,0,1,NaN,0,0,0.4,NaN,-0.166303350369751,NaN,750,0,1,neutral,0,2401.54594552218,10791.3862953233
57,104,1,104,0.5,-0.5,-0.5,4,4,0.2,3,942,0,0,NaN,1,0,0,NaN,1.95928685234664,NaN,750,0,1,congruent,1,2783.79682670992,1712.0826701168
57,104,1,105,-0.5,0.5,0.5,3,1,0.2,4,722,0,1,NaN,0,0,0.4,0.8,0.559197497263988,NaN,750,0,1,incongruent,0,5047.08514008465,2953.36527823603
57,104,1,107,-0.5,-0.5,0.5,4,1,0,4,999,1,0,999,0,0,0.4,0,2.32203727616351,2.32203727616351,750,0,0,incongruent,0,3728.62918075916,1421.19247091998
57,104,1,108,-0.5,0.5,0.5,3,2,0,3,930,1,0,930,0,0,0.4,0.6,1.88291834206941,1.88291834206941,750,0,0,incongruent,0,637.409907172199,3355.33742074882
57,104,1,109,-0.5,-0.5,0,4,NaN,0,4,770,1,0,770,0,0,0.4,0,0.86467153837293,0.86467153837293,750,0,0,neutral,0,3924.20136178462,4425.55560973325
57,104,1,110,-0.5,0.5,-0.5,1,1,0,1,442,1,1,442,1,0,0,0.4,-1.22273440920484,-1.22273440920484,750,1,0,congruent,0.1,2882.70819462785,1869.22129353326
57,104,1,111,0.5,0.5,-0.5,2,2,0.2,2,635,1,1,635,1,0,0.2,NaN,0.00552579775402902,0.00552579775402902,750,1,0,congruent,1,6299.73784319135,2660.82526987092
57,104,1,112,0.5,0.5,0.5,3,1,0.4,4,588,0,1,NaN,0,0,0.6,NaN,-0.293584200831811,NaN,750,0,1,incongruent,0,2596.48383810316,1822.93169380062
57,104,1,113,-0.5,-0.5,0.5,4,3,0.4,4,567,1,1,567,0,0,0.6,0,-0.427229093816973,-0.427229093816973,750,0,0,incongruent,0,4827.97617307325,4368.63826199329
57,104,1,114,-0.5,-0.5,0,3,NaN,0.4,4,685,0,1,NaN,1,0,0.6,0,0.323727923909178,NaN,750,0,1,neutral,0.1,6440.85914860842,9619.03418407542
57,104,1,115,-0.5,-0.5,-0.5,2,2,0.4,2,756,1,0,756,0,0,0.8,0.2,0.775574943049489,0.775574943049489,750,1,0,congruent,0,6109.88410496343,3041.10179040136
57,104,1,116,-0.5,0.5,0,3,NaN,0.4,3,822,1,0,822,0,0,0.6,0.4,1.19560174957428,1.19560174957428,750,0,0,neutral,0,11160.0606429978,5626.22294103755
57,104,1,117,0.5,0.5,-0.5,2,2,0.4,2,654,1,1,654,1,0,0.2,NaN,0.126442605692986,0.126442605692986,750,1,0,congruent,1,7423.3717827971,4935.19455615488
57,104,1,118,-0.5,-0.5,-0.5,3,3,0.6,3,771,1,0,771,0,0,0.6,0.2,0.871035580896033,0.871035580896033,750,1,0,congruent,0,1901.38845696576,14889.3558655642
57,104,1,119,0.5,0.5,0.5,1,4,0.6,1,763,1,0,763,0,0,0.6,NaN,0.82012324071121,0.82012324071121,750,0,0,incongruent,0,3081.23825694047,1304.49114203865
57,104,1,120,-0.5,0.5,0,3,NaN,0.4,3,758,1,0,758,0,0,0.4,0.2,0.788303028095695,0.788303028095695,750,0,0,neutral,0,6589.64169551841,8970.83426336178
57,104,1,121,-0.5,-0.5,-0.5,4,4,0.2,3,596,0,1,NaN,0,0,0.4,0.2,-0.242671860646987,NaN,750,0,1,congruent,0,3991.03161598914,1047.16185519832
57,104,1,123,-0.5,0.5,0,4,NaN,0.4,4,740,1,1,740,1,0,0.4,0.2,0.673750262679841,0.673750262679841,750,0,0,neutral,0.1,5496.63442907976,4463.53699393399
57,104,1,124,0.5,-0.5,-0.5,2,2,0.6,2,635,1,1,635,1,0,0.6,NaN,0.00552579775402902,0.00552579775402902,750,1,0,congruent,1,1462.41326819699,786.470985327885
57,104,1,125,-0.5,0.5,0.5,3,1,0.6,3,857,1,0,857,0,0,1,0.4,1.41834323788289,1.41834323788289,750,0,0,incongruent,0,7018.90312910157,7854.1321853506
57,104,1,127,-0.5,0.5,-0.5,2,2,0.6,2,584,1,1,584,1,0,1.4,0.4,-0.319040370924223,-0.319040370924223,750,1,0,congruent,0.1,8235.24876735168,3722.58526068296
57,104,1,128,-0.5,-0.5,0.5,1,4,0.8,1,618,1,1,618,1,0,1.2,0.2,-0.102662925138722,-0.102662925138722,750,0,0,incongruent,0.1,2411.44438316271,440.594441881148
57,104,1,129,0.5,0.5,0,4,NaN,0.8,3,722,0,1,NaN,0,0,1.2,NaN,0.559197497263988,NaN,750,0,1,neutral,0,12210.5188779214,2795.70066265599
57,104,1,130,0.5,0.5,0.5,2,4,0.6,4,795,0,0,NaN,0,0,0.8,NaN,1.0237726014505,NaN,750,1,0,incongruent,0,6501.28959198734,1866.0354096799
57,104,1,131,-0.5,-0.5,0,1,NaN,0.4,1,460,1,1,460,1,0,0.8,0.4,-1.10818164378899,-1.10818164378899,750,0,0,neutral,0.1,2170.5837781038,3540.73061455553
57,104,1,132,-0.5,-0.5,0.5,4,2,0.4,2,627,0,1,NaN,0,0,0.6,0.4,-0.0453865424307948,NaN,750,1,0,incongruent,0,8912.81511667274,4783.17752566341
57,104,1,133,-0.5,0.5,0,2,NaN,0.4,2,699,1,1,699,1,0,0.4,0.4,0.412824519232619,0.412824519232619,750,0,0,neutral,0.1,8236.87414879832,15551.9845206701
57,104,1,134,-0.5,-0.5,-0.5,4,4,0.6,2,976,0,0,NaN,0,0,0.4,0.4,2.17566429813214,NaN,750,0,1,congruent,0,2913.77823551076,4934.83753727554
57,104,1,135,0.5,0.5,-0.5,1,1,0.6,1,543,1,1,543,1,0,0.4,NaN,-0.579966114371445,-0.579966114371445,750,1,0,congruent,1,2293.43275665407,640.129744499167
57,104,1,136,-0.5,0.5,0.5,3,4,0.6,3,856,1,0,856,0,0,0.8,0.6,1.41197919535979,1.41197919535979,750,0,0,incongruent,0,2504.70779773805,3014.69802542722
57,104,1,137,-0.5,-0.5,0.5,4,1,0.4,4,931,1,0,931,0,0,0.6,0.4,1.88928238459251,1.88928238459251,750,0,0,incongruent,0,1459.91882911563,4954.24623349924
57,104,1,138,-0.5,-0.5,0.5,1,3,0.4,1,834,1,0,834,0,0,0.6,0.4,1.27197025985152,1.27197025985152,750,0,0,incongruent,0,20281.9225741821,8738.0448308385
57,104,1,139,0.5,0.5,0,2,NaN,0.4,2,687,1,1,687,1,0,0.4,NaN,0.336456008955384,0.336456008955384,750,0,0,neutral,1,6351.65676260214,14882.6481119551
57,104,1,140,-0.5,0.5,-0.5,4,4,0.6,4,616,1,1,616,1,0,0.8,0.6,-0.115391010184927,-0.115391010184927,750,1,0,congruent,0.1,8663.61544006712,3269.17389448907
57,104,1,141,-0.5,-0.5,0,3,NaN,0.8,3,991,1,0,991,1,0,0.6,0.2,2.27112493597869,2.27112493597869,750,0,0,neutral,0.1,4564.05242691835,3153.14641231458
57,104,1,142,-0.5,-0.5,-0.5,4,4,0.8,4,739,1,1,739,1,0,0.8,0.2,0.667386220156738,0.667386220156738,750,1,0,congruent,0.1,11143.8512652852,2930.07337611994
57,104,1,143,0.5,0.5,-0.5,2,2,0.8,2,658,1,1,658,1,0,1,NaN,0.151898775785397,0.151898775785397,750,1,0,congruent,1,10626.6028033621,3065.11572379818
57,104,1,144,0.5,0.5,0.5,4,3,0.8,3,908,0,0,NaN,0,0,1.4,NaN,1.74290940656114,NaN,750,1,0,incongruent,0,11642.4218574327,9765.9883569299
57,104,1,145,0.5,0.5,0,1,NaN,0.6,1,543,1,1,543,1,0,1,NaN,-0.579966114371445,-0.579966114371445,750,0,0,neutral,1,3040.13967115484,1949.60210918334
57,104,1,146,0.5,0.5,-0.5,2,2,0.8,2,664,1,1,664,1,0,1.2,NaN,0.190083030924015,0.190083030924015,750,1,0,congruent,1,1158.89469215982,7915.89447870945
57,104,1,147,0.5,-0.5,0.5,1,3,0.8,1,787,1,0,787,1,0,1.4,NaN,0.972860261265681,0.972860261265681,750,0,0,incongruent,1,2201.99362378304,1892.54425121184
57,104,1,148,-0.5,-0.5,0,4,NaN,0.8,4,859,1,0,859,1,0,1.6,0.4,1.4310713229291,1.4310713229291,750,0,0,neutral,0.1,1811.14226101838,8876.84261739073
57,104,1,149,-0.5,-0.5,0.5,3,2,0.8,2,795,0,0,NaN,1,0,1.4,0.6,1.0237726014505,NaN,750,1,0,incongruent,0.1,4903.31808650256,2705.39260838196
57,104,1,150,-0.5,-0.5,-0.5,4,4,0.8,4,748,1,1,748,1,0,1.6,0.8,0.724662602864665,0.724662602864665,750,1,0,congruent,0.1,3800.6012002414,1911.70234738015
57,104,2,151,0.5,-0.5,-0.5,2,2,0.8,2,719,1,1,719,1,0,1.4,NaN,0.540105369694679,0.540105369694679,750,1,0,congruent,1,1531.06327236659,2402.67616611994
57,104,2,152,0.5,0.5,0.5,1,4,0.8,1,620,1,1,620,1,0,1.4,NaN,-0.0899348400925156,-0.0899348400925156,750,0,0,incongruent,1,5860.14292913891,4848.62631054699
57,104,2,153,-0.5,-0.5,0,4,NaN,0.8,4,625,1,1,625,1,0,1.4,1,-0.0581146274770007,-0.0581146274770007,750,0,0,neutral,0.1,1637.57441426181,2748.35329229701
57,104,2,154,-0.5,-0.5,-0.5,3,3,0.8,2,682,0,1,NaN,1,0,1.4,1,0.304635796339869,NaN,750,0,1,congruent,0.1,3262.14710979034,5526.44801956293
57,104,2,155,-0.5,-0.5,0,1,NaN,0.8,1,397,1,1,397,1,0,1.4,1,-1.50911632274448,-1.50911632274448,750,0,0,neutral,0.1,1557.18643068013,1244.47417405511
57,104,2,156,-0.5,-0.5,0.5,2,3,0.8,2,800,1,0,800,1,0,1.4,1,1.05559281406602,1.05559281406602,750,0,0,incongruent,0.1,10957.2638797146,3223.05624574652
57,104,2,157,-0.5,0.5,0,4,NaN,0.8,4,668,1,1,668,1,0,1.2,0.6,0.215539201016427,0.215539201016427,750,0,0,neutral,0.1,6772.39921397053,4022.36626696143
57,104,2,158,0.5,0.5,0.5,2,3,0.8,2,816,1,0,816,0,0,1,NaN,1.15741749443567,1.15741749443567,750,0,0,incongruent,0,1270.91925169957,2834.28417043521
57,104,2,159,0.5,-0.5,0,3,NaN,0.8,4,603,0,1,NaN,0,0,0.8,NaN,-0.198123562985266,NaN,750,0,1,neutral,0,6387.27889517841,2843.18778014816
57,104,2,160,0.5,0.5,-0.5,2,2,0.8,2,669,1,1,669,1,0,0.6,NaN,0.22190324353953,0.22190324353953,750,1,0,congruent,1,3446.57772299437,2226.05615323268
57,104,2,161,0.5,-0.5,-0.5,3,3,0.8,3,662,1,1,662,1,0,0.8,NaN,0.177354945877809,0.177354945877809,750,1,0,congruent,1,10681.3825507781,8541.26196451841
57,104,2,162,-0.5,0.5,0.5,4,2,0.8,4,687,1,1,687,1,0,1,0.8,0.336456008955384,0.336456008955384,750,0,0,incongruent,0.1,10494.3467245535,1446.98777172216
57,104,2,163,-0.5,-0.5,0.5,3,1,0.8,3,719,1,1,719,1,0,1,1,0.540105369694679,0.540105369694679,750,0,0,incongruent,0.1,3903.80788735883,1531.63440087281
57,104,2,164,-0.5,0.5,0,2,NaN,0.8,2,763,1,0,763,0,0,1.2,0.8,0.82012324071121,0.82012324071121,750,0,0,neutral,0,5449.48907794597,11010.497804415
57,104,2,165,-0.5,0.5,-0.5,4,4,0.6,4,716,1,1,716,1,0,1.2,0.6,0.52101324212537,0.52101324212537,750,1,0,congruent,0.1,3656.01230653687,5858.30388597632
57,104,2,166,-0.5,-0.5,0.5,1,2,0.6,2,664,0,1,NaN,1,0,1,1,0.190083030924015,NaN,750,1,0,incongruent,0.1,1174.79022375239,5566.13489353153
57,104,2,167,0.5,-0.5,-0.5,3,3,0.6,4,756,0,0,NaN,0,0,0.8,NaN,0.775574943049489,NaN,750,0,1,congruent,0,6003.34448835445,4407.13867841703
57,104,2,168,0.5,-0.5,0.5,4,2,0.6,1,934,0,0,NaN,0,0,0.6,NaN,1.90837451216182,NaN,750,0,1,incongruent,0,9926.99453045119,9016.4764464683
57,104,2,169,-0.5,-0.5,0.5,1,3,0.6,1,920,1,0,920,1,0,0.4,1,1.81927791683838,1.81927791683838,750,0,0,incongruent,0.1,6452.04945671729,4394.17144822244
57,104,2,170,0.5,0.5,0,4,NaN,0.6,4,516,1,1,516,1,0,0.6,NaN,-0.751795262495225,-0.751795262495225,750,0,0,neutral,1,5944.42938951975,2424.2028071588
57,104,2,171,-0.5,-0.5,-0.5,1,1,0.8,1,407,1,1,407,1,0,0.8,1,-1.44547589751345,-1.44547589751345,750,1,0,congruent,0.1,6149.50120128524,1113.06304947753
57,104,2,172,-0.5,-0.5,0.5,3,2,0.8,3,900,1,0,900,1,0,0.8,1,1.69199706637632,1.69199706637632,750,0,0,incongruent,0.1,2065.82679788352,5894.62190273201
57,104,2,173,0.5,0.5,-0.5,1,1,0.8,1,460,1,1,460,1,0,1,NaN,-1.10818164378899,-1.10818164378899,750,1,0,congruent,1,3352.73757950029,3070.89358829108
57,104,2,174,0.5,-0.5,0,4,NaN,0.8,4,545,1,1,545,0,0,1.4,NaN,-0.567238029325239,-0.567238029325239,750,0,0,neutral,0,4229.1360630519,4046.39857042805
57,104,2,175,0.5,0.5,-0.5,3,3,0.8,3,766,1,0,766,0,0,1.2,NaN,0.839215368280519,0.839215368280519,750,1,0,congruent,0,6636.806128439,2553.7098577682
57,104,2,176,-0.5,-0.5,-0.5,1,1,0.6,1,563,1,1,563,1,0,0.8,1,-0.452685263909385,-0.452685263909385,750,1,0,congruent,0.1,5261.98148576831,4148.80634884387
57,104,2,177,-0.5,-0.5,0.5,4,2,0.6,4,777,1,0,777,1,0,0.8,1,0.909219836034651,0.909219836034651,750,0,0,incongruent,0.1,7166.42467017602,8812.03371017392
57,104,2,178,-0.5,-0.5,0.5,2,1,0.6,2,580,1,1,580,0,0,0.8,1,-0.344496541016635,-0.344496541016635,750,0,0,incongruent,0,5159.37642184194,2152.38697484288
57,104,2,179,0.5,0.5,-0.5,3,3,0.6,3,635,1,1,635,1,0,0.4,NaN,0.00552579775402902,0.00552579775402902,750,1,0,congruent,1,1642.89317570188,3923.08556072394
57,104,2,180,-0.5,0.5,0.5,2,1,0.8,1,748,0,1,NaN,0,0,0.8,0.8,0.724662602864665,NaN,750,1,0,incongruent,0,2067.70799908664,2671.19360324433
57,104,2,181,-0.5,-0.5,-0.5,3,3,0.6,3,599,1,1,599,1,0,0.8,0.8,-0.223579733077678,-0.223579733077678,750,1,0,congruent,0.1,2192.52766069938,3104.9461951833
57,104,2,182,0.5,-0.5,0,2,NaN,0.6,2,762,1,0,762,0,0,0.8,NaN,0.813759198188107,0.813759198188107,750,0,0,neutral,0,2433.37943517899,13931.4271047353
57,104,2,183,-0.5,-0.5,0.5,3,1,0.6,1,549,0,1,NaN,1,0,0.6,0.8,-0.541781859232827,NaN,750,1,0,incongruent,0.1,2137.10763771852,1771.40070002516
57,104,2,184,0.5,-0.5,0.5,1,3,0.6,1,657,1,1,657,0,0,0.8,NaN,0.145534733262294,0.145534733262294,750,0,0,incongruent,0,1690.86309754647,2545.12757317714
57,104,2,185,-0.5,0.5,0.5,4,1,0.6,3,849,0,0,NaN,0,0,0.4,0.6,1.36743089769807,NaN,750,0,1,incongruent,0,1295.99447024524,8003.6891150458
57,104,2,187,0.5,-0.5,-0.5,4,4,0.4,4,765,1,0,765,0,0,0.2,NaN,0.832851325757416,0.832851325757416,750,1,0,congruent,0,2726.35272742408,9046.0963171738
57,104,2,188,-0.5,-0.5,-0.5,1,1,0.4,1,535,1,1,535,1,0,0.2,0.8,-0.630878454556268,-0.630878454556268,750,1,0,congruent,0.1,4143.81257899223,3858.5898910024
57,104,2,189,-0.5,-0.5,0,2,NaN,0.4,2,742,1,1,742,0,0,0.2,0.8,0.686478347726047,0.686478347726047,750,0,0,neutral,0,5194.23535059493,4680.31793250925
57,104,2,190,0.5,-0.5,-0.5,1,1,0.4,1,518,1,1,518,1,0,0.2,NaN,-0.739067177449019,-0.739067177449019,750,1,0,congruent,1,5038.46614128864,1744.33804616903
57,104,2,191,-0.5,0.5,0.5,4,3,0.4,3,871,0,0,NaN,0,0,0.6,0.4,1.50743983320633,NaN,750,1,0,incongruent,0,15973.1913749926,10799.2788537811
57,104,2,192,-0.5,-0.5,-0.5,1,1,0.2,1,401,1,1,401,1,0,0.6,0.6,-1.48366015265207,-1.48366015265207,750,1,0,congruent,0.1,1663.57040721094,1078.73282068336
57,104,2,193,-0.5,-0.5,-0.5,3,3,0.2,3,726,1,1,726,0,0,0.8,0.8,0.5846536673564,0.5846536673564,750,1,0,congruent,0,2775.4103156092,10327.8799460833
57,104,2,194,0.5,0.5,-0.5,1,1,0.2,1,514,1,1,514,1,0,0.6,NaN,-0.764523347541431,-0.764523347541431,750,1,0,congruent,1,1948.90465352936,2629.70282238011
57,104,2,195,0.5,-0.5,0,3,NaN,0.4,3,688,1,1,688,0,0,1,NaN,0.342820051478487,0.342820051478487,750,0,0,neutral,0,8455.2180608923,5048.45044397699
57,104,2,196,0.5,0.5,-0.5,1,1,0.4,1,462,1,1,462,1,0,0.6,NaN,-1.09545355874279,-1.09545355874279,750,1,0,congruent,1,6386.45632937339,2231.63667093926
57,104,2,198,0.5,-0.5,-0.5,2,2,0.4,3,645,0,1,NaN,1,0,1.2,NaN,0.0691662229850588,NaN,750,0,1,congruent,1,2818.56241938512,2190.42420351441
57,104,2,199,-0.5,-0.5,0,3,NaN,0.4,3,747,1,1,747,1,0,1.6,0.6,0.718298560341562,0.718298560341562,750,0,0,neutral,0.1,1174.92383185404,6118.70991713389
57,104,2,200,0.5,0.5,-0.5,1,1,0.4,1,396,1,1,396,1,0,1.4,NaN,-1.51548036526758,-1.51548036526758,750,1,0,congruent,1,6540.8678028658,7935.39724208621
57,104,2,202,-0.5,0.5,-0.5,1,1,0.6,1,471,1,1,471,1,0,1.6,0.2,-1.03817717603486,-1.03817717603486,750,1,0,congruent,0.1,4460.01551618884,2090.40828954321
57,104,2,203,0.5,-0.5,0,2,NaN,0.8,2,536,1,1,536,1,0,1.4,NaN,-0.624514412033165,-0.624514412033165,750,0,0,neutral,1,5751.07008024883,4674.0007870744
57,104,2,204,-0.5,0.5,0.5,3,1,0.8,3,937,1,0,937,0,0,1.4,0.4,1.92746663973113,1.92746663973113,750,0,0,incongruent,0,1207.88600949619,5206.11364692042
57,104,2,205,0.5,0.5,-0.5,2,2,0.8,2,538,1,1,538,1,0,1.2,NaN,-0.611786326986959,-0.611786326986959,750,1,0,congruent,1,3604.2318029208,2931.99206583653
57,104,2,206,0.5,-0.5,0,4,NaN,0.8,3,790,0,0,NaN,1,0,1.2,NaN,0.99195238883499,NaN,750,0,1,neutral,1,4765.74158998716,5026.36206678802
57,104,2,207,-0.5,0.5,-0.5,3,3,0.8,2,942,0,0,NaN,0,0,1.4,0.2,1.95928685234664,NaN,750,0,1,congruent,0,6325.17026049502,9850.59786824855
57,104,2,208,-0.5,-0.5,0,2,NaN,0.6,2,762,1,0,762,0,0,1.2,0.6,0.813759198188107,0.813759198188107,750,0,0,neutral,0,3288.76746560627,8024.42699222006
57,104,2,210,-0.5,-0.5,0,4,NaN,0.6,4,889,1,0,889,0,0,0.8,0.4,1.62199259862218,1.62199259862218,750,0,0,neutral,0,6788.33519823492,1554.24162985309
57,104,2,211,0.5,-0.5,0.5,1,4,0.6,1,651,1,1,651,0,0,0.4,NaN,0.107350478123677,0.107350478123677,750,0,0,incongruent,0,4738.43248557583,5653.75033832413
57,104,2,213,0.5,0.5,-0.5,3,3,0.4,3,665,1,1,665,1,0,0,NaN,0.196447073447118,0.196447073447118,750,1,0,congruent,1,3583.35159517767,3707.27909643296
57,104,2,214,0.5,-0.5,0,2,NaN,0.4,3,634,0,1,NaN,0,0,0.4,NaN,-0.000838244769073955,NaN,750,0,1,neutral,0,4613.65995034215,3493.79924307007
57,104,2,215,0.5,-0.5,-0.5,3,3,0.4,3,777,1,0,777,1,0,0.4,NaN,0.909219836034651,0.909219836034651,750,1,0,congruent,1,887.874473210787,1350.39710686806
57,104,2,216,0.5,-0.5,-0.5,2,2,0.4,2,414,1,1,414,1,0,0.8,NaN,-1.40092759985173,-1.40092759985173,750,1,0,congruent,1,3044.3827608355,1124.47602069422
57,104,2,217,-0.5,0.5,0.5,4,3,0.4,4,609,1,1,609,1,0,1.2,0.2,-0.159939307846648,-0.159939307846648,750,0,0,incongruent,0.1,12480.1307142932,3488.92273011041
57,104,2,218,0.5,0.5,-0.5,2,2,0.6,2,733,1,1,733,1,0,1.4,NaN,0.62920196501812,0.62920196501812,750,1,0,congruent,1,3344.18712392552,4959.24638331916
57,104,2,219,-0.5,0.5,0,4,NaN,0.6,4,859,1,0,859,0,0,1.4,0.4,1.4310713229291,1.4310713229291,750,0,0,neutral,0,11621.5043526217,8221.11389491255
57,104,2,220,-0.5,-0.5,-0.5,2,2,0.6,2,719,1,1,719,1,0,1.4,0.4,0.540105369694679,0.540105369694679,750,1,0,congruent,0.1,9440.22120266949,1310.33249159196
57,104,2,221,-0.5,0.5,0.5,1,4,0.6,1,560,1,1,560,1,0,1.2,0.4,-0.471777391478694,-0.471777391478694,750,0,0,incongruent,0.1,1433.84630849054,2099.1495762798
57,104,2,222,0.5,0.5,-0.5,3,3,0.8,3,680,1,1,680,1,0,1,NaN,0.291907711293663,0.291907711293663,750,1,0,congruent,1,4181.00695770533,6261.89784701395
57,104,2,223,0.5,0.5,-0.5,1,1,0.8,1,410,1,1,410,1,0,1.2,NaN,-1.42638376994414,-1.42638376994414,750,1,0,congruent,1,3371.4790087597,4168.90133405279
57,104,2,224,0.5,0.5,0,4,NaN,0.8,4,625,1,1,625,1,0,1.2,NaN,-0.0581146274770007,-0.0581146274770007,750,0,0,neutral,1,6657.16145765662,3015.16024180809
57,104,2,225,-0.5,0.5,-0.5,3,3,0.8,3,694,1,1,694,1,0,1.6,0.4,0.381004306617104,0.381004306617104,750,1,0,congruent,0.1,5420.31123131307,15209.8030934434
57,104,2,226,0.5,0.5,0.5,1,4,1,1,608,1,1,608,1,0,1.6,NaN,-0.166303350369751,-0.166303350369751,750,0,0,incongruent,1,2141.13010644586,3101.48558801309
57,104,2,227,0.5,-0.5,0,4,NaN,1,4,679,1,1,679,1,0,1.8,NaN,0.28554366877056,0.28554366877056,750,0,0,neutral,1,2509.45986269425,5215.26333035442
57,104,2,228,-0.5,0.5,-0.5,2,2,1,2,602,1,1,602,1,0,1.8,0.6,-0.204487605508369,-0.204487605508369,750,1,0,congruent,0.1,2203.37259989937,1340.94061490459
57,104,2,229,-0.5,0.5,0.5,4,1,1,4,869,1,0,869,0,0,1.6,0.8,1.49471174816012,1.49471174816012,750,0,0,incongruent,0,2075.91697749154,6174.47240133564
57,104,2,230,-0.5,-0.5,0.5,2,3,0.8,2,879,1,0,879,0,0,1.2,0.4,1.55835217339115,1.55835217339115,750,0,0,incongruent,0,8851.56696299627,3394.58635811848
57,104,2,231,0.5,0.5,0.5,4,1,0.8,4,569,1,1,569,1,0,1,NaN,-0.414501008770767,-0.414501008770767,750,0,0,incongruent,1,2630.51119661875,5000.05909012607
57,104,2,232,-0.5,-0.5,-0.5,3,3,0.8,3,649,1,1,649,1,0,1,0.2,0.0946223930774707,0.0946223930774707,750,1,0,congruent,0.1,5295.09760717643,1722.49999951075
57,104,2,233,-0.5,-0.5,-0.5,2,2,0.8,2,632,1,1,632,1,0,0.8,0.4,-0.0135663298152799,-0.0135663298152799,750,1,0,congruent,0.1,1760.98396230155,4822.12858874997
57,104,2,234,0.5,-0.5,-0.5,1,1,0.8,1,391,1,1,391,1,0,0.8,NaN,-1.5473005778831,-1.5473005778831,750,1,0,congruent,1,9289.99150762517,2023.14018754291
57,104,2,236,-0.5,0.5,0,4,NaN,0.8,4,664,1,1,664,1,0,1.6,0.6,0.190083030924015,0.190083030924015,750,0,0,neutral,0.1,11141.9283994362,2435.6506308285
57,104,2,237,-0.5,-0.5,0.5,3,1,0.8,3,803,1,0,803,1,0,1.4,0.6,1.07468494163533,1.07468494163533,750,0,0,incongruent,0.1,1255.58563453452,4126.71472605018
57,104,2,238,0.5,0.5,0,2,NaN,0.8,2,668,1,1,668,1,0,1.4,NaN,0.215539201016427,0.215539201016427,750,0,0,neutral,1,5806.26760684381,4995.66172532639
57,104,2,239,0.5,0.5,0.5,1,4,0.8,2,601,0,1,NaN,0,0,1.6,NaN,-0.210851648031472,NaN,750,0,1,incongruent,0,12867.8238579945,6972.46244448374
57,104,2,240,-0.5,-0.5,0.5,3,1,0.8,3,638,1,1,638,0,0,1.2,0.8,0.0246179253233379,0.0246179253233379,750,0,0,incongruent,0,7883.0926925483,7205.09058378978
57,104,2,241,-0.5,0.5,0,1,NaN,0.8,1,396,1,1,396,1,0,0.8,0.8,-1.51548036526758,-1.51548036526758,750,0,0,neutral,0.1,17166.9477538717,5715.37277822227
57,104,2,242,-0.5,-0.5,-0.5,2,2,0.8,2,368,1,1,368,1,0,0.8,0.6,-1.69367355591446,-1.69367355591446,750,1,0,congruent,0.1,5927.25118118813,1243.46670904514
57,104,2,243,0.5,0.5,0.5,3,1,0.8,3,666,1,1,666,1,0,0.8,NaN,0.202811115970221,0.202811115970221,750,0,0,incongruent,1,8414.85194382566,3184.01685226501
57,104,2,244,-0.5,0.5,0,1,NaN,0.8,1,484,1,1,484,1,0,0.8,0.8,-0.95544462323452,-0.95544462323452,750,0,0,neutral,0.1,2943.70467181209,2159.88145180524
57,104,2,245,0.5,0.5,0.5,3,2,0.8,3,661,1,1,661,1,0,1,NaN,0.170990903354706,0.170990903354706,750,0,0,incongruent,1,12817.0964390363,9177.33821505363
57,104,2,246,-0.5,-0.5,0.5,4,1,0.8,4,946,1,0,946,0,0,1.4,0.8,1.98474302243905,1.98474302243905,750,0,0,incongruent,0,1232.44760269843,7114.33156685237
57,104,2,247,-0.5,-0.5,-0.5,2,2,0.8,2,594,1,1,594,1,0,1.2,0.6,-0.255399945693193,-0.255399945693193,750,1,0,congruent,0.1,6548.51981083669,2609.57305421566
57,104,2,248,-0.5,-0.5,0.5,3,1,0.8,3,733,1,1,733,1,0,1.2,0.6,0.62920196501812,0.62920196501812,750,0,0,incongruent,0.1,5544.14638755642,3365.50975819021
57,104,2,249,-0.5,-0.5,0.5,1,3,0.8,1,683,1,1,683,1,0,1,0.6,0.310999838862972,0.310999838862972,750,0,0,incongruent,0.1,1942.7504634101,13984.4457562556
57,104,2,250,0.5,0.5,0,3,NaN,0.8,3,709,1,1,709,1,0,1,NaN,0.476464944463649,0.476464944463649,750,0,0,neutral,1,1347.78506551435,5006.34538136141
57,104,2,251,0.5,-0.5,-0.5,1,1,1,1,461,1,1,461,1,0,1,NaN,-1.10181760126589,-1.10181760126589,750,1,0,congruent,1,4439.92783048735,1760.72679974309
57,104,2,252,0.5,-0.5,0.5,3,4,1,4,673,0,1,NaN,1,0,1.4,NaN,0.247359413631942,NaN,750,1,0,incongruent,1,10864.6634425286,6159.65245861331
57,104,2,253,-0.5,-0.5,-0.5,1,1,1,1,588,1,1,588,1,0,1.6,0.8,-0.293584200831811,-0.293584200831811,750,1,0,congruent,0.1,6631.21432688811,3662.69894518518
57,104,2,254,0.5,0.5,-0.5,3,3,1,3,641,1,1,641,1,0,1.6,NaN,0.0437100528926469,0.0437100528926469,750,1,0,congruent,1,9172.90808789049,5394.5324824828
57,104,2,255,0.5,0.5,0,1,NaN,1,1,495,1,1,495,1,0,1.8,NaN,-0.885440155480387,-0.885440155480387,750,0,0,neutral,1,2047.0394057757,11069.7783556849
57,104,2,256,0.5,0.5,-0.5,2,2,1,2,600,1,1,600,1,0,1.8,NaN,-0.217215690554575,-0.217215690554575,750,1,0,congruent,1,15852.9411139351,403.278962385475
57,104,2,257,-0.5,-0.5,-0.5,4,4,1,4,837,1,0,837,1,0,1.8,0.8,1.29106238742083,1.29106238742083,750,1,0,congruent,0.1,9684.27757849056,9795.2728487955
57,104,2,258,-0.5,0.5,0.5,2,1,1,2,640,1,1,640,1,0,1.6,0.8,0.0373460103695439,0.0373460103695439,750,0,0,incongruent,0.1,8046.99672365484,7230.56932934901
57,104,2,259,-0.5,0.5,0,4,NaN,1,4,736,1,1,736,1,0,1.6,0.8,0.648294092587429,0.648294092587429,750,0,0,neutral,0.1,4450.83721949706,7410.68422528554
57,104,2,260,0.5,-0.5,-0.5,3,3,1,3,630,1,1,630,1,0,1.4,NaN,-0.0262944148614858,-0.0262944148614858,750,1,0,congruent,1,6928.00355386513,2949.11404080922
57,104,2,261,-0.5,0.5,-0.5,2,2,1,2,584,1,1,584,1,0,1.4,1,-0.319040370924223,-0.319040370924223,750,1,0,congruent,0.1,5266.64898514555,3139.89544992359
57,104,2,262,-0.5,-0.5,-0.5,4,4,1,4,517,1,1,517,1,0,1.2,1,-0.745431219972122,-0.745431219972122,750,1,0,congruent,0.1,1949.29843018708,4742.6379451021
57,104,2,263,0.5,0.5,0,2,NaN,1,2,529,1,1,529,1,0,1.2,NaN,-0.669062709694886,-0.669062709694886,750,0,0,neutral,1,8837.42197108137,5964.7354012733
57,104,2,264,0.5,-0.5,-0.5,3,3,1,3,774,1,0,774,1,0,1.4,NaN,0.890127708465342,0.890127708465342,750,1,0,congruent,1,3071.01152551391,4187.18763351208
57,104,2,265,-0.5,0.5,0.5,2,1,1,2,775,1,0,775,0,0,1.6,1,0.896491750988445,0.896491750988445,750,0,0,incongruent,0,8214.78581910165,539.62332002836
57,104,2,266,-0.5,0.5,0,1,NaN,0.8,1,814,1,0,814,0,0,1.2,0.8,1.14468940938946,1.14468940938946,750,0,0,neutral,0,2231.96330930328,5926.24415745855
57,104,2,267,-0.5,-0.5,-0.5,2,2,0.6,2,570,1,1,570,1,0,1,1,-0.408136966247664,-0.408136966247664,750,1,0,congruent,0.1,1769.49261643449,7808.12682938189
57,104,2,268,-0.5,-0.5,-0.5,1,1,0.6,1,485,1,1,485,1,0,1,1,-0.949080580711417,-0.949080580711417,750,1,0,congruent,0.1,3198.41274537731,2743.15094546879
57,104,2,269,-0.5,-0.5,-0.5,4,4,0.6,4,508,1,1,508,1,0,0.8,1,-0.802707602680049,-0.802707602680049,750,1,0,congruent,0.1,4649.036535768,2860.90576262095
57,104,2,270,-0.5,-0.5,0,1,NaN,0.6,1,572,1,1,572,0,0,0.6,1,-0.395408881201458,-0.395408881201458,750,0,0,neutral,0,718.95291476458,4428.9676655537
57,104,2,271,-0.5,0.5,-0.5,2,2,0.6,2,768,1,0,768,0,0,0.6,0.6,0.851943453326724,0.851943453326724,750,1,0,congruent,0,4055.87058438118,3719.05726199466
57,104,2,272,0.5,-0.5,0,4,NaN,0.4,4,476,1,1,476,0,0,0.6,NaN,-1.00635696341934,-1.00635696341934,750,0,0,neutral,0,3612.23101249839,1590.30884941796
57,104,2,273,-0.5,-0.5,0.5,3,1,0.4,2,579,0,1,NaN,0,0,0.4,0.8,-0.350860583539737,NaN,750,0,1,incongruent,0,8880.36457258058,8722.85191165069
57,104,2,274,0.5,-0.5,0.5,1,3,0.4,1,576,1,1,576,1,0,0.2,NaN,-0.369952711109046,-0.369952711109046,750,0,0,incongruent,1,8735.46885062405,2097.22208501814
57,104,2,275,-0.5,0.5,0,3,NaN,0.4,4,435,0,1,NaN,0,0,0.4,0.4,-1.26728270686657,NaN,750,0,1,neutral,0,6060.06668301964,2078.39799254081
57,104,2,276,-0.5,-0.5,0.5,2,1,0.2,2,643,1,1,643,0,0,0.4,0.6,0.0564381379388528,0.0564381379388528,750,0,0,incongruent,0,4028.95237917122,1012.5434505452
57,104,2,277,-0.5,-0.5,-0.5,3,3,0.2,3,767,1,0,767,1,0,0.4,0.4,0.845579410803622,0.845579410803622,750,1,0,congruent,0.1,21734.6723248772,3981.76691686728
57,104,2,278,-0.5,-0.5,-0.5,1,1,0.2,1,510,1,1,510,0,0,0.6,0.4,-0.789979517633843,-0.789979517633843,750,1,0,congruent,0,10130.5002711266,3616.9591426203
57,104,2,279,0.5,0.5,0,3,NaN,0.2,3,796,1,0,796,0,0,0.6,NaN,1.03013664397361,1.03013664397361,750,0,0,neutral,0,12760.2157742203,5297.85031206814
57,104,2,280,0.5,0.5,-0.5,1,1,0,1,455,1,1,455,1,0,0.2,NaN,-1.14000185640451,-1.14000185640451,750,1,0,congruent,1,8597.36897251467,2300.11003842792
57,104,2,281,0.5,-0.5,0,2,NaN,0.2,2,412,1,1,412,0,0,0.6,NaN,-1.41365568489793,-1.41365568489793,750,0,0,neutral,0,7838.43406967136,982.261852617582
57,104,2,282,0.5,0.5,-0.5,3,3,0.2,3,505,1,1,505,1,0,0.6,NaN,-0.821799730249357,-0.821799730249357,750,1,0,congruent,1,1895.05685723846,1726.42562278593
57,104,2,283,-0.5,-0.5,0.5,4,2,0.4,4,576,1,1,576,1,0,0.8,0.2,-0.369952711109046,-0.369952711109046,750,0,0,incongruent,0.1,982.219060573362,2659.32782259427
57,104,2,284,-0.5,-0.5,0,3,NaN,0.4,3,779,1,0,779,1,0,1,0.4,0.921947921080857,0.921947921080857,750,0,0,neutral,0.1,5503.86375666257,8026.02816309309
57,104,2,286,0.5,0.5,-0.5,1,1,0.6,1,483,1,1,483,1,0,1.2,NaN,-0.961808665757623,-0.961808665757623,750,1,0,congruent,1,6780.1619323205,1759.25446679109
57,104,2,287,-0.5,0.5,0.5,4,3,0.8,4,768,1,0,768,0,0,1.6,0.2,0.851943453326724,0.851943453326724,750,0,0,incongruent,0,3240.47352109652,6321.57625290261
57,104,2,288,0.5,-0.5,-0.5,1,1,0.8,1,537,1,1,537,1,0,1.2,NaN,-0.618150369510062,-0.618150369510062,750,1,0,congruent,1,2281.51669675362,3492.96764536675
57,104,2,289,-0.5,0.5,0.5,4,3,0.8,4,413,1,1,413,1,0,1.4,0,-1.40729164237483,-1.40729164237483,750,0,0,incongruent,0.1,2838.74395953612,1752.29103891404
57,104,2,290,0.5,-0.5,0,1,NaN,0.8,1,676,1,1,676,1,0,1.4,NaN,0.266451541201251,0.266451541201251,750,0,0,neutral,1,5827.47789147775,3948.60361113041
57,104,2,291,0.5,0.5,-0.5,3,3,0.8,3,738,1,1,738,1,0,1.4,NaN,0.661022177633635,0.661022177633635,750,1,0,congruent,1,5608.17078662906,3970.1303988924
57,104,2,292,-0.5,0.5,0.5,4,1,0.8,3,559,0,1,NaN,0,0,1.4,0.2,-0.478141434001797,NaN,750,0,1,incongruent,0,2515.67586509413,2126.68098039313
57,104,2,293,-0.5,-0.5,0.5,3,4,0.6,3,725,1,1,725,1,0,1.4,0.6,0.578289624833297,0.578289624833297,750,0,0,incongruent,0.1,1644.2793214158,3445.12324676164
57,104,2,294,0.5,0.5,-0.5,2,2,0.6,2,707,1,1,707,1,0,1.2,NaN,0.463736859417443,0.463736859417443,750,1,0,congruent,1,1616.43781895755,1440.04008064282
57,104,2,295,0.5,0.5,0,1,NaN,0.6,1,474,1,1,474,1,0,1.4,NaN,-1.01908504846555,-1.01908504846555,750,0,0,neutral,1,4614.62856057842,5151.92957247151
57,104,2,296,0.5,0.5,-0.5,2,2,0.8,2,576,1,1,576,1,0,1.4,NaN,-0.369952711109046,-0.369952711109046,750,1,0,congruent,1,8615.05990339781,2837.23294620072
57,104,2,297,0.5,-0.5,0.5,1,3,0.8,1,566,1,1,566,1,0,1.4,NaN,-0.433593136340076,-0.433593136340076,750,0,0,incongruent,1,4711.26389528998,4634.62042566368
57,104,2,298,0.5,0.5,-0.5,4,4,0.8,4,368,1,1,368,1,0,1.8,NaN,-1.69367355591446,-1.69367355591446,750,1,0,congruent,1,3646.21233984392,2030.22500640843
57,104,2,299,0.5,-0.5,-0.5,2,2,0.8,2,940,1,0,940,1,0,2,NaN,1.94655876730044,1.94655876730044,750,1,0,congruent,1,1919.57929283845,1819.86521617513
57,104,3,301,-0.5,-0.5,-0.5,2,2,1,2,750,1,1,750,1,0,1.8,0.8,0.737390687910871,0.737390687910871,750,1,0,congruent,0.1,3041.08552700695,2822.80719345329
57,104,3,302,0.5,0.5,-0.5,4,4,1,4,886,1,0,886,0,0,1.6,NaN,1.60290047105288,1.60290047105288,750,1,0,congruent,0,2135.23381522204,3932.98692548525
57,104,3,303,-0.5,0.5,-0.5,2,2,0.8,2,636,1,1,636,1,0,1.2,0.4,0.011889840277132,0.011889840277132,750,1,0,congruent,0.1,3418.74441706419,1796.2690008321
57,104,3,304,0.5,-0.5,-0.5,4,4,0.8,4,489,1,1,489,1,0,1,NaN,-0.923624410619005,-0.923624410619005,750,1,0,congruent,1,2059.54677338847,1339.57185797409
57,104,3,305,-0.5,-0.5,0,3,NaN,0.8,3,688,1,1,688,1,0,1,0.8,0.342820051478487,0.342820051478487,750,0,0,neutral,0.1,2489.14392320629,5501.75118906969
57,104,3,306,0.5,-0.5,-0.5,2,2,0.8,2,488,1,1,488,0,0,1,NaN,-0.929988453142108,-0.929988453142108,750,1,0,congruent,0,4064.05794613078,2716.49058709161
57,104,3,307,-0.5,-0.5,-0.5,3,3,0.8,3,660,1,1,660,0,0,0.8,1,0.164626860831603,0.164626860831603,750,1,0,congruent,0,2543.85642816904,3475.18132917457
57,104,3,308,-0.5,0.5,-0.5,2,2,0.8,2,550,1,1,550,1,0,0.8,0.6,-0.535417816709724,-0.535417816709724,750,1,0,congruent,0.1,633.161964048415,2620.57067171353
57,104,3,309,0.5,-0.5,0.5,3,1,0.8,2,645,0,1,NaN,1,0,0.8,NaN,0.0691662229850588,NaN,750,0,1,incongruent,1,8942.06879452499,3600.9048406341
57,104,3,310,-0.5,-0.5,0,4,NaN,0.8,4,608,1,1,608,0,0,0.8,0.8,-0.166303350369751,-0.166303350369751,750,0,0,neutral,0,3672.04574807635,4184.80321971697
57,104,3,311,-0.5,0.5,-0.5,3,3,0.8,3,846,1,0,846,0,0,0.6,0.8,1.34833877012876,1.34833877012876,750,1,0,congruent,0,1083.12233602303,7760.18513339218
57,104,3,312,-0.5,-0.5,-0.5,1,1,0.6,1,551,1,1,551,1,0,0.6,0.6,-0.529053774186621,-0.529053774186621,750,1,0,congruent,0.1,6708.06598340693,2095.05562326561
57,104,3,313,0.5,-0.5,0,3,NaN,0.6,3,691,1,1,691,1,0,0.8,NaN,0.361912179047796,0.361912179047796,750,0,0,neutral,1,1801.30267965209,11320.4509588342
57,104,3,314,-0.5,-0.5,-0.5,4,4,0.6,4,639,1,1,639,1,0,1,0.6,0.0309819678464409,0.0309819678464409,750,1,0,congruent,0.1,7774.69350714386,6502.30348572864
57,104,3,315,0.5,-0.5,0,2,NaN,0.6,2,665,1,1,665,1,0,0.8,NaN,0.196447073447118,0.196447073447118,750,0,0,neutral,1,6814.35859375745,4609.16112931734
57,104,3,316,-0.5,0.5,-0.5,4,4,0.6,4,591,1,1,591,1,0,1.2,0.6,-0.274492073262502,-0.274492073262502,750,1,0,congruent,0.1,1292.90306149593,1501.00118935217
57,104,3,317,0.5,0.5,0.5,2,1,0.6,1,561,0,1,NaN,0,0,1.4,NaN,-0.465413348955591,NaN,750,1,0,incongruent,0,8642.89333984043,2529.28837632836
57,104,3,318,0.5,0.5,-0.5,3,3,0.6,3,763,1,0,763,0,0,1.2,NaN,0.82012324071121,0.82012324071121,750,1,0,congruent,0,2018.1120444093,2712.50993004432
57,104,3,320,-0.5,-0.5,-0.5,4,4,0.2,4,505,1,1,505,0,0,0.6,0.6,-0.821799730249357,-0.821799730249357,750,1,0,congruent,0,6351.46236634853,3540.21090847274
57,104,3,321,0.5,-0.5,0.5,2,3,0.2,2,879,1,0,879,1,0,0.2,NaN,1.55835217339115,1.55835217339115,750,0,0,incongruent,1,2705.06654863601,1078.10532390639
57,104,3,322,0.5,0.5,0,1,NaN,0.2,1,467,1,1,467,1,0,0.4,NaN,-1.06363334612727,-1.06363334612727,750,0,0,neutral,1,8173.5531771498,2535.26511534347
57,104,3,323,0.5,-0.5,-0.5,2,2,0.4,2,545,1,1,545,0,0,0.8,NaN,-0.567238029325239,-0.567238029325239,750,1,0,congruent,0,4829.54808146078,4158.13404744236
57,104,3,324,-0.5,0.5,0,3,NaN,0.4,4,931,0,0,NaN,0,0,0.8,0.6,1.88928238459251,NaN,750,0,1,neutral,0,8636.76341997212,6951.77912197495
57,104,3,325,0.5,0.5,0.5,2,1,0.2,2,787,1,0,787,0,0,0.8,NaN,0.972860261265681,0.972860261265681,750,0,0,incongruent,0,3555.24070903101,3829.601784172
57,104,3,326,-0.5,-0.5,0,1,NaN,0.2,1,485,1,1,485,0,0,0.8,0.4,-0.949080580711417,-0.949080580711417,750,0,0,neutral,0,2745.14200049933,7285.4930828448
57,104,3,327,-0.5,0.5,-0.5,2,2,0.2,2,646,1,1,646,1,0,0.4,0.4,0.0755302655081617,0.0755302655081617,750,1,0,congruent,0.1,6896.38587218849,3178.32661514223
57,104,3,328,-0.5,0.5,0.5,3,4,0.4,4,929,0,0,NaN,0,0,0.2,0.4,1.8765542995463,NaN,750,1,0,incongruent,0,5204.80828111743,10516.701838881
57,104,3,329,0.5,0.5,0.5,1,2,0.4,1,549,1,1,549,1,0,0.2,NaN,-0.541781859232827,-0.541781859232827,750,0,0,incongruent,1,2495.45988301839,2791.52737809783
57,104,3,330,0.5,0.5,-0.5,4,4,0.4,4,585,1,1,585,1,0,0.6,NaN,-0.31267632840112,-0.31267632840112,750,1,0,congruent,1,7336.81126276668,1006.32937388122
57,104,3,331,0.5,0.5,-0.5,3,3,0.6,3,660,1,1,660,1,0,1,NaN,0.164626860831603,0.164626860831603,750,1,0,congruent,1,1480.94008724341,1866.40751024713
57,104,3,332,-0.5,0.5,-0.5,1,1,0.8,1,442,1,1,442,1,0,1.4,0.4,-1.22273440920484,-1.22273440920484,750,1,0,congruent,0.1,4552.21977043206,949.895507159158
57,104,3,333,0.5,0.5,0,3,NaN,0.8,3,632,1,1,632,1,0,1.4,NaN,-0.0135663298152799,-0.0135663298152799,750,0,0,neutral,1,5086.42838711903,9853.74169162133
57,104,3,334,-0.5,0.5,-0.5,4,4,1,4,559,1,1,559,1,0,1.8,0.4,-0.478141434001797,-0.478141434001797,750,1,0,congruent,0.1,2246.9468792536,840.737881655368
57,104,3,335,0.5,0.5,0.5,2,1,1,2,680,1,1,680,1,0,1.6,NaN,0.291907711293663,0.291907711293663,750,0,0,incongruent,1,888.168465681629,3185.98254104162
57,104,3,336,-0.5,0.5,0,1,NaN,1,1,458,1,1,458,1,0,1.6,0.6,-1.1209097288352,-1.1209097288352,750,0,0,neutral,0.1,4015.73629016813,5963.15341597386
57,104,3,337,-0.5,-0.5,-0.5,2,2,1,2,496,1,1,496,1,0,1.4,0.4,-0.879076112957284,-0.879076112957284,750,1,0,congruent,0.1,6995.18937230757,3764.79734641393
57,104,3,338,0.5,-0.5,0.5,1,3,1,1,428,1,1,428,1,0,1.4,NaN,-1.31183100452829,-1.31183100452829,750,0,0,incongruent,1,3414.74340816141,12538.1659625624
57,104,3,339,-0.5,0.5,-0.5,2,2,1,2,603,1,1,603,1,0,1.4,0.8,-0.198123562985266,-0.198123562985266,750,1,0,congruent,0.1,6785.17021006346,3784.98908159149
57,104,3,340,0.5,0.5,0,4,NaN,1,4,534,1,1,534,1,0,1.4,NaN,-0.637242497079371,-0.637242497079371,750,0,0,neutral,1,8661.13182053715,4157.09198037769
57,104,3,341,0.5,-0.5,-0.5,1,1,1,1,391,1,1,391,1,0,1.4,NaN,-1.5473005778831,-1.5473005778831,750,1,0,congruent,1,7374.35298163517,2244.19178225618
57,104,3,342,-0.5,-0.5,0.5,4,2,1,3,548,0,1,NaN,1,0,1.6,0.6,-0.54814590175593,NaN,750,0,1,incongruent,0.1,9052.45338104645,7055.60842901805
57,104,3,344,0.5,-0.5,0.5,3,1,1,4,973,0,0,NaN,1,0,1.6,NaN,2.15657217056283,NaN,750,0,1,incongruent,1,4237.82890031343,5406.32916250316
57,104,3,345,0.5,-0.5,0.5,2,3,1,2,903,1,0,903,1,0,1.8,NaN,1.71108919394563,1.71108919394563,750,0,0,incongruent,1,1379.48286947849,13643.0600088225
57,104,3,346,-0.5,-0.5,0,1,NaN,1,1,368,1,1,368,1,0,1.8,0.6,-1.69367355591446,-1.69367355591446,750,0,0,neutral,0.1,9656.71683302592,6131.51740807765
57,104,3,347,0.5,0.5,0.5,2,4,1,2,636,1,1,636,1,0,1.6,NaN,0.011889840277132,0.011889840277132,750,0,0,incongruent,1,4012.37016058263,2915.85919586746
57,104,3,348,-0.5,0.5,0.5,1,2,1,1,535,1,1,535,1,0,1.8,0.8,-0.630878454556268,-0.630878454556268,750,0,0,incongruent,0.1,4038.27134577438,1322.83270601678
57,104,3,349,-0.5,0.5,0.5,4,1,1,1,542,0,1,NaN,0,0,1.6,1,-0.586330156894547,NaN,750,1,0,incongruent,0,12489.064525679,7497.18723867389
57,104,3,350,0.5,0.5,-0.5,3,3,0.8,3,729,1,1,729,1,0,1.2,NaN,0.603745794925709,0.603745794925709,750,1,0,congruent,1,3564.53974686195,11847.4064774968
57,104,3,351,0.5,0.5,0.5,2,4,0.8,2,937,1,0,937,0,0,1.2,NaN,1.92746663973113,1.92746663973113,750,0,0,incongruent,0,1078.79510059013,6839.26956238093
57,104,3,352,-0.5,-0.5,0.5,3,1,0.6,1,448,0,1,NaN,1,0,1,0.6,-1.18455015406623,NaN,750,1,0,incongruent,0.1,3432.49523462164,7334.3884505465
57,104,3,353,0.5,-0.5,0,1,NaN,0.6,1,633,1,1,633,1,0,0.8,NaN,-0.00720228729217693,-0.00720228729217693,750,0,0,neutral,1,2311.66491332825,2485.06175626174
57,104,3,354,0.5,0.5,0.5,2,1,0.6,2,805,1,0,805,0,0,1,NaN,1.08741302668153,1.08741302668153,750,0,0,incongruent,0,3785.83472813519,6393.66107293436
57,104,3,355,0.5,0.5,-0.5,4,4,0.4,4,445,1,1,445,1,0,1,NaN,-1.20364228163554,-1.20364228163554,750,1,0,congruent,1,4835.11879923183,12954.4050663545
57,104,3,356,-0.5,0.5,-0.5,1,1,0.4,1,522,1,1,522,1,0,1,0.8,-0.713611007356607,-0.713611007356607,750,1,0,congruent,0.1,916.627702306662,3200.33392987967
57,104,3,357,-0.5,-0.5,-0.5,2,2,0.6,2,390,1,1,390,0,0,1.2,0.8,-1.5536646204062,-1.5536646204062,750,1,0,congruent,0,4237.43742416247,1883.4591894669
57,104,3,358,-0.5,-0.5,0.5,1,3,0.6,1,603,1,1,603,0,0,1,0.8,-0.198123562985266,-0.198123562985266,750,0,0,incongruent,0,5999.66949893348,6748.99968189188
57,104,3,359,-0.5,0.5,-0.5,2,2,0.6,2,591,1,1,591,1,0,0.6,0.8,-0.274492073262502,-0.274492073262502,750,1,0,congruent,0.1,12075.5252453947,4372.97351456925
57,104,3,360,-0.5,-0.5,-0.5,1,1,0.6,1,464,1,1,464,1,0,0.8,0.6,-1.08272547369658,-1.08272547369658,750,1,0,congruent,0.1,7955.66511019534,3656.35726878562
57,104,3,361,-0.5,0.5,-0.5,2,2,0.6,2,618,1,1,618,1,0,0.6,0.8,-0.102662925138722,-0.102662925138722,750,1,0,congruent,0.1,1955.47681523669,2519.71088826315
57,104,3,362,0.5,-0.5,0,3,NaN,0.8,3,572,1,1,572,0,0,0.6,NaN,-0.395408881201458,-0.395408881201458,750,0,0,neutral,0,795.358511549477,1480.49682316898
57,104,3,363,-0.5,-0.5,0.5,1,2,0.8,1,604,1,1,604,0,0,0.6,0.6,-0.191759520462163,-0.191759520462163,750,0,0,incongruent,0,8525.25515044525,1938.54842405175
57,104,3,364,0.5,-0.5,-0.5,4,4,0.8,4,553,1,1,553,0,0,0.6,NaN,-0.516325689140415,-0.516325689140415,750,1,0,congruent,0,3089.57657483877,7608.56283880598
57,104,3,365,0.5,-0.5,0.5,2,3,0.8,2,702,1,1,702,1,0,0.4,NaN,0.431916646801928,0.431916646801928,750,0,0,incongruent,1,6312.98435524617,3136.80689381707
57,104,3,366,0.5,0.5,0,1,NaN,0.8,1,634,1,1,634,1,0,0.6,NaN,-0.000838244769073955,-0.000838244769073955,750,0,0,neutral,1,6864.61747730931,3225.57580952823
57,104,3,367,-0.5,0.5,0.5,2,1,1,1,601,0,1,NaN,0,0,0.8,0.8,-0.210851648031472,NaN,750,1,0,incongruent,0,11611.2509582353,3587.88262280337
57,104,3,368,0.5,-0.5,-0.5,3,3,0.8,2,605,0,1,NaN,1,0,0.8,NaN,-0.18539547793906,NaN,750,0,1,congruent,1,7332.73715687333,4502.44766239944
57,104,3,369,-0.5,-0.5,-0.5,2,2,0.8,2,641,1,1,641,0,0,1.2,0.4,0.0437100528926469,0.0437100528926469,750,1,0,congruent,0,12261.6232281411,2272.19967810215
57,104,3,370,0.5,0.5,0,4,NaN,0.8,4,522,1,1,522,1,0,1.2,NaN,-0.713611007356607,-0.713611007356607,750,0,0,neutral,1,6911.39291677019,4140.55549429419
57,104,3,372,0.5,-0.5,0,1,NaN,0.8,2,629,0,1,NaN,1,0,1,NaN,-0.0326584573845888,NaN,750,0,1,neutral,1,8682.67339401703,5188.51417653355
57,104,3,373,-0.5,-0.5,0.5,2,1,0.8,2,782,1,0,782,1,0,1.4,0.4,0.941040048650166,0.941040048650166,750,0,0,incongruent,0.1,16516.5787641776,2788.85452815269
57,104,3,374,-0.5,0.5,-0.5,4,4,0.8,4,524,1,1,524,1,0,1.2,0.6,-0.700882922310401,-0.700882922310401,750,1,0,congruent,0.1,9530.03015950708,2515.88372875877
57,104,3,375,-0.5,0.5,0,1,NaN,0.8,1,563,1,1,563,1,0,1.4,0.8,-0.452685263909385,-0.452685263909385,750,0,0,neutral,0.1,3954.74139702063,2514.19548083917
57,104,3,376,0.5,0.5,0.5,3,4,0.8,3,897,1,0,897,0,0,1.2,NaN,1.67290493880701,1.67290493880701,750,0,0,incongruent,0,8825.27655901686,3009.03851393926
57,104,3,377,0.5,0.5,0,4,NaN,0.6,4,524,1,1,524,1,0,1,NaN,-0.700882922310401,-0.700882922310401,750,0,0,neutral,1,2488.10052252053,1770.76417038842
57,104,3,379,-0.5,0.5,0.5,2,4,0.6,2,966,1,0,966,0,0,0.8,0.8,2.11202387290111,2.11202387290111,750,0,0,incongruent,0,10521.5740934836,6643.77611597623
57,104,3,380,-0.5,0.5,0.5,4,2,0.4,3,632,0,1,NaN,0,0,0.6,0.6,-0.0135663298152799,NaN,750,0,1,incongruent,0,1255.69670303269,4615.68258743958
57,104,3,381,0.5,0.5,0,1,NaN,0.2,1,426,1,1,426,1,0,0.4,NaN,-1.32455908957449,-1.32455908957449,750,0,0,neutral,1,5897.77330058697,899.466666098142
57,104,3,382,-0.5,-0.5,-0.5,3,3,0.4,2,664,0,1,NaN,1,0,0.8,0.6,0.190083030924015,NaN,750,0,1,congruent,0.1,1258.7269490835,3182.99348298214
57,104,3,383,-0.5,0.5,0.5,2,4,0.4,2,709,1,1,709,1,0,0.6,0.4,0.476464944463649,0.476464944463649,750,0,0,incongruent,0.1,2037.63707825842,11039.1770532239
57,104,3,384,0.5,0.5,-0.5,3,3,0.4,3,610,1,1,610,1,0,0.8,NaN,-0.153575265323545,-0.153575265323545,750,1,0,congruent,1,888.908178650749,2651.57676925861
57,104,3,385,0.5,0.5,-0.5,4,4,0.6,2,730,0,1,NaN,0,0,1.2,NaN,0.610109837448812,NaN,750,0,1,congruent,0,6412.5821891823,709.818116173043
57,104,3,386,0.5,-0.5,-0.5,1,1,0.6,1,374,1,1,374,1,0,1.2,NaN,-1.65548930077585,-1.65548930077585,750,1,0,congruent,1,4845.5927840326,3525.70004808222
57,104,3,387,0.5,-0.5,0.5,3,4,0.6,3,884,1,0,884,0,0,1.2,NaN,1.59017238600667,1.59017238600667,750,0,0,incongruent,0,3699.6473470118,3562.81111327016
57,104,3,388,-0.5,0.5,0,4,NaN,0.6,3,639,0,1,NaN,0,0,1,0.6,0.0309819678464409,NaN,750,0,1,neutral,0,15378.5706314768,1230.94818829244
57,104,3,389,0.5,-0.5,-0.5,3,3,0.6,3,692,1,1,692,1,0,0.8,NaN,0.368276221570899,0.368276221570899,750,1,0,congruent,1,6061.77774241105,6089.5690416645
57,104,3,390,-0.5,-0.5,0,1,NaN,0.6,1,332,1,1,332,1,0,0.8,0.6,-1.92277908674617,-1.92277908674617,750,0,0,neutral,0.1,11133.6188474751,5150.93363333543
57,104,3,391,-0.5,0.5,-0.5,3,3,0.6,3,576,1,1,576,1,0,1,0.4,-0.369952711109046,-0.369952711109046,750,1,0,congruent,0.1,3117.97117906701,2268.9772052592
57,104,3,392,-0.5,0.5,0,2,NaN,0.6,2,639,1,1,639,1,0,0.8,0.4,0.0309819678464409,0.0309819678464409,750,0,0,neutral,0.1,5926.26433132613,3540.76197137325
57,104,3,393,-0.5,0.5,0.5,4,3,0.6,3,583,0,1,NaN,0,0,1,0.6,-0.325404413447326,NaN,750,1,0,incongruent,0,2773.18871982092,4535.07017681973
57,104,3,395,0.5,0.5,-0.5,4,4,0.4,3,628,0,1,NaN,0,0,0.6,NaN,-0.0390224999076918,NaN,750,0,1,congruent,0,2721.5569733698,6934.35660095275
57,104,3,396,0.5,-0.5,-0.5,3,3,0.4,3,953,1,0,953,0,0,0.4,NaN,2.02929132010077,2.02929132010077,750,1,0,congruent,0,5744.5084144944,3570.89904846503
57,104,3,397,0.5,0.5,0,4,NaN,0.4,4,326,1,1,326,1,0,0.2,NaN,-1.96096334188479,-1.96096334188479,750,0,0,neutral,1,3950.10811374075,817.123503566681
57,104,3,398,-0.5,-0.5,0.5,2,4,0.6,2,765,1,0,765,0,0,0.4,0.8,0.832851325757416,0.832851325757416,750,0,0,incongruent,0,2622.8649462319,4980.35936407597
57,104,3,399,0.5,0.5,-0.5,3,3,0.6,3,610,1,1,610,1,0,0.4,NaN,-0.153575265323545,-0.153575265323545,750,1,0,congruent,1,1616.72698496088,3667.26825643783
57,104,3,400,-0.5,-0.5,0,1,NaN,0.6,1,511,1,1,511,0,0,0.8,0.6,-0.78361547511074,-0.78361547511074,750,0,0,neutral,0,6094.12719726464,2806.17451304747
57,104,3,401,0.5,-0.5,-0.5,4,4,0.6,3,778,0,0,NaN,0,0,0.8,NaN,0.915583878557754,NaN,750,0,1,congruent,0,11513.7479602289,4244.73945919157
57,104,3,402,0.5,0.5,-0.5,1,1,0.6,1,391,1,1,391,1,0,0.8,NaN,-1.5473005778831,-1.5473005778831,750,1,0,congruent,1,8816.00868518432,6163.72095747039
57,104,3,403,-0.5,0.5,-0.5,3,3,0.6,3,637,1,1,637,1,0,0.8,0.6,0.018253882800235,0.018253882800235,750,1,0,congruent,0.1,5680.26491469619,7881.85260321141
57,104,3,404,-0.5,-0.5,0,4,NaN,0.8,4,468,1,1,468,1,0,1,0.4,-1.05726930360417,-1.05726930360417,750,0,0,neutral,0.1,3029.30687140941,2521.73052207452
57,104,3,405,0.5,0.5,-0.5,1,1,0.8,1,315,1,1,315,1,0,0.8,NaN,-2.03096780963892,-2.03096780963892,750,1,0,congruent,1,2362.16699795042,5288.27914452883
57,104,3,406,0.5,-0.5,0,4,NaN,1,4,511,1,1,511,1,0,1.2,NaN,-0.78361547511074,-0.78361547511074,750,0,0,neutral,1,1590.68768690458,11302.4828822533
57,104,3,407,0.5,-0.5,-0.5,3,3,1,3,613,1,1,613,1,0,1.6,NaN,-0.134483137754236,-0.134483137754236,750,1,0,congruent,1,4793.0149151114,10997.1572473834
57,104,3,408,0.5,-0.5,-0.5,4,4,1,3,488,0,1,NaN,1,0,1.6,NaN,-0.929988453142108,NaN,750,0,1,congruent,1,2917.52028170799,3748.39168669077
57,104,3,409,-0.5,-0.5,0.5,2,3,1,2,707,1,1,707,1,0,1.8,0.4,0.463736859417443,0.463736859417443,750,0,0,incongruent,0.1,3720.32756993551,3634.61015290745
57,104,3,410,0.5,-0.5,0.5,3,4,1,4,745,0,1,NaN,1,0,1.8,NaN,0.705570475295356,NaN,750,1,0,incongruent,1,10419.0383487238,5129.76625953884
57,104,3,411,0.5,0.5,0.5,2,3,1,2,610,1,1,610,1,0,1.8,NaN,-0.153575265323545,-0.153575265323545,750,0,0,incongruent,1,10295.1317328222,7823.34801882886
57,104,3,412,-0.5,0.5,-0.5,4,4,1,4,792,1,0,792,0,0,1.8,0.6,1.0046804738812,1.0046804738812,750,1,0,congruent,0,2433.84667132124,3336.19429653919
57,104,3,413,0.5,-0.5,0.5,3,2,0.8,3,968,1,0,968,1,0,1.4,NaN,2.12475195794732,2.12475195794732,750,0,0,incongruent,1,3675.78124855785,4092.92546264754
57,104,3,414,-0.5,0.5,-0.5,4,4,0.8,4,569,1,1,569,1,0,1.4,0.6,-0.414501008770767,-0.414501008770767,750,1,0,congruent,0.1,3462.79337718433,2239.13679565852
57,104,3,415,0.5,0.5,0,3,NaN,0.8,3,699,1,1,699,1,0,1.4,NaN,0.412824519232619,0.412824519232619,750,0,0,neutral,1,6532.83577574199,5745.05712943385
57,104,3,416,-0.5,-0.5,-0.5,1,1,0.8,1,422,1,1,422,1,0,1.4,0.4,-1.3500152596669,-1.3500152596669,750,1,0,congruent,0.1,6603.52141365851,1946.86758049995
57,104,3,417,-0.5,-0.5,0.5,4,3,0.8,4,623,1,1,623,1,0,1.2,0.6,-0.0708427125232067,-0.0708427125232067,750,0,0,incongruent,0.1,3327.63999483948,3139.50193723214
57,104,3,418,-0.5,-0.5,-0.5,2,2,0.8,2,542,1,1,542,0,0,1.4,0.8,-0.586330156894547,-0.586330156894547,750,1,0,congruent,0,6020.58613462502,2001.96214720095
57,104,3,419,0.5,-0.5,-0.5,3,3,0.8,3,573,1,1,573,0,0,1,NaN,-0.389044838678355,-0.389044838678355,750,1,0,congruent,0,14270.6673548921,4380.40573047301
57,104,3,420,-0.5,0.5,-0.5,2,2,0.8,2,695,1,1,695,1,0,0.8,0.6,0.387368349140207,0.387368349140207,750,1,0,congruent,0.1,9364.27355867535,1976.1270784636
57,104,3,421,0.5,0.5,-0.5,4,4,0.8,4,480,1,1,480,1,0,0.6,NaN,-0.980900793326932,-0.980900793326932,750,1,0,congruent,1,1855.13357362422,6308.298539699
57,104,3,423,0.5,-0.5,0.5,1,3,0.8,2,973,0,0,NaN,1,0,0.8,NaN,2.15657217056283,NaN,750,0,1,incongruent,1,14586.5904077355,4445.10249752763
57,104,3,424,-0.5,-0.5,0,2,NaN,0.8,2,651,1,1,651,1,0,1.2,0.8,0.107350478123677,0.107350478123677,750,0,0,neutral,0.1,2355.04515509053,2398.27993664861
57,104,3,425,0.5,0.5,-0.5,4,4,0.8,4,437,1,1,437,1,0,1.4,NaN,-1.25455462182036,-1.25455462182036,750,1,0,congruent,1,8248.30444168016,2547.91034640288
57,104,3,426,0.5,-0.5,0,3,NaN,1,3,877,1,0,877,1,0,1.6,NaN,1.54562408834495,1.54562408834495,750,0,0,neutral,1,8378.51578847861,2972.97823691555
57,104,3,427,-0.5,0.5,0.5,2,1,1,1,768,0,0,NaN,0,0,1.6,0.6,0.851943453326724,NaN,750,1,0,incongruent,0,14334.5859346231,4723.30450697416
57,104,3,428,0.5,-0.5,0,1,NaN,0.8,1,546,1,1,546,1,0,1.4,NaN,-0.560873986802136,-0.560873986802136,750,0,0,neutral,1,3573.40727375965,2641.0629182029
57,104,3,429,-0.5,-0.5,-0.5,2,2,0.8,2,611,1,1,611,1,0,1.4,0.8,-0.147211222800442,-0.147211222800442,750,1,0,congruent,0.1,3454.62721458769,2129.19394220335
57,104,3,430,-0.5,-0.5,0.5,1,4,0.8,2,857,0,0,NaN,1,0,1.4,0.8,1.41834323788289,NaN,750,0,1,incongruent,0.1,1962.8682366912,6904.16057411059
57,104,3,431,-0.5,-0.5,0,3,NaN,0.8,3,747,1,1,747,1,0,1.2,0.8,0.718298560341562,0.718298560341562,750,0,0,neutral,0.1,6439.79098239233,1292.53397977137
57,104,3,432,0.5,-0.5,-0.5,4,4,0.8,4,677,1,1,677,0,0,1,NaN,0.272815583724354,0.272815583724354,750,1,0,congruent,0,4694.34595775685,2605.86214450487
57,104,3,433,-0.5,0.5,0.5,2,1,0.8,2,691,1,1,691,1,0,1,0.6,0.361912179047796,0.361912179047796,750,0,0,incongruent,0.1,5211.80138502534,6998.62987272489
57,104,3,434,0.5,0.5,0,1,NaN,0.8,1,582,1,1,582,1,0,0.8,NaN,-0.331768455970429,-0.331768455970429,750,0,0,neutral,1,1538.94256965762,10534.023371945
57,104,3,435,-0.5,-0.5,-0.5,4,4,0.8,4,447,1,1,447,1,0,1,1,-1.19091419658933,-1.19091419658933,750,1,0,congruent,0.1,4789.64700308106,4574.41399274416
57,104,3,436,-0.5,-0.5,0.5,2,1,0.8,2,495,1,1,495,0,0,1,1,-0.885440155480387,-0.885440155480387,750,0,0,incongruent,0,957.148890309694,1559.00229730562
57,104,3,437,0.5,0.5,-0.5,3,3,0.8,4,625,0,1,NaN,0,0,0.8,NaN,-0.0581146274770007,NaN,750,0,1,congruent,0,12594.6077764147,2059.08893568852
57,104,3,438,0.5,0.5,0.5,2,1,0.6,2,812,1,0,812,0,0,0.8,NaN,1.13196132434326,1.13196132434326,750,0,0,incongruent,0,3559.66406483226,4751.47032599924
57,104,3,439,0.5,0.5,0,3,NaN,0.4,2,724,0,1,NaN,0,0,0.6,NaN,0.571925582310194,NaN,750,0,1,neutral,0,3200.03842244588,4244.25971364157
57,104,3,440,0.5,-0.5,-0.5,1,1,0.4,1,691,1,1,691,0,0,0.2,NaN,0.361912179047796,0.361912179047796,750,1,0,congruent,0,1138.79094161919,1626.57680610144
57,104,3,441,0.5,-0.5,0.5,4,3,0.4,4,687,1,1,687,0,0,0,NaN,0.336456008955384,0.336456008955384,750,0,0,incongruent,0,1503.44093815785,3842.66288509609
57,104,3,442,-0.5,0.5,0.5,2,4,0.4,2,755,1,0,755,0,0,0,0.6,0.769210900526386,0.769210900526386,750,0,0,incongruent,0,5320.43827907839,9823.2409420113
57,104,3,443,0.5,-0.5,0,4,NaN,0.2,4,422,1,1,422,0,0,0,NaN,-1.3500152596669,-1.3500152596669,750,0,0,neutral,0,3275.18966191074,3014.5648099577
57,104,3,444,0.5,-0.5,-0.5,2,2,0.2,1,211,0,1,NaN,0,0,0,NaN,-2.69282823204163,NaN,750,0,1,congruent,0,3540.44609696075,1772.55783235113
57,104,3,445,-0.5,-0.5,-0.5,3,3,0.2,3,564,1,1,564,0,0,0,0.8,-0.446321221386282,-0.446321221386282,750,1,0,congruent,0,2955.39983402357,3502.19988029189
57,104,3,446,-0.5,-0.5,0.5,2,4,0.2,2,881,1,0,881,0,0,0,0.6,1.57108025843736,1.57108025843736,750,0,0,incongruent,0,2568.2314511753,2450.05815327333
57,104,3,447,0.5,-0.5,0.5,1,2,0.2,1,445,1,1,445,0,0,0,NaN,-1.20364228163554,-1.20364228163554,750,0,0,incongruent,0,708.677230097187,6751.12434179501
57,104,3,448,0.5,-0.5,0,2,NaN,0.2,2,451,1,1,451,0,0,0,NaN,-1.16545802649692,-1.16545802649692,750,0,0,neutral,0,3591.64559704301,5288.34329109496
57,104,3,449,0.5,-0.5,-0.5,3,3,0.2,3,433,1,1,433,1,0,0,NaN,-1.28001079191277,-1.28001079191277,750,1,0,congruent,1,2299.8374893986,886.739111775026
57,104,3,450,-0.5,0.5,0,1,NaN,0.2,1,330,1,1,330,1,0,0.4,0.6,-1.93550717179238,-1.93550717179238,750,0,0,neutral,0.1,2650.63366520542,3010.94807477774
57,104,4,451,0.5,0.5,-0.5,3,3,0.2,3,569,1,1,569,1,0,0.6,NaN,-0.414501008770767,-0.414501008770767,750,1,0,congruent,1,2729.6002579162,2933.35698967093
57,104,4,452,-0.5,-0.5,-0.5,1,1,0.4,1,257,1,1,257,1,0,1,0.4,-2.4000822759789,-2.4000822759789,750,1,0,congruent,0.1,3312.73564042144,879.408202156999
57,104,4,453,-0.5,-0.5,-0.5,2,2,0.4,2,448,1,1,448,1,0,1.2,0.4,-1.18455015406623,-1.18455015406623,750,1,0,congruent,0.1,8583.57140873098,6400.04711967451
57,104,4,454,0.5,0.5,0,4,NaN,0.4,4,563,1,1,563,1,0,1.4,NaN,-0.452685263909385,-0.452685263909385,750,0,0,neutral,1,2765.09030677727,3471.17559388695
57,104,4,455,0.5,0.5,-0.5,1,1,0.6,1,473,1,1,473,1,0,1.4,NaN,-1.02544909098865,-1.02544909098865,750,1,0,congruent,1,2635.92872162631,3263.21075396426
57,104,4,456,-0.5,-0.5,0,3,NaN,0.8,3,590,1,1,590,1,0,1.6,0.4,-0.280856115785605,-0.280856115785605,750,0,0,neutral,0.1,12569.7632570271,2650.34234268931
57,104,4,457,0.5,0.5,0.5,2,3,0.8,3,985,0,0,NaN,0,0,1.4,NaN,2.23294068084007,NaN,750,1,0,incongruent,0,531.347830380432,3212.60095062039
57,104,4,458,-0.5,-0.5,-0.5,4,4,0.8,4,575,1,1,575,1,0,1.2,0.6,-0.376316753632149,-0.376316753632149,750,1,0,congruent,0.1,3363.59273668805,2301.47721868907
57,104,4,460,-0.5,0.5,0.5,1,4,0.6,1,304,1,1,304,1,0,0.8,0.4,-2.10097227739306,-2.10097227739306,750,0,0,incongruent,0.1,10824.3102795702,6606.93372116076
57,104,4,461,-0.5,0.5,0,2,NaN,0.6,2,416,1,1,416,1,0,0.6,0.6,-1.38819951480552,-1.38819951480552,750,0,0,neutral,0.1,10954.2765650353,1688.90980529661
57,104,4,462,-0.5,-0.5,-0.5,4,4,0.6,4,510,1,1,510,1,0,0.6,0.8,-0.789979517633843,-0.789979517633843,750,1,0,congruent,0.1,2482.47576399226,1857.51249533557
57,104,4,463,0.5,0.5,0.5,3,1,0.6,3,731,1,1,731,1,0,0.8,NaN,0.616473879971914,0.616473879971914,750,0,0,incongruent,1,2851.79373024287,3194.85335603877
57,104,4,464,0.5,-0.5,-0.5,2,2,0.6,2,585,1,1,585,1,0,1,NaN,-0.31267632840112,-0.31267632840112,750,1,0,congruent,1,7806.54654479992,2166.28591586287
57,104,4,465,0.5,0.5,-0.5,4,4,0.6,4,632,1,1,632,1,0,1.4,NaN,-0.0135663298152799,-0.0135663298152799,750,1,0,congruent,1,18286.6413888327,10982.6655180204
57,104,4,466,0.5,-0.5,0,3,NaN,0.8,3,883,1,0,883,0,0,1.6,NaN,1.58380834348357,1.58380834348357,750,0,0,neutral,0,16419.357162472,9555.70331224001
57,104,4,467,-0.5,-0.5,0.5,2,3,0.8,2,617,1,1,617,1,0,1.4,1,-0.109026967661825,-0.109026967661825,750,0,0,incongruent,0.1,4219.12031877698,1687.26288436252
57,104,4,468,-0.5,-0.5,0,1,NaN,0.8,4,516,0,1,NaN,0,0,1.4,1,-0.751795262495225,NaN,750,0,1,neutral,0,8477.41294186314,4195.01596213426
57,104,4,469,0.5,-0.5,-0.5,3,3,0.8,3,689,1,1,689,1,0,1,NaN,0.34918409400159,0.34918409400159,750,1,0,congruent,1,2095.93083744523,2691.56755672107
57,104,4,470,-0.5,-0.5,0,2,NaN,0.8,2,528,1,1,528,1,0,1,0.8,-0.675426752217989,-0.675426752217989,750,0,0,neutral,0.1,8483.37185144036,3244.65329095155
57,104,4,471,0.5,0.5,0.5,3,4,0.8,3,532,1,1,532,1,0,0.8,NaN,-0.649970582125577,-0.649970582125577,750,0,0,incongruent,1,1970.32889901186,2316.66765067425
57,104,4,472,0.5,-0.5,0,4,NaN,1,2,695,0,1,NaN,1,0,1.2,NaN,0.387368349140207,NaN,750,0,1,neutral,1,22718.5057396963,5547.54485773941
57,104,4,473,-0.5,-0.5,-0.5,2,2,1,2,656,1,1,656,1,0,1.4,0.8,0.139170690739191,0.139170690739191,750,1,0,congruent,0.1,3534.60765501402,8171.74099792971
57,104,4,474,-0.5,-0.5,0,1,NaN,1,1,429,1,1,429,1,0,1.6,0.8,-1.30546696200518,-1.30546696200518,750,0,0,neutral,0.1,3963.09214947283,587.839925053456
57,104,4,475,-0.5,-0.5,-0.5,2,2,1,2,401,1,1,401,1,0,1.4,0.8,-1.48366015265207,-1.48366015265207,750,1,0,congruent,0.1,8910.60348031745,4006.77703888518
57,104,4,476,0.5,-0.5,0,3,NaN,1,3,462,1,1,462,1,0,1.4,NaN,-1.09545355874279,-1.09545355874279,750,0,0,neutral,1,10744.2316614914,2407.02672693236
57,104,4,477,-0.5,-0.5,-0.5,4,4,1,4,527,1,1,527,1,0,1.4,0.8,-0.681790794741092,-0.681790794741092,750,1,0,congruent,0.1,4936.23089119657,7472.35573761375
57,104,4,478,-0.5,0.5,0.5,1,2,1,1,336,1,1,336,1,0,1.2,0.6,-1.89732291665376,-1.89732291665376,750,0,0,incongruent,0.1,6333.35838253199,5551.962894407
57,104,4,479,-0.5,0.5,-0.5,3,3,1,3,708,1,1,708,1,0,1.2,0.8,0.470100901940546,0.470100901940546,750,1,0,congruent,0.1,5550.38532031786,1401.94272230492
57,104,4,480,-0.5,0.5,0,1,NaN,1,1,403,1,1,403,1,0,1.2,0.8,-1.47093206760586,-1.47093206760586,750,0,0,neutral,0.1,848.369176747557,2182.07417968062
57,104,4,481,-0.5,-0.5,0.5,3,2,1,3,494,1,1,494,1,0,1.2,1,-0.89180419800349,-0.89180419800349,750,0,0,incongruent,0.1,4239.58408144672,1134.86965949665
57,104,4,482,0.5,0.5,-0.5,1,1,1,1,377,1,1,377,1,0,1,NaN,-1.63639717320654,-1.63639717320654,750,1,0,congruent,1,1676.70745254432,2028.68544239258
57,104,4,483,-0.5,0.5,-0.5,2,2,1,2,455,1,1,455,1,0,1.2,1,-1.14000185640451,-1.14000185640451,750,1,0,congruent,0.1,1295.47120058098,10743.4699691236
57,104,4,484,0.5,-0.5,0.5,3,4,1,3,721,1,1,721,1,0,1.2,NaN,0.552833454740885,0.552833454740885,750,0,0,incongruent,1,7291.17705957417,3662.52289073206
57,104,4,485,0.5,-0.5,-0.5,2,2,1,2,571,1,1,571,1,0,1.4,NaN,-0.401772923724561,-0.401772923724561,750,1,0,congruent,1,7817.28363607692,2246.8795058804
57,104,4,487,0.5,0.5,0.5,3,4,0.8,3,662,1,1,662,1,0,1.4,NaN,0.177354945877809,0.177354945877809,750,0,0,incongruent,1,20605.8099831558,2149.87574272777
57,104,4,488,0.5,0.5,0.5,1,3,0.8,1,305,1,1,305,1,0,1.4,NaN,-2.09460823486995,-2.09460823486995,750,0,0,incongruent,1,5148.86707350571,2405.18533697068
57,104,4,489,0.5,-0.5,0,2,NaN,0.8,2,345,1,1,345,1,0,1.6,NaN,-1.84004653394583,-1.84004653394583,750,0,0,neutral,1,981.655721017209,6285.30177904871
57,104,4,490,0.5,-0.5,-0.5,4,4,0.8,4,496,1,1,496,1,0,1.6,NaN,-0.879076112957284,-0.879076112957284,750,1,0,congruent,1,6855.74671036267,12371.6066891385
57,104,4,491,0.5,-0.5,0.5,1,2,0.8,1,516,1,1,516,1,0,1.6,NaN,-0.751795262495225,-0.751795262495225,750,0,0,incongruent,1,2292.29273817162,1726.97278676796
57,104,4,492,0.5,-0.5,-0.5,4,4,0.8,2,472,0,1,NaN,1,0,2,NaN,-1.03181313351176,NaN,750,0,1,congruent,1,5098.28240346605,1681.46675561743
57,104,4,493,0.5,-0.5,0,1,NaN,0.8,1,404,1,1,404,1,0,2,NaN,-1.46456802508276,-1.46456802508276,750,0,0,neutral,1,16970.3631832916,4266.22831600519
57,104,4,494,0.5,0.5,-0.5,2,2,0.8,2,520,1,1,520,1,0,2,NaN,-0.726339092402813,-0.726339092402813,750,1,0,congruent,1,2250.3286383484,1538.28461971189
57,104,4,497,0.5,0.5,-0.5,2,2,1,2,455,1,1,455,1,0,1.8,NaN,-1.14000185640451,-1.14000185640451,750,1,0,congruent,1,3242.48938065644,2470.23527500638
57,104,4,498,0.5,0.5,-0.5,1,1,1,1,376,1,1,376,1,0,1.8,NaN,-1.64276121572964,-1.64276121572964,750,1,0,congruent,1,943.175520943977,1074.77368616838
57,104,4,499,0.5,0.5,0.5,3,4,1,3,614,1,1,614,1,0,1.8,NaN,-0.128119095231133,-0.128119095231133,750,0,0,incongruent,1,17023.9638289097,3374.21959928701
57,104,4,500,0.5,-0.5,0,1,NaN,1,1,344,1,1,344,1,0,1.8,NaN,-1.84641057646894,-1.84641057646894,750,0,0,neutral,1,6007.83258834305,7682.33647000404
57,104,4,501,-0.5,-0.5,-0.5,4,4,1,3,548,0,1,NaN,1,0,1.8,1,-0.54814590175593,NaN,750,0,1,congruent,0.1,6731.54558314093,2768.57695413675
57,104,4,502,-0.5,-0.5,0,1,NaN,1,1,324,1,1,324,1,0,1.8,1,-1.973691426931,-1.973691426931,750,0,0,neutral,0.1,1825.9533829026,5596.13748701403
57,104,4,503,-0.5,-0.5,0.5,4,3,1,3,647,0,1,NaN,1,0,1.6,1,0.0818943080312647,NaN,750,1,0,incongruent,0.1,5298.30060435157,2726.08850022775
57,104,4,504,-0.5,0.5,0.5,1,2,1,1,405,1,1,405,1,0,1.4,0.8,-1.45820398255965,-1.45820398255965,750,0,0,incongruent,0.1,4685.35627306367,8447.50329301375
57,104,4,505,0.5,0.5,0,2,NaN,1,2,584,1,1,584,1,0,1.2,NaN,-0.319040370924223,-0.319040370924223,750,0,0,neutral,1,6805.20286105759,2452.5577336913
57,104,4,506,0.5,-0.5,0.5,3,2,1,2,611,0,1,NaN,1,0,1.2,NaN,-0.147211222800442,NaN,750,1,0,incongruent,1,3030.45059602108,9878.53004724197
57,104,4,507,-0.5,0.5,0.5,2,1,1,1,619,0,1,NaN,0,0,1.4,0.8,-0.0962988826156186,NaN,750,1,0,incongruent,0,1545.09896919867,13062.9477750253
57,104,4,508,-0.5,0.5,0,1,NaN,0.8,1,478,1,1,478,1,0,1.2,0.6,-0.993628878373138,-0.993628878373138,750,0,0,neutral,0.1,6403.16852767214,5414.96168090074
57,104,4,509,0.5,-0.5,-0.5,4,4,0.8,4,677,1,1,677,1,0,1.2,NaN,0.272815583724354,0.272815583724354,750,1,0,congruent,1,5764.61736463431,3191.58005418898
57,104,4,510,0.5,0.5,-0.5,3,3,0.8,2,665,0,1,NaN,0,0,1.4,NaN,0.196447073447118,NaN,750,0,1,congruent,0,2591.06005516467,5888.99544706454
57,104,4,511,0.5,-0.5,0,2,NaN,0.6,3,589,0,1,NaN,1,0,1,NaN,-0.287220158308708,NaN,750,0,1,neutral,1,5430.7098335064,6734.12400188951
57,104,4,512,0.5,0.5,-0.5,1,1,0.6,1,594,1,1,594,1,0,1,NaN,-0.255399945693193,-0.255399945693193,750,1,0,congruent,1,4711.66102561344,1145.06621228369
57,104,4,513,-0.5,-0.5,0,2,NaN,0.6,2,401,1,1,401,1,0,1.4,1,-1.48366015265207,-1.48366015265207,750,0,0,neutral,0.1,9758.57480878852,3817.74972570227
57,104,4,514,-0.5,-0.5,-0.5,1,1,0.6,1,442,1,1,442,1,0,1.4,1,-1.22273440920484,-1.22273440920484,750,1,0,congruent,0.1,10314.6408593191,2602.43771684985
57,104,4,515,0.5,0.5,0.5,3,2,0.6,3,651,1,1,651,1,0,1.2,NaN,0.107350478123677,0.107350478123677,750,0,0,incongruent,1,8163.51120481746,11152.8477215401
57,104,4,516,0.5,-0.5,0,2,NaN,0.6,2,633,1,1,633,1,0,1.6,NaN,-0.00720228729217693,-0.00720228729217693,750,0,0,neutral,1,3943.03833294446,7107.61320408568
57,104,4,517,0.5,-0.5,-0.5,1,1,0.6,2,422,0,1,NaN,1,0,1.6,NaN,-1.3500152596669,NaN,750,0,1,congruent,1,2403.34728029563,2900.33918743854
57,104,4,518,0.5,0.5,0,3,NaN,0.6,3,635,1,1,635,1,0,1.6,NaN,0.00552579775402902,0.00552579775402902,750,0,0,neutral,1,2720.33705552542,6340.61279532928
57,104,4,519,-0.5,0.5,0.5,1,4,0.8,1,607,1,1,607,1,0,1.8,0.6,-0.172667392892854,-0.172667392892854,750,0,0,incongruent,0.1,4470.46207311367,3183.78947765199
57,104,4,520,0.5,-0.5,-0.5,2,2,0.8,2,493,1,1,493,1,0,1.8,NaN,-0.898168240526593,-0.898168240526593,750,1,0,congruent,1,5421.71139185639,7627.15362981798
57,104,4,521,-0.5,0.5,0,1,NaN,0.8,1,301,1,1,301,1,0,1.8,0.8,-2.12006440496236,-2.12006440496236,750,0,0,neutral,0.1,17429.5406874136,8032.67143716466
57,104,4,522,-0.5,-0.5,-0.5,4,4,1,4,365,1,1,365,1,0,1.6,1,-1.71276568348377,-1.71276568348377,750,1,0,congruent,0.1,13483.9612417163,1034.77955991997
57,104,4,523,0.5,-0.5,0,3,NaN,1,3,616,1,1,616,1,0,1.4,NaN,-0.115391010184927,-0.115391010184927,750,0,0,neutral,1,4960.8543986582,3479.03065300946
57,104,4,524,-0.5,0.5,0.5,1,2,1,1,512,1,1,512,1,0,1.4,0.8,-0.777251432587637,-0.777251432587637,750,0,0,incongruent,0.1,918.556139987152,724.722776741779
57,104,4,525,-0.5,0.5,-0.5,4,4,1,3,614,0,1,NaN,0,0,1.4,0.8,-0.128119095231133,NaN,750,0,1,congruent,0,3517.88966206557,2366.65569644582
57,104,4,526,0.5,-0.5,-0.5,2,2,0.8,2,878,1,0,878,0,0,1,NaN,1.55198813086805,1.55198813086805,750,1,0,congruent,0,6615.21212492287,4909.94410591945
57,104,4,527,-0.5,0.5,0.5,3,4,0.8,4,707,0,1,NaN,0,0,0.8,0.8,0.463736859417443,NaN,750,1,0,incongruent,0,3059.07482903827,4612.8898764192
57,104,4,528,-0.5,-0.5,0,1,NaN,0.6,1,373,1,1,373,0,0,0.6,1,-1.66185334329895,-1.66185334329895,750,0,0,neutral,0,1822.37599570288,3179.33389372545
57,104,4,529,-0.5,-0.5,0.5,4,3,0.6,3,702,0,1,NaN,0,0,0.2,0.8,0.431916646801928,NaN,750,1,0,incongruent,0,2636.42406840843,8656.80347697195
57,104,4,530,0.5,-0.5,-0.5,1,1,0.6,1,323,1,1,323,1,0,0,NaN,-1.9800554694541,-1.9800554694541,750,1,0,congruent,1,3777.00680387559,1183.87293706638
57,104,4,531,0.5,-0.5,0,2,NaN,0.6,2,600,1,1,600,1,0,0.4,NaN,-0.217215690554575,-0.217215690554575,750,0,0,neutral,1,3570.15412510868,2875.89372811587
57,104,4,532,0.5,-0.5,-0.5,1,1,0.6,1,387,1,1,387,1,0,0.8,NaN,-1.57275674797551,-1.57275674797551,750,1,0,congruent,1,4222.29312039985,1749.02503376366
57,104,4,533,0.5,-0.5,0.5,3,2,0.6,3,837,1,0,837,1,0,1.2,NaN,1.29106238742083,1.29106238742083,750,0,0,incongruent,1,2360.73880167268,6978.81697405933
57,104,4,534,-0.5,-0.5,-0.5,4,4,0.6,4,551,1,1,551,0,0,1.6,0.6,-0.529053774186621,-0.529053774186621,750,1,0,congruent,0,2767.76793989561,5134.14222442333
57,104,4,536,0.5,-0.5,-0.5,1,1,0.6,1,539,1,1,539,1,0,1.2,NaN,-0.605422284463856,-0.605422284463856,750,1,0,congruent,1,4338.59994315253,3229.87554488577
57,104,4,537,0.5,0.5,-0.5,3,3,0.6,3,889,1,0,889,0,0,1.2,NaN,1.62199259862218,1.62199259862218,750,1,0,congruent,0,4320.07943392674,9384.05375166076
57,104,4,538,-0.5,0.5,-0.5,1,1,0.4,1,407,1,1,407,1,0,0.8,0.6,-1.44547589751345,-1.44547589751345,750,1,0,congruent,0.1,3475.7420081599,2865.28258256804
57,104,4,540,0.5,-0.5,0,3,NaN,0.2,3,737,1,1,737,0,0,0.6,NaN,0.654658135110532,0.654658135110532,750,0,0,neutral,0,15073.0718659382,8947.86844453387
57,104,4,541,0.5,-0.5,-0.5,2,2,0.2,2,698,1,1,698,1,0,0.6,NaN,0.406460476709516,0.406460476709516,750,1,0,congruent,1,5285.62969685043,1624.71696396801
57,104,4,543,-0.5,-0.5,0.5,1,4,0.2,1,594,1,1,594,0,0,0.6,0.4,-0.255399945693193,-0.255399945693193,750,0,0,incongruent,0,5612.73074587268,5098.14451014995
57,104,4,544,-0.5,-0.5,0.5,2,1,0.2,1,909,0,0,NaN,0,0,0.4,0.2,1.74927344908424,NaN,750,1,0,incongruent,0,3488.04031899358,5045.85200792861
57,104,4,545,-0.5,-0.5,0.5,1,4,0.2,1,752,1,0,752,0,0,0.4,0,0.750118772957077,0.750118772957077,750,0,0,incongruent,0,11533.8356298647,5009.59311102062
57,104,4,546,0.5,0.5,0.5,4,1,0.2,3,819,0,0,NaN,0,0,0.4,NaN,1.17650962200498,NaN,750,0,1,incongruent,0,10749.3689333846,9472.91167866788
57,104,4,547,0.5,0.5,-0.5,2,2,0.2,2,647,1,1,647,1,0,0,NaN,0.0818943080312647,0.0818943080312647,750,1,0,congruent,1,2558.55777475433,2409.76723886596
57,104,4,548,-0.5,-0.5,-0.5,3,3,0.4,3,809,1,0,809,0,0,0.4,0,1.11286919677395,1.11286919677395,750,1,0,congruent,0,2089.49513946726,6005.94449921112
57,104,4,550,0.5,0.5,0.5,3,1,0.2,3,559,1,1,559,1,0,0.4,NaN,-0.478141434001797,-0.478141434001797,750,0,0,incongruent,1,1021.75559196516,1438.26265206493
57,104,4,551,-0.5,0.5,-0.5,4,4,0.4,3,650,0,1,NaN,0,0,0.8,0.2,0.100986435600574,NaN,750,0,1,congruent,0,5207.44825217844,7203.39504741709
57,104,4,552,0.5,0.5,0.5,3,1,0.4,3,777,1,0,777,0,0,0.8,NaN,0.909219836034651,0.909219836034651,750,0,0,incongruent,0,7778.74081846668,3350.50826420464
57,104,4,553,0.5,0.5,0.5,4,2,0.4,4,833,1,0,833,0,0,0.4,NaN,1.26560621732842,1.26560621732842,750,0,0,incongruent,0,3624.14313261784,12854.514549271
57,104,4,554,-0.5,-0.5,0.5,3,1,0.2,3,734,1,1,734,0,0,0.4,0,0.635566007541223,0.635566007541223,750,0,0,incongruent,0,5463.37187001353,3093.67100476745
57,104,4,555,0.5,0.5,0,1,NaN,0.2,1,437,1,1,437,1,0,0.4,NaN,-1.25455462182036,-1.25455462182036,750,0,0,neutral,1,4945.74084885316,2086.8658291359
57,104,4,556,0.5,0.5,-0.5,4,4,0.4,4,566,1,1,566,1,0,0.4,NaN,-0.433593136340076,-0.433593136340076,750,1,0,congruent,1,3230.19276937403,7178.42529551925
57,104,4,557,0.5,0.5,0,3,NaN,0.4,3,562,1,1,562,1,0,0.8,NaN,-0.459049306432488,-0.459049306432488,750,0,0,neutral,1,5423.62059566045,2446.82238819513
57,104,4,558,0.5,0.5,0.5,1,4,0.6,1,265,1,1,265,1,0,1.2,NaN,-2.34916993579407,-2.34916993579407,750,0,0,incongruent,1,10122.862618439,699.385645821907
57,104,4,559,0.5,-0.5,0,3,NaN,0.8,3,788,1,0,788,1,0,1.6,NaN,0.979224303788784,0.979224303788784,750,0,0,neutral,1,9424.69153631431,5614.81424436293
57,104,4,560,0.5,-0.5,0.5,4,3,0.8,3,720,0,1,NaN,1,0,2,NaN,0.546469412217782,NaN,750,1,0,incongruent,1,2172.68804238549,16255.3877021199
57,104,4,561,-0.5,0.5,-0.5,1,1,0.8,1,353,1,1,353,1,0,2,0.2,-1.78913419376101,-1.78913419376101,750,1,0,congruent,0.1,1756.74708338342,5200.88921326734
57,104,4,562,0.5,-0.5,-0.5,4,4,1,4,468,1,1,468,1,0,1.8,NaN,-1.05726930360417,-1.05726930360417,750,1,0,congruent,1,2559.16879564079,1804.13682963041
57,104,4,563,-0.5,0.5,0,2,NaN,1,2,477,1,1,477,1,0,1.8,0.4,-0.999992920896241,-0.999992920896241,750,0,0,neutral,0.1,4593.54273718052,3420.20046265758
57,104,4,564,-0.5,0.5,0.5,1,2,1,1,271,1,1,271,1,0,1.6,0.4,-2.31098568065545,-2.31098568065545,750,0,0,incongruent,0.1,16941.7689904894,5295.58180873128
57,104,4,565,0.5,-0.5,-0.5,4,4,1,4,529,1,1,529,1,0,1.4,NaN,-0.669062709694886,-0.669062709694886,750,1,0,congruent,1,4474.17776753121,8095.00449652226
57,104,4,566,-0.5,0.5,0,3,NaN,1,3,552,1,1,552,1,0,1.4,0.6,-0.522689731663518,-0.522689731663518,750,0,0,neutral,0.1,11676.7951987389,3383.53564255653
57,104,4,567,0.5,-0.5,-0.5,4,4,1,4,477,1,1,477,1,0,1.4,NaN,-0.999992920896241,-0.999992920896241,750,1,0,congruent,1,2900.96804652925,1301.03976719998
57,104,4,568,-0.5,0.5,0.5,2,1,1,1,474,0,1,NaN,0,0,1.4,0.8,-1.01908504846555,NaN,750,1,0,incongruent,0,9706.76660882999,2898.54052825826
57,104,4,569,-0.5,-0.5,0,4,NaN,0.8,4,628,1,1,628,0,0,1.2,0,-0.0390224999076918,-0.0390224999076918,750,0,0,neutral,0,10585.3824251911,5577.28700312892
57,104,4,570,0.5,0.5,-0.5,2,2,0.8,2,566,1,1,566,1,0,1,NaN,-0.433593136340076,-0.433593136340076,750,1,0,congruent,1,1915.99438091818,3435.4981082558
57,104,4,571,-0.5,0.5,0,3,NaN,0.8,3,580,1,1,580,1,0,1,0.8,-0.344496541016635,-0.344496541016635,750,0,0,neutral,0.1,3430.3096693612,9448.85109094351
57,104,4,572,-0.5,0.5,0.5,2,3,0.8,1,944,0,0,NaN,0,0,1,0.8,1.97201493739285,NaN,750,0,1,incongruent,0,4970.17452272115,5030.56595904477
57,104,4,573,0.5,-0.5,-0.5,4,4,0.6,4,487,1,1,487,1,0,0.6,NaN,-0.936352495665211,-0.936352495665211,750,1,0,congruent,1,8750.31236646799,1686.16506661791
57,104,4,574,0.5,-0.5,0.5,3,2,0.6,3,714,1,1,714,1,0,1,NaN,0.508285157079164,0.508285157079164,750,0,0,incongruent,1,6854.20744454791,4012.76919145426
57,104,4,575,-0.5,0.5,0,2,NaN,0.6,2,723,1,1,723,1,0,1.4,0.6,0.565561539787091,0.565561539787091,750,0,0,neutral,0.1,8024.01035363915,3524.30576982053
57,104,4,576,-0.5,0.5,-0.5,4,4,0.6,4,499,1,1,499,1,0,1.2,0.6,-0.859983985387975,-0.859983985387975,750,1,0,congruent,0.1,12395.9960346778,7107.74516972617
57,104,4,577,-0.5,-0.5,0,3,NaN,0.8,3,641,1,1,641,0,0,1.2,0,0.0437100528926469,0.0437100528926469,750,0,0,neutral,0,7964.30518294229,7330.582047205
57,104,4,578,0.5,-0.5,-0.5,1,1,0.8,1,373,1,1,373,1,0,1.2,NaN,-1.66185334329895,-1.66185334329895,750,1,0,congruent,1,2076.34772364282,1644.28324571923
57,104,4,579,0.5,-0.5,-0.5,2,2,0.8,2,557,1,1,557,1,0,1.2,NaN,-0.490869519048003,-0.490869519048003,750,1,0,congruent,1,5547.31669419462,5541.16711775449
57,104,4,580,0.5,0.5,-0.5,3,3,0.8,3,609,1,1,609,1,0,1.2,NaN,-0.159939307846648,-0.159939307846648,750,1,0,congruent,1,6849.3831359811,5812.27920017707
57,104,4,581,0.5,-0.5,0.5,1,2,0.8,1,566,1,1,566,1,0,1.4,NaN,-0.433593136340076,-0.433593136340076,750,0,0,incongruent,1,4681.14390236974,4449.39942264985
57,104,4,582,-0.5,-0.5,-0.5,3,3,0.8,3,519,1,1,519,1,0,1.6,0,-0.732703134925916,-0.732703134925916,750,1,0,congruent,0.1,11190.7740904026,2267.41915080331
57,104,4,583,0.5,-0.5,0.5,4,1,0.8,4,721,1,1,721,1,0,1.8,NaN,0.552833454740885,0.552833454740885,750,0,0,incongruent,1,16557.4594555055,16657.4512584549
57,104,4,584,0.5,-0.5,-0.5,3,3,0.8,3,684,1,1,684,0,0,1.8,NaN,0.317363881386075,0.317363881386075,750,1,0,congruent,0,2039.66340808181,4296.32324815788
57,104,4,585,0.5,0.5,-0.5,4,4,0.8,4,498,1,1,498,1,0,1.4,NaN,-0.866348027911078,-0.866348027911078,750,1,0,congruent,1,6783.74697565854,2189.36310785573
57,104,4,586,-0.5,0.5,0,1,NaN,0.8,1,358,1,1,358,1,0,1.4,0.6,-1.75731398114549,-1.75731398114549,750,0,0,neutral,0.1,2565.33071771438,4433.46459546448
57,104,4,587,0.5,-0.5,-0.5,3,3,1,3,545,1,1,545,1,0,1.2,NaN,-0.567238029325239,-0.567238029325239,750,1,0,congruent,1,2701.58997835937,3160.84332254461
57,104,4,589,-0.5,0.5,-0.5,4,4,1,4,553,1,1,553,1,0,1.4,0.8,-0.516325689140415,-0.516325689140415,750,1,0,congruent,0.1,5220.02832849957,7358.69551413166
57,104,4,590,-0.5,0.5,0.5,1,3,1,2,733,0,1,NaN,0,0,1.6,0.8,0.62920196501812,NaN,750,0,1,incongruent,0,6550.63073995718,6421.14291946122
57,104,4,591,-0.5,-0.5,0.5,3,1,0.8,3,815,1,0,815,0,0,1.2,0.2,1.15105345191256,1.15105345191256,750,0,0,incongruent,0,3483.11213863579,2747.16141168238
57,104,4,592,-0.5,-0.5,0.5,1,2,0.8,1,553,1,1,553,0,0,1,0.2,-0.516325689140415,-0.516325689140415,750,0,0,incongruent,0,6774.36698974982,932.090217752667
57,104,4,593,-0.5,-0.5,0.5,4,1,0.8,3,530,0,1,NaN,1,0,0.6,0.2,-0.662698667171783,NaN,750,0,1,incongruent,0.1,2736.00551875411,7020.33949270648
57,104,4,594,-0.5,0.5,0,3,NaN,0.8,3,683,1,1,683,1,0,0.4,0.8,0.310999838862972,0.310999838862972,750,0,0,neutral,0.1,2849.04702589579,7733.19340012233
57,104,4,595,0.5,0.5,-0.5,4,4,0.8,4,661,1,1,661,1,0,0.4,NaN,0.170990903354706,0.170990903354706,750,1,0,congruent,1,6524.72912601775,3133.13474099206
57,104,4,596,0.5,-0.5,0,2,NaN,0.8,3,474,0,1,NaN,0,0,0.8,NaN,-1.01908504846555,NaN,750,0,1,neutral,0,4414.13611552025,2149.92288988821
57,104,4,597,-0.5,-0.5,0.5,1,2,0.8,2,593,0,1,NaN,1,0,0.8,0.4,-0.261763988216296,NaN,750,1,0,incongruent,0.1,10719.9031908261,10228.8018274673
57,104,4,598,-0.5,-0.5,0.5,4,3,0.8,4,627,1,1,627,0,0,1,0.6,-0.0453865424307948,-0.0453865424307948,750,0,0,incongruent,0,1118.86698321076,4283.54889042301
57,104,4,599,0.5,0.5,-0.5,2,2,0.8,2,520,1,1,520,1,0,0.8,NaN,-0.726339092402813,-0.726339092402813,750,1,0,congruent,1,4421.78188160503,2875.1772096219
57,104,4,600,0.5,0.5,-0.5,3,3,0.8,4,551,0,1,NaN,0,0,1,NaN,-0.529053774186621,NaN,750,0,1,congruent,0,7204.0594411094,5097.09689687436
