subid,vers,block,trial,rewlvl,efflvl,congruency,targetresp,distractorresp,rollingefflvl,resp,rt,acc,fast,accrt,isrewarded,ismiss,runavgrrgen,runavgrrcond,zrt,acczrt,rtthreshold,isdisterror,isranderror,congruence,feedback,fcz_resp_theta,fcz_resp_theta_baseline
58,104,1,1,-0.5,-0.5,0.5,1,4,0.7,1,591,1,1,591,0,0,0,0,-0.479656460110562,-0.479656460110562,750,0,0,incongruent,0,3182.55872702318,3401.19593437339
58,104,1,2,-0.5,0.5,0,2,NaN,0.7,2,547,1,1,547,1,0,0,0,-0.832254544096487,-0.832254544096487,750,0,0,neutral,0.1,4776.12053910733,4363.89883335972
58,104,1,3,-0.5,-0.5,-0.5,1,1,0.9,1,511,1,1,511,1,0,0.2,0,-1.12074388553952,-1.12074388553952,750,1,0,congruent,0.1,2089.82651329388,3369.23274994128
58,104,1,4,-0.5,0.5,-0.5,4,4,0.9,2,561,0,1,NaN,0,0,0.4,0.2,-0.72006424464642,NaN,750,0,1,congruent,0,18709.3579056038,1080.87051670675
58,104,1,5,0.5,0.5,0,1,NaN,0.7,1,560,1,1,560,1,0,0.4,NaN,-0.728077837464282,-0.728077837464282,750,0,0,neutral,1,7062.62003308227,3112.61515180006
58,104,1,7,-0.5,0.5,-0.5,1,1,0.7,1,578,1,1,578,1,0,1.2,0.2,-0.583833166742767,-0.583833166742767,750,1,0,congruent,0.1,3427.81990322561,4363.14774589957
58,104,1,8,-0.5,0.5,-0.5,4,4,0.7,4,942,1,0,942,0,0,1.2,0.4,2.33311461895898,2.33311461895898,750,1,0,congruent,0,2965.12535567387,1697.8786161741
58,104,1,9,-0.5,0.5,0.5,1,2,0.6,1,655,1,1,655,1,0,1,0.4,0.0332134802326033,0.0332134802326033,750,0,0,incongruent,0.1,5399.1773706261,1578.06532684307
58,104,1,10,0.5,-0.5,0,2,NaN,0.6,2,647,1,1,647,1,0,1.2,NaN,-0.0308952623102923,-0.0308952623102923,750,0,0,neutral,1,2647.09905716345,11384.1965271376
58,104,1,11,0.5,0.5,0.5,3,2,0.6,3,824,1,0,824,0,0,1.2,NaN,1.38751066645127,1.38751066645127,750,0,0,incongruent,0,2265.55271219672,4832.85614890435
58,104,1,12,-0.5,-0.5,-0.5,4,4,0.6,4,919,1,0,919,0,0,0.8,0.2,2.14880198414816,2.14880198414816,750,1,0,congruent,0,4831.38101818555,2792.07764571977
58,104,1,13,0.5,0.5,-0.5,3,3,0.6,3,822,1,0,822,0,0,0.6,NaN,1.37148348081555,1.37148348081555,750,1,0,congruent,0,4021.95352230647,5312.56021931002
58,104,1,14,0.5,-0.5,0,1,NaN,0.4,1,673,1,1,673,0,0,0.6,NaN,0.177458150954118,0.177458150954118,750,0,0,neutral,0,6640.95008453873,2014.07412058921
58,104,1,15,-0.5,-0.5,0.5,3,1,0.4,3,724,1,1,724,0,0,0.4,0.2,0.586151384665078,0.586151384665078,750,0,0,incongruent,0,5349.15060995896,2578.41439827867
58,104,1,16,0.5,-0.5,-0.5,4,4,0.4,4,670,1,1,670,0,0,0,NaN,0.153417372500533,0.153417372500533,750,1,0,congruent,0,1700.34383979012,2365.75464765692
58,104,1,17,-0.5,0.5,0.5,1,3,0.4,1,647,1,1,647,1,0,0,0.6,-0.0308952623102923,-0.0308952623102923,750,0,0,incongruent,0.1,3847.55247330995,2620.54368341778
58,104,1,19,-0.5,-0.5,0,2,NaN,0.4,2,641,1,1,641,0,0,0.4,0.4,-0.078976819217464,-0.078976819217464,750,0,0,neutral,0,2263.14709135243,4787.36861641832
58,104,1,20,-0.5,-0.5,-0.5,4,4,0.4,4,756,1,0,756,0,0,0.4,0.4,0.84258635483666,0.84258635483666,750,1,0,congruent,0,2558.54835945212,3731.01846959745
58,104,1,21,0.5,-0.5,0,2,NaN,0.4,2,533,1,1,533,1,0,0.4,NaN,-0.944444843546555,-0.944444843546555,750,0,0,neutral,1,6791.43822123644,2946.15897574647
58,104,1,22,-0.5,0.5,-0.5,3,3,0.4,3,730,1,1,730,1,0,0.8,0.6,0.63423294157225,0.63423294157225,750,1,0,congruent,0.1,7201.26836786238,3188.45821023628
58,104,1,23,0.5,0.5,-0.5,2,2,0.6,2,662,1,1,662,1,0,0.8,NaN,0.0893086299576369,0.0893086299576369,750,1,0,congruent,1,3369.0988642243,596.780164505929
58,104,1,24,-0.5,-0.5,0.5,1,4,0.6,1,509,1,1,509,0,0,1,0.2,-1.13677107117524,-1.13677107117524,750,0,0,incongruent,0,2240.65944408753,2960.88805529074
58,104,1,26,-0.5,0.5,0,3,NaN,0.6,3,720,1,1,720,1,0,1,0.8,0.55409701339363,0.55409701339363,750,0,0,neutral,0.1,10798.9995728939,5871.60161138112
58,104,1,28,0.5,0.5,0,1,NaN,0.8,1,519,1,1,519,1,0,0.8,NaN,-1.05663514299662,-1.05663514299662,750,0,0,neutral,1,5099.3938704201,3505.44079949526
58,104,1,29,-0.5,-0.5,0.5,3,1,0.8,3,496,1,1,496,1,0,0.8,0.4,-1.24094777780745,-1.24094777780745,750,0,0,incongruent,0.1,8345.68332735988,4089.24783478789
58,104,1,30,0.5,0.5,0,1,NaN,0.8,1,603,1,1,603,1,0,1,NaN,-0.383493346296218,-0.383493346296218,750,0,0,neutral,1,2626.90746857899,3973.48032680429
58,104,1,31,0.5,-0.5,-0.5,4,4,0.8,4,989,1,0,989,0,0,1.4,NaN,2.70975348139849,2.70975348139849,750,1,0,congruent,0,5728.14686596706,7621.90191569632
58,104,1,32,-0.5,0.5,0.5,1,3,0.8,1,720,1,1,720,1,0,1.2,0.8,0.55409701339363,0.55409701339363,750,0,0,incongruent,0.1,11321.7722065687,5437.07001747294
58,104,1,33,0.5,-0.5,0,4,NaN,0.8,4,793,1,0,793,1,0,1.2,NaN,1.13908928909755,1.13908928909755,750,0,0,neutral,1,3852.88137222417,2766.16825233797
58,104,1,34,-0.5,0.5,0.5,2,1,0.8,2,689,1,1,689,1,0,1.2,1,0.30567563603991,0.30567563603991,750,0,0,incongruent,0.1,4311.10368335659,2857.19093508407
58,104,1,35,0.5,-0.5,0,4,NaN,1,4,821,1,0,821,1,0,1.2,NaN,1.36346988799769,1.36346988799769,750,0,0,neutral,1,7302.09360626769,6730.36938549272
58,104,1,36,0.5,-0.5,-0.5,1,1,1,1,591,1,1,591,1,0,1.2,NaN,-0.479656460110562,-0.479656460110562,750,1,0,congruent,1,10498.2737093345,3815.93936974898
58,104,1,37,-0.5,-0.5,0,2,NaN,1,2,676,1,1,676,1,0,1.6,0.4,0.201498929407704,0.201498929407704,750,0,0,neutral,0.1,1610.33734774497,4507.00549138181
58,104,1,38,-0.5,0.5,-0.5,1,1,1,1,692,1,1,692,1,0,1.6,1,0.329716414493495,0.329716414493495,750,1,0,congruent,0.1,6974.4765036829,3675.59005755819
58,104,1,39,0.5,0.5,0,3,NaN,1,3,460,1,1,460,1,0,1.4,NaN,-1.52943711925048,-1.52943711925048,750,0,0,neutral,1,3187.36266065006,1430.95513884604
58,104,1,40,-0.5,0.5,-0.5,2,2,1,2,592,1,1,592,1,0,1.6,1,-0.4716428672927,-0.4716428672927,750,1,0,congruent,0.1,15033.8945259049,1677.30020591919
58,104,1,41,-0.5,0.5,0,1,NaN,1,1,560,1,1,560,1,0,1.4,1,-0.728077837464282,-0.728077837464282,750,0,0,neutral,0.1,6610.00992356834,6675.37313980631
58,104,1,42,0.5,-0.5,-0.5,3,3,1,3,691,1,1,691,1,0,1.2,NaN,0.321702821675634,0.321702821675634,750,1,0,congruent,1,6457.12191117322,6128.52464460133
58,104,1,43,0.5,-0.5,0.5,2,4,1,2,771,1,0,771,1,0,1.4,NaN,0.96279024710459,0.96279024710459,750,0,0,incongruent,1,7171.51560157625,17166.9193511796
58,104,1,44,-0.5,0.5,0,4,NaN,1,4,974,1,0,974,0,0,1.6,1,2.58954958913057,2.58954958913057,750,0,0,neutral,0,8404.12944296794,1249.70566109078
58,104,1,45,0.5,0.5,-0.5,3,3,0.8,3,941,1,0,941,0,0,1.2,NaN,2.32510102614112,2.32510102614112,750,1,0,congruent,0,1010.27892075242,3273.86122574683
58,104,1,46,0.5,0.5,0,4,NaN,0.6,4,891,1,0,891,0,0,1,NaN,1.92442138524802,1.92442138524802,750,0,0,neutral,0,3483.52675955186,5295.78462315064
58,104,1,47,-0.5,0.5,-0.5,3,3,0.4,3,547,1,1,547,1,0,0.8,0.8,-0.832254544096487,-0.832254544096487,750,1,0,congruent,0.1,9659.94217964608,4450.86918342996
58,104,1,48,0.5,-0.5,-0.5,1,1,0.4,1,608,1,1,608,0,0,0.6,NaN,-0.343425382206908,-0.343425382206908,750,1,0,congruent,0,1932.54959633575,1977.82624007055
58,104,1,49,-0.5,-0.5,0,2,NaN,0.4,2,967,1,0,967,0,0,0.2,0.6,2.53345443940553,2.53345443940553,750,0,0,neutral,0,775.638047568014,13750.510029374
58,104,1,50,0.5,-0.5,0.5,1,4,0.4,1,627,1,1,627,1,0,0.2,NaN,-0.191167118667531,-0.191167118667531,750,0,0,incongruent,1,2494.91580128738,4785.09962426984
58,104,1,51,-0.5,-0.5,0.5,3,2,0.4,3,885,1,0,885,1,0,0.6,0.6,1.87633982834085,1.87633982834085,750,0,0,incongruent,0.1,4867.53199080383,3110.37749676242
58,104,1,52,-0.5,-0.5,0.5,4,3,0.4,4,746,1,1,746,1,0,0.8,0.8,0.762450426658041,0.762450426658041,750,0,0,incongruent,0.1,23954.0288260322,5522.44471981726
58,104,1,53,-0.5,-0.5,0,3,NaN,0.4,3,595,1,1,595,0,0,0.8,0.8,-0.447602088839114,-0.447602088839114,750,0,0,neutral,0,3216.68689939088,2264.6812026379
58,104,1,54,0.5,0.5,-0.5,2,2,0.4,3,982,0,0,NaN,0,0,0.8,NaN,2.65365833167346,NaN,750,0,1,congruent,0,9594.88231734099,783.093339241474
58,104,1,55,0.5,0.5,0.5,4,3,0.2,4,883,1,0,883,0,0,0.8,NaN,1.86031264270513,1.86031264270513,750,0,0,incongruent,0,1686.70354420821,7352.4896721577
58,104,1,58,0.5,0.5,0.5,4,1,0.2,4,694,1,1,694,1,0,0,NaN,0.345743600129219,0.345743600129219,750,0,0,incongruent,1,4307.88641101532,9653.91647304177
58,104,1,59,0.5,0.5,-0.5,2,2,0.4,2,807,1,0,807,0,0,0.4,NaN,1.25127958854762,1.25127958854762,750,1,0,congruent,0,4881.59902869631,6600.39627000869
58,104,1,60,-0.5,0.5,0,3,NaN,0.2,3,648,1,1,648,1,0,0.4,0.6,-0.0228816694924304,-0.0228816694924304,750,0,0,neutral,0.1,2139.87351704399,2783.61784864041
58,104,1,61,-0.5,-0.5,-0.5,1,1,0.4,1,558,1,1,558,1,0,0.6,0.6,-0.744105023100006,-0.744105023100006,750,1,0,congruent,0.1,1471.85779824567,6647.32442011663
58,104,1,62,-0.5,-0.5,0,2,NaN,0.4,2,878,1,0,878,0,0,0.8,0.6,1.82024467861582,1.82024467861582,750,0,0,neutral,0,21136.5546192003,2710.31845644662
58,104,1,63,-0.5,-0.5,-0.5,3,3,0.4,3,643,1,1,643,0,0,0.8,0.6,-0.0629496335817401,-0.0629496335817401,750,1,0,congruent,0,1474.20228633256,2825.11987292623
58,104,1,64,0.5,0.5,0,4,NaN,0.4,4,967,1,0,967,0,0,0.4,NaN,2.53345443940553,2.53345443940553,750,0,0,neutral,0,711.742650524188,6501.02694298762
58,104,1,65,0.5,0.5,-0.5,2,2,0.4,2,635,1,1,635,1,0,0.4,NaN,-0.127058376124636,-0.127058376124636,750,1,0,congruent,1,2061.75844313542,4567.32437230632
58,104,1,66,0.5,0.5,0,1,NaN,0.6,1,597,1,1,597,1,0,0.6,NaN,-0.43157490320339,-0.43157490320339,750,0,0,neutral,1,356.568931252341,4904.98795200569
58,104,1,67,-0.5,-0.5,-0.5,3,3,0.6,3,626,1,1,626,0,0,0.8,0.4,-0.199180711485393,-0.199180711485393,750,1,0,congruent,0,3652.35676673246,7751.953023711
58,104,1,68,-0.5,-0.5,0,4,NaN,0.6,4,703,1,1,703,1,0,0.8,0.2,0.417865935489977,0.417865935489977,750,0,0,neutral,0.1,5180.32478244754,5883.71957828408
58,104,1,69,-0.5,-0.5,-0.5,2,2,0.6,3,565,0,1,NaN,1,0,1,0.4,-0.688009873374972,NaN,750,0,1,congruent,0.1,16361.3861257711,1157.57133392158
58,104,1,70,0.5,-0.5,0.5,1,3,0.6,1,694,1,1,694,1,0,1.2,NaN,0.345743600129219,0.345743600129219,750,0,0,incongruent,1,4600.19221282484,4101.443928818
58,104,1,71,0.5,-0.5,0.5,3,4,0.6,3,816,1,0,816,0,0,1.2,NaN,1.32340192390838,1.32340192390838,750,0,0,incongruent,0,2697.59966089849,7192.43512660726
58,104,1,72,-0.5,0.5,0.5,2,1,0.6,2,710,1,1,710,1,0,0.8,0.6,0.473961085215011,0.473961085215011,750,0,0,incongruent,0.1,1587.01327757932,2823.26130989343
58,104,1,73,0.5,0.5,0,4,NaN,0.8,4,434,1,1,434,1,0,1,NaN,-1.73779053251489,-1.73779053251489,750,0,0,neutral,1,6260.58434145948,4475.93332472159
58,104,1,74,-0.5,0.5,-0.5,3,3,0.8,3,840,1,0,840,0,0,1.2,0.6,1.51572815153706,1.51572815153706,750,1,0,congruent,0,2947.24120254034,20683.5024190202
58,104,1,75,-0.5,-0.5,0,1,NaN,0.8,1,561,1,1,561,0,0,1,0.4,-0.72006424464642,-0.72006424464642,750,0,0,neutral,0,2667.20921791955,4411.46673788078
58,104,1,76,0.5,-0.5,-0.5,4,4,0.8,4,627,1,1,627,1,0,0.6,NaN,-0.191167118667531,-0.191167118667531,750,1,0,congruent,1,1573.24085891141,1720.3445733032
58,104,1,77,0.5,0.5,0,3,NaN,0.8,3,535,1,1,535,1,0,1,NaN,-0.928417657910831,-0.928417657910831,750,0,0,neutral,1,1426.70774479035,1726.71484060977
58,104,1,78,-0.5,-0.5,-0.5,1,1,0.8,1,452,1,1,452,0,0,1.2,0.4,-1.59354586179337,-1.59354586179337,750,1,0,congruent,0,2562.11915972984,2343.64952517369
58,104,1,79,0.5,-0.5,0.5,3,2,0.8,3,654,1,1,654,0,0,0.8,NaN,0.0251998874147413,0.0251998874147413,750,0,0,incongruent,0,1438.96897062656,3626.57720660763
58,104,1,80,0.5,0.5,-0.5,1,1,0.8,1,552,1,1,552,1,0,0.8,NaN,-0.792186580007178,-0.792186580007178,750,1,0,congruent,1,4818.56911330261,4715.95296276628
58,104,1,81,-0.5,0.5,0.5,2,3,0.8,2,648,1,1,648,1,0,1.2,0.6,-0.0228816694924304,-0.0228816694924304,750,0,0,incongruent,0.1,1494.41062046632,6338.86678388902
58,104,1,82,0.5,-0.5,0.5,3,1,0.8,3,627,1,1,627,1,0,1,NaN,-0.191167118667531,-0.191167118667531,750,0,0,incongruent,1,8189.14579356711,5091.60297033876
58,104,1,83,-0.5,-0.5,0,4,NaN,0.8,4,803,1,0,803,0,0,1,0.4,1.21922521727617,1.21922521727617,750,0,0,neutral,0,2186.02180537295,7565.78681528393
58,104,1,84,-0.5,-0.5,0.5,3,1,0.8,3,567,1,1,567,1,0,1,0.4,-0.671982687739248,-0.671982687739248,750,0,0,incongruent,0.1,3755.54702497508,3935.82105625664
58,104,1,86,0.5,0.5,0.5,4,3,0.6,4,584,1,1,584,1,0,0.8,NaN,-0.535751609835595,-0.535751609835595,750,0,0,incongruent,1,1904.149950236,1233.49546102783
58,104,1,87,-0.5,0.5,-0.5,1,1,0.8,1,565,1,1,565,1,0,1,0.6,-0.688009873374972,-0.688009873374972,750,1,0,congruent,0.1,7478.4335139421,2132.45039500752
58,104,1,88,0.5,0.5,0,4,NaN,0.8,4,812,1,0,812,0,0,0.8,NaN,1.29134755263693,1.29134755263693,750,0,0,neutral,0,6961.35758963366,9598.58353392306
58,104,1,89,0.5,-0.5,0.5,2,4,0.6,2,882,1,0,882,0,0,0.8,NaN,1.85229904988727,1.85229904988727,750,0,0,incongruent,0,1882.80785472305,2829.66379676413
58,104,1,90,-0.5,-0.5,-0.5,3,3,0.6,3,805,1,0,805,1,0,0.6,0.4,1.2352524029119,1.2352524029119,750,1,0,congruent,0.1,4753.73750331901,3832.64316476778
58,104,1,92,-0.5,-0.5,0,4,NaN,0.4,4,639,1,1,639,0,0,0.4,0.4,-0.0950040048531879,-0.0950040048531879,750,0,0,neutral,0,3052.84005386637,961.824018712842
58,104,1,93,0.5,0.5,-0.5,2,2,0.4,2,717,1,1,717,1,0,0.2,NaN,0.530056234940044,0.530056234940044,750,1,0,congruent,1,18154.5443706397,2893.69448366242
58,104,1,94,0.5,-0.5,0,4,NaN,0.6,4,577,1,1,577,0,0,0.6,NaN,-0.591846759560629,-0.591846759560629,750,0,0,neutral,0,6727.01722054822,4702.06502850553
58,104,1,95,0.5,0.5,-0.5,3,3,0.6,3,642,1,1,642,1,0,0.6,NaN,-0.0709632263996021,-0.0709632263996021,750,1,0,congruent,1,11026.7411115614,4694.80035527249
58,104,1,96,0.5,-0.5,0,4,NaN,0.6,4,470,1,1,470,1,0,0.8,NaN,-1.44930119107186,-1.44930119107186,750,0,0,neutral,1,3604.1216289727,1297.58782895659
58,104,1,97,-0.5,-0.5,-0.5,2,2,0.6,2,596,1,1,596,0,0,1.2,0.4,-0.439588496021252,-0.439588496021252,750,1,0,congruent,0,8386.10257878692,1600.00065761154
58,104,1,98,0.5,-0.5,-0.5,1,1,0.6,1,707,1,1,707,1,0,1.2,NaN,0.449920306761425,0.449920306761425,750,1,0,congruent,1,1789.81012768371,11223.942507462
58,104,1,99,-0.5,0.5,0.5,4,3,0.6,4,664,1,1,664,1,0,1.2,0.6,0.105335815593361,0.105335815593361,750,0,0,incongruent,0.1,4582.61665866294,832.622221659868
58,104,1,100,0.5,0.5,0,2,NaN,0.6,2,563,1,1,563,1,0,1.4,NaN,-0.704037059010696,-0.704037059010696,750,0,0,neutral,1,3158.56194968909,2223.96533800475
58,104,1,101,0.5,0.5,-0.5,1,1,0.8,1,552,1,1,552,1,0,1.4,NaN,-0.792186580007178,-0.792186580007178,750,1,0,congruent,1,2216.87953698234,4842.19758589069
58,104,1,103,-0.5,0.5,0.5,2,4,0.8,2,695,1,1,695,1,0,1.4,0.6,0.353757192947081,0.353757192947081,750,0,0,incongruent,0.1,4234.12362173957,8502.23038723216
58,104,1,104,0.5,-0.5,0,4,NaN,0.8,4,830,1,0,830,1,0,1.2,NaN,1.43559222335844,1.43559222335844,750,0,0,neutral,1,5845.5890316989,2736.25696974454
58,104,1,105,0.5,0.5,-0.5,3,3,0.8,3,608,1,1,608,1,0,1.4,NaN,-0.343425382206908,-0.343425382206908,750,1,0,congruent,1,2933.82778411421,3362.9520360772
58,104,1,106,-0.5,-0.5,0.5,4,1,0.8,4,629,1,1,629,1,0,1.4,0.4,-0.175139933031807,-0.175139933031807,750,0,0,incongruent,0.1,4136.36988412077,5102.86960790371
58,104,1,107,-0.5,-0.5,0.5,1,4,0.8,1,578,1,1,578,1,0,1.2,0.6,-0.583833166742767,-0.583833166742767,750,0,0,incongruent,0.1,2699.64942680025,2542.06612332244
58,104,1,108,-0.5,-0.5,0.5,2,1,0.8,2,619,1,1,619,1,0,1.4,0.6,-0.255275861210427,-0.255275861210427,750,0,0,incongruent,0.1,3284.91740950418,7726.74648657999
58,104,1,109,-0.5,0.5,0.5,1,4,0.8,1,574,1,1,574,1,0,1.4,0.8,-0.615887538014215,-0.615887538014215,750,0,0,incongruent,0.1,4194.33580923141,2064.50685899276
58,104,1,110,-0.5,-0.5,-0.5,2,2,0.8,2,630,1,1,630,1,0,1.2,0.6,-0.167126340213945,-0.167126340213945,750,1,0,congruent,0.1,6263.91676039357,4340.19452134275
58,104,1,111,0.5,0.5,-0.5,4,4,0.8,4,623,1,1,623,1,0,1,NaN,-0.223221489938979,-0.223221489938979,750,1,0,congruent,1,2544.746015465,15711.9350668548
58,104,1,112,-0.5,-0.5,0.5,3,1,0.8,3,364,1,1,364,1,0,1.2,0.8,-2.29874202976522,-2.29874202976522,750,0,0,incongruent,0.1,11368.7675996339,5132.55576640534
58,104,1,113,0.5,-0.5,0.5,1,2,0.8,1,621,1,1,621,0,0,1.2,NaN,-0.239248675574703,-0.239248675574703,750,0,0,incongruent,0,3609.71095177412,10096.737200723
58,104,1,115,0.5,-0.5,0,1,NaN,0.8,1,506,1,1,506,0,0,1.2,NaN,-1.16081184962883,-1.16081184962883,750,0,0,neutral,0,4568.95914110213,3551.84604902103
58,104,1,116,-0.5,0.5,-0.5,3,3,0.8,3,587,1,1,587,1,0,1,0.8,-0.511710831382009,-0.511710831382009,750,1,0,congruent,0.1,3178.20407564982,3233.48295923023
58,104,1,117,0.5,0.5,0,2,NaN,1,2,895,1,0,895,0,0,0.8,NaN,1.95647575651947,1.95647575651947,750,0,0,neutral,0,6465.13901278621,17092.5477096854
58,104,1,118,0.5,-0.5,0.5,3,4,0.8,3,587,1,1,587,0,0,0.6,NaN,-0.511710831382009,-0.511710831382009,750,0,0,incongruent,0,2222.12486176225,1589.65601416226
58,104,1,119,-0.5,0.5,0.5,4,3,0.8,4,581,1,1,581,1,0,0.6,1,-0.559792388289181,-0.559792388289181,750,0,0,incongruent,0.1,1536.96227904731,4276.53375258828
58,104,1,120,0.5,0.5,-0.5,2,2,0.8,2,686,1,1,686,1,0,0.4,NaN,0.281634857586324,0.281634857586324,750,1,0,congruent,1,1856.12162280166,13093.8492819723
58,104,1,121,-0.5,0.5,-0.5,3,3,0.8,3,706,1,1,706,1,0,0.8,1,0.441906713943563,0.441906713943563,750,1,0,congruent,0.1,1310.6115242028,594.318297683426
58,104,1,122,-0.5,0.5,0.5,4,2,0.8,4,579,1,1,579,1,0,0.8,1,-0.575819573924905,-0.575819573924905,750,0,0,incongruent,0.1,5231.68665484204,7958.87934567971
58,104,1,123,-0.5,-0.5,0,1,NaN,0.8,1,552,1,1,552,1,0,1,1,-0.792186580007178,-0.792186580007178,750,0,0,neutral,0.1,5640.01010522408,1658.54406023682
58,104,1,124,-0.5,-0.5,-0.5,3,3,0.8,3,594,1,1,594,0,0,1.2,1,-0.455615681656976,-0.455615681656976,750,1,0,congruent,0,3397.66433502401,4124.72067069712
58,104,1,125,0.5,0.5,0,1,NaN,0.8,1,436,1,1,436,1,0,1,NaN,-1.72176334687916,-1.72176334687916,750,0,0,neutral,1,2110.01553556559,1204.69865331913
58,104,1,126,-0.5,-0.5,-0.5,4,4,1,4,489,1,1,489,1,0,1,0.8,-1.29704292753248,-1.29704292753248,750,1,0,congruent,0.1,1999.32656332548,998.388692870175
58,104,1,127,-0.5,0.5,0,3,NaN,1,3,730,1,1,730,1,0,1,1,0.63423294157225,0.63423294157225,750,0,0,neutral,0.1,7380.64252952546,7992.92899492059
58,104,1,128,-0.5,0.5,0.5,2,1,1,2,609,1,1,609,1,0,1,1,-0.335411789389046,-0.335411789389046,750,0,0,incongruent,0.1,2628.90489021267,2104.27677061459
58,104,1,130,0.5,0.5,-0.5,1,1,0.8,1,551,1,1,551,1,0,1,NaN,-0.80020017282504,-0.80020017282504,750,1,0,congruent,1,1562.78510997587,1342.84203925706
58,104,1,131,-0.5,0.5,0,2,NaN,0.8,2,702,1,1,702,1,0,1,0.8,0.409852342672115,0.409852342672115,750,0,0,neutral,0.1,5385.25654183173,3658.59130552249
58,104,1,132,-0.5,0.5,-0.5,4,4,0.8,4,661,1,1,661,1,0,1,0.8,0.081295037139775,0.081295037139775,750,1,0,congruent,0.1,3170.99376204081,1474.34441657018
58,104,1,133,0.5,-0.5,0.5,1,3,0.8,1,647,1,1,647,1,0,1,NaN,-0.0308952623102923,-0.0308952623102923,750,0,0,incongruent,1,19282.190600089,7243.54994701828
58,104,1,134,-0.5,0.5,0,2,NaN,0.8,2,480,1,1,480,1,0,1.2,0.8,-1.36916526289324,-1.36916526289324,750,0,0,neutral,0.1,10477.3586897185,1655.1826477795
58,104,1,135,-0.5,-0.5,-0.5,3,3,0.8,3,771,1,0,771,1,0,1.4,0.8,0.96279024710459,0.96279024710459,750,1,0,congruent,0.1,15839.4986345251,15812.7921218823
58,104,1,136,0.5,0.5,-0.5,2,2,0.8,2,867,1,0,867,0,0,1.2,NaN,1.73209515761934,1.73209515761934,750,1,0,congruent,0,3558.56331114475,4095.09024959815
58,104,1,137,0.5,-0.5,0,4,NaN,0.8,4,586,1,1,586,0,0,1,NaN,-0.519724424199871,-0.519724424199871,750,0,0,neutral,0,4385.23769227472,1034.04413432651
58,104,1,138,-0.5,0.5,-0.5,2,2,0.8,2,503,1,1,503,1,0,0.8,0.8,-1.18485262808241,-1.18485262808241,750,1,0,congruent,0.1,4058.71601457393,579.070368349308
58,104,1,139,-0.5,0.5,0.5,4,3,0.8,4,667,1,1,667,1,0,0.6,0.8,0.129376594046947,0.129376594046947,750,0,0,incongruent,0.1,5112.96861626107,2032.38977592329
58,104,1,140,-0.5,0.5,0,1,NaN,0.8,1,531,1,1,531,1,0,0.6,1,-0.960472029182279,-0.960472029182279,750,0,0,neutral,0.1,3426.30049189435,13208.2007647847
58,104,1,141,0.5,0.5,-0.5,3,3,0.8,3,687,1,1,687,1,0,0.6,NaN,0.289648450404186,0.289648450404186,750,1,0,congruent,1,13077.054509463,3981.06797246493
58,104,1,142,0.5,0.5,-0.5,4,4,0.8,4,494,1,1,494,1,0,1,NaN,-1.25697496344317,-1.25697496344317,750,1,0,congruent,1,2124.29571594649,1284.00016938317
58,104,1,143,0.5,0.5,0,3,NaN,1,3,595,1,1,595,1,0,1.4,NaN,-0.447602088839114,-0.447602088839114,750,0,0,neutral,1,4630.73171015853,3726.15017318797
58,104,1,144,-0.5,-0.5,-0.5,2,2,1,2,628,1,1,628,1,0,1.6,0.8,-0.183153525849669,-0.183153525849669,750,1,0,congruent,0.1,1778.11626739125,937.238469647525
58,104,1,145,0.5,0.5,0.5,4,3,1,2,804,0,0,NaN,0,0,1.6,NaN,1.22723881009403,NaN,750,0,1,incongruent,0,1685.08706774991,2115.06039286539
58,104,1,146,0.5,-0.5,0.5,2,1,0.8,2,720,1,1,720,1,0,1.4,NaN,0.55409701339363,0.55409701339363,750,0,0,incongruent,1,4468.02262120964,10952.6970014054
58,104,1,147,-0.5,0.5,-0.5,4,4,0.8,4,658,1,1,658,1,0,1.4,1,0.0572542586861891,0.0572542586861891,750,1,0,congruent,0.1,5011.03179948097,2980.33485942503
58,104,1,148,-0.5,0.5,0,3,NaN,0.8,3,648,1,1,648,1,0,1.2,1,-0.0228816694924304,-0.0228816694924304,750,0,0,neutral,0.1,7871.70131191338,8068.82574058681
58,104,1,149,-0.5,0.5,0.5,2,1,0.8,2,721,1,1,721,1,0,1,1,0.562110606211492,0.562110606211492,750,0,0,incongruent,0.1,9480.02763542359,4310.77790850104
58,104,1,150,0.5,-0.5,0,4,NaN,0.8,4,588,1,1,588,1,0,1,NaN,-0.503697238564147,-0.503697238564147,750,0,0,neutral,1,3783.5884495943,1490.34665308586
58,104,2,151,0.5,0.5,-0.5,3,3,0.8,3,917,1,0,917,0,0,1.4,NaN,2.13277479851243,2.13277479851243,750,1,0,congruent,0,4144.17966092361,5445.79179809611
58,104,2,152,-0.5,-0.5,-0.5,1,1,0.6,1,475,1,1,475,1,0,1,0.8,-1.40923322698255,-1.40923322698255,750,1,0,congruent,0.1,1846.47642713322,3471.68743383864
58,104,2,153,0.5,0.5,0.5,4,3,0.6,4,580,1,1,580,1,0,1,NaN,-0.567805981107043,-0.567805981107043,750,0,0,incongruent,1,2421.23769269826,2013.5067253728
58,104,2,154,-0.5,0.5,0.5,3,1,0.8,3,692,1,1,692,1,0,1.2,1,0.329716414493495,0.329716414493495,750,0,0,incongruent,0.1,3529.98112907538,3005.45969302076
58,104,2,155,-0.5,-0.5,0,2,NaN,0.8,2,832,1,0,832,0,0,1.2,0.8,1.45161940899417,1.45161940899417,750,0,0,neutral,0,2274.06163331954,6571.6531149494
58,104,2,156,0.5,0.5,-0.5,3,3,0.8,3,714,1,1,714,1,0,0.8,NaN,0.506015456486458,0.506015456486458,750,1,0,congruent,1,3277.6615272506,2938.4312258804
58,104,2,158,-0.5,-0.5,0.5,4,1,0.8,4,618,1,1,618,0,0,1.2,0.8,-0.263289454028289,-0.263289454028289,750,0,0,incongruent,0,1339.82864579745,1174.931810453
58,104,2,159,0.5,-0.5,-0.5,3,3,0.8,3,720,1,1,720,1,0,0.8,NaN,0.55409701339363,0.55409701339363,750,1,0,congruent,1,1508.59377628425,3657.10558373632
58,104,2,160,-0.5,0.5,-0.5,4,4,0.8,4,850,1,0,850,0,0,1,1,1.59586407971568,1.59586407971568,750,1,0,congruent,0,5330.67685605092,3864.9920406954
58,104,2,161,0.5,0.5,-0.5,1,1,0.6,1,822,1,0,822,0,0,1,NaN,1.37148348081555,1.37148348081555,750,1,0,congruent,0,4090.57181568378,2682.23468364801
58,104,2,162,-0.5,0.5,0,4,NaN,0.6,4,646,1,1,646,1,0,0.6,0.8,-0.0389088551281543,-0.0389088551281543,750,0,0,neutral,0.1,4130.44565502498,3445.08994216067
58,104,2,163,-0.5,0.5,-0.5,3,3,0.6,3,749,1,1,749,1,0,0.6,0.8,0.786491205111627,0.786491205111627,750,1,0,congruent,0.1,6301.22349192953,5553.45270662234
58,104,2,164,-0.5,0.5,0.5,2,1,0.6,2,663,1,1,663,1,0,0.8,0.8,0.0973222227754989,0.0973222227754989,750,0,0,incongruent,0.1,4423.39662997955,8696.65059831059
58,104,2,165,0.5,0.5,0.5,1,2,0.6,1,516,1,1,516,1,0,0.6,NaN,-1.08067592145021,-1.08067592145021,750,0,0,incongruent,1,3025.08989108812,2954.15573234378
58,104,2,166,0.5,0.5,0.5,2,1,0.8,2,620,1,1,620,1,0,1,NaN,-0.247262268392565,-0.247262268392565,750,0,0,incongruent,1,1593.97834520463,6900.51253428553
58,104,2,167,0.5,0.5,-0.5,4,4,1,2,588,0,1,NaN,0,0,1.4,NaN,-0.503697238564147,NaN,750,0,1,congruent,0,8703.73756189173,2539.07173310755
58,104,2,168,-0.5,0.5,-0.5,2,2,0.8,2,649,1,1,649,1,0,1.2,0.8,-0.0148680766745684,-0.0148680766745684,750,1,0,congruent,0.1,6270.5725678599,1463.86525084476
58,104,2,169,-0.5,-0.5,0,3,NaN,0.8,3,663,1,1,663,0,0,1.2,0.6,0.0973222227754989,0.0973222227754989,750,0,0,neutral,0,5602.23244653379,4768.64952017492
58,104,2,171,-0.5,0.5,0.5,4,3,0.8,4,832,1,0,832,0,0,0.6,0.8,1.45161940899417,1.45161940899417,750,0,0,incongruent,0,2807.05286107964,2049.46759624657
58,104,2,173,-0.5,-0.5,-0.5,3,3,0.4,3,551,1,1,551,0,0,0.2,0.4,-0.80020017282504,-0.80020017282504,750,1,0,congruent,0,2772.06082845262,2456.46264549572
58,104,2,174,0.5,-0.5,0.5,1,2,0.4,1,958,1,0,958,0,0,0,NaN,2.46133210404477,2.46133210404477,750,0,0,incongruent,0,5933.6340516556,5423.22434977164
58,104,2,176,0.5,-0.5,-0.5,2,2,0.2,2,648,1,1,648,0,0,0,NaN,-0.0228816694924304,-0.0228816694924304,750,1,0,congruent,0,6470.03890491891,8972.67082885418
58,104,2,177,0.5,0.5,-0.5,4,4,0.2,4,567,1,1,567,1,0,0,NaN,-0.671982687739248,-0.671982687739248,750,1,0,congruent,1,4479.57912915602,4247.76902440104
58,104,2,178,-0.5,-0.5,0,2,NaN,0.4,2,626,1,1,626,1,0,0.4,0.2,-0.199180711485393,-0.199180711485393,750,0,0,neutral,0.1,7571.9089148893,1902.57770013794
58,104,2,179,0.5,-0.5,-0.5,1,1,0.4,1,709,1,1,709,0,0,0.6,NaN,0.465947492397149,0.465947492397149,750,1,0,congruent,0,4750.04367730226,4105.97748151172
58,104,2,180,-0.5,-0.5,0.5,2,3,0.4,2,845,1,0,845,0,0,0.6,0.4,1.55579611562637,1.55579611562637,750,0,0,incongruent,0,6055.2425211976,12420.1367930064
58,104,2,181,-0.5,-0.5,0.5,3,1,0.4,3,905,1,0,905,0,0,0.6,0.2,2.03661168469809,2.03661168469809,750,0,0,incongruent,0,5213.98144565538,3392.14260735887
58,104,2,182,0.5,-0.5,0,1,NaN,0.4,1,710,1,1,710,0,0,0.6,NaN,0.473961085215011,0.473961085215011,750,0,0,neutral,0,5830.67136740003,7112.97341948912
58,104,2,183,-0.5,-0.5,-0.5,4,4,0.4,4,986,1,0,986,1,0,0.2,0.2,2.68571270294491,2.68571270294491,750,1,0,congruent,0.1,2969.57106089874,1690.07740254588
58,104,2,184,0.5,0.5,-0.5,1,1,0.4,1,567,1,1,567,1,0,0.2,NaN,-0.671982687739248,-0.671982687739248,750,1,0,congruent,1,2289.15518480404,2550.59236454092
58,104,2,185,0.5,-0.5,-0.5,3,3,0.4,3,847,1,0,847,0,0,0.6,NaN,1.5718233012621,1.5718233012621,750,1,0,congruent,0,6716.63603029632,5132.96298269222
58,104,2,186,-0.5,0.5,0.5,4,2,0.4,4,680,1,1,680,1,0,0.6,0.6,0.233553300679152,0.233553300679152,750,0,0,incongruent,0.1,1739.47763018685,955.533496710821
58,104,2,187,-0.5,0.5,0.5,3,4,0.6,3,604,1,1,604,1,0,0.8,0.6,-0.375479753478356,-0.375479753478356,750,0,0,incongruent,0.1,2454.77402812504,3935.06920389266
58,104,2,188,-0.5,0.5,0,1,NaN,0.8,1,838,1,0,838,0,0,1,0.6,1.49970096590134,1.49970096590134,750,0,0,neutral,0,3465.27678088949,6251.86959411999
58,104,2,189,0.5,0.5,-0.5,3,3,0.8,3,640,1,1,640,1,0,0.8,NaN,-0.086990412035326,-0.086990412035326,750,1,0,congruent,1,6319.10790553359,2196.91058962314
58,104,2,190,-0.5,-0.5,-0.5,1,1,0.8,1,572,1,1,572,1,0,0.8,0.4,-0.631914723649939,-0.631914723649939,750,1,0,congruent,0.1,2536.02788655903,1600.66103947794
58,104,2,191,0.5,-0.5,0,2,NaN,0.8,2,859,1,0,859,1,0,1,NaN,1.66798641507644,1.66798641507644,750,0,0,neutral,1,2051.60227358789,2465.64446048748
58,104,2,192,0.5,0.5,0.5,3,1,0.8,3,586,1,1,586,1,0,1.2,NaN,-0.519724424199871,-0.519724424199871,750,0,0,incongruent,1,1758.54194162737,3290.79739407094
58,104,2,193,0.5,-0.5,0,4,NaN,0.8,4,494,1,1,494,1,0,1.4,NaN,-1.25697496344317,-1.25697496344317,750,0,0,neutral,1,3982.09031866784,5430.74790764671
58,104,2,194,0.5,-0.5,-0.5,3,3,0.8,3,573,1,1,573,1,0,1.8,NaN,-0.623901130832077,-0.623901130832077,750,1,0,congruent,1,551.320371042486,2455.32637604778
58,104,2,195,0.5,-0.5,0,4,NaN,0.8,4,645,1,1,645,1,0,1.8,NaN,-0.0469224479460162,-0.0469224479460162,750,0,0,neutral,1,5896.50129187906,1681.5932608465
58,104,2,196,0.5,-0.5,0.5,3,4,0.8,3,639,1,1,639,1,0,2,NaN,-0.0950040048531879,-0.0950040048531879,750,0,0,incongruent,1,2165.47791443766,3260.3289115738
58,104,2,197,-0.5,0.5,0.5,2,3,0.8,2,632,1,1,632,1,0,2,0.4,-0.151099154578222,-0.151099154578222,750,0,0,incongruent,0.1,4054.70620519842,628.141767300215
58,104,2,198,-0.5,-0.5,0.5,4,1,0.8,4,906,1,0,906,0,0,1.8,0.6,2.04462527751595,2.04462527751595,750,0,0,incongruent,0,2077.55921707312,8762.85414743227
58,104,2,199,-0.5,-0.5,0.5,1,4,0.8,1,650,1,1,650,1,0,1.4,0.4,-0.00685448385670648,-0.00685448385670648,750,0,0,incongruent,0.1,3172.53816093513,8714.8210387403
58,104,2,200,-0.5,-0.5,-0.5,3,3,0.8,3,674,1,1,674,1,0,1.2,0.6,0.18547174377198,0.18547174377198,750,1,0,congruent,0.1,1521.33147656453,2508.13134798053
58,104,2,201,-0.5,0.5,0.5,2,4,0.8,2,721,1,1,721,1,0,1,0.6,0.562110606211492,0.562110606211492,750,0,0,incongruent,0.1,1888.57989946506,1584.94720243446
58,104,2,202,-0.5,0.5,-0.5,3,3,0.8,3,792,1,0,792,0,0,0.8,0.8,1.13107569627969,1.13107569627969,750,1,0,congruent,0,9912.55163338347,437.45811113367
58,104,2,203,-0.5,-0.5,-0.5,4,4,0.8,4,605,1,1,605,1,0,0.6,0.8,-0.367466160660494,-0.367466160660494,750,1,0,congruent,0.1,5766.59225042272,5794.81204187628
58,104,2,204,-0.5,-0.5,0.5,2,1,0.8,2,459,1,1,459,1,0,0.8,0.8,-1.53745071206834,-1.53745071206834,750,0,0,incongruent,0.1,9291.24741485084,12429.5476555073
58,104,2,205,0.5,0.5,-0.5,4,4,0.8,4,496,1,1,496,1,0,0.8,NaN,-1.24094777780745,-1.24094777780745,750,1,0,congruent,1,2708.72652748403,12604.1340836439
58,104,2,206,0.5,0.5,0,2,NaN,0.8,2,557,1,1,557,1,0,1,NaN,-0.752118615917868,-0.752118615917868,750,0,0,neutral,1,2213.10037382426,2646.57028948263
58,104,2,207,0.5,-0.5,-0.5,1,1,0.8,1,530,1,1,530,0,0,1.2,NaN,-0.968485622000141,-0.968485622000141,750,1,0,congruent,0,12675.3922847504,3836.18049141481
58,104,2,208,0.5,-0.5,0.5,3,4,0.8,2,805,0,0,NaN,1,0,1.2,NaN,1.2352524029119,NaN,750,0,1,incongruent,1,2096.8773469312,2725.11386816025
58,104,2,209,-0.5,-0.5,0,4,NaN,0.8,4,909,1,0,909,0,0,1.4,0.8,2.06866605596954,2.06866605596954,750,0,0,neutral,0,7096.22265756196,4191.53850137223
58,104,2,210,-0.5,-0.5,0.5,1,2,0.8,1,601,1,1,601,1,0,1.2,0.8,-0.399520531931942,-0.399520531931942,750,0,0,incongruent,0.1,2390.9585709547,2818.49029140929
58,104,2,211,-0.5,-0.5,-0.5,3,3,0.8,3,612,1,1,612,1,0,1,0.8,-0.311371010935461,-0.311371010935461,750,1,0,congruent,0.1,3107.93538842911,2740.90318365551
58,104,2,212,0.5,-0.5,-0.5,2,2,0.8,2,668,1,1,668,1,0,0.8,NaN,0.137390186864809,0.137390186864809,750,1,0,congruent,1,8568.32305804299,2532.64682555497
58,104,2,213,-0.5,0.5,0,4,NaN,0.8,4,594,1,1,594,1,0,1.2,0.6,-0.455615681656976,-0.455615681656976,750,0,0,neutral,0.1,3183.00331640337,1772.08367536407
58,104,2,214,-0.5,0.5,-0.5,3,3,0.8,3,755,1,0,755,0,0,1,0.6,0.834572762018798,0.834572762018798,750,1,0,congruent,0,33874.511352766,2881.82656607807
58,104,2,215,0.5,-0.5,-0.5,4,4,0.6,4,910,1,0,910,1,0,1,NaN,2.0766796487874,2.0766796487874,750,1,0,congruent,1,1918.61740051004,1789.76500193911
58,104,2,216,-0.5,0.5,0.5,2,1,0.6,2,766,1,0,766,0,0,1.2,0.6,0.92272228301528,0.92272228301528,750,0,0,incongruent,0,1385.99888171599,1730.20441489718
58,104,2,217,0.5,0.5,0,1,NaN,0.6,1,557,1,1,557,1,0,1,NaN,-0.752118615917868,-0.752118615917868,750,0,0,neutral,1,1942.35041033619,1971.11656591003
58,104,2,218,0.5,0.5,-0.5,4,4,0.6,4,580,1,1,580,1,0,1,NaN,-0.567805981107043,-0.567805981107043,750,1,0,congruent,1,1440.58117287827,6903.53645195096
58,104,2,219,0.5,-0.5,-0.5,1,1,0.6,1,712,1,1,712,1,0,1.2,NaN,0.489988270850734,0.489988270850734,750,1,0,congruent,1,3272.8304829373,3286.59765112221
58,104,2,220,0.5,0.5,-0.5,3,3,0.6,3,560,1,1,560,1,0,1.6,NaN,-0.728077837464282,-0.728077837464282,750,1,0,congruent,1,2438.87237790562,890.942577947341
58,104,2,221,-0.5,-0.5,-0.5,1,1,0.6,1,532,1,1,532,0,0,1.6,0.8,-0.952458436364417,-0.952458436364417,750,1,0,congruent,0,2544.17813869148,3272.06770178196
58,104,2,222,-0.5,-0.5,-0.5,2,2,0.6,2,554,1,1,554,1,0,1.6,0.6,-0.776159394371454,-0.776159394371454,750,1,0,congruent,0.1,4346.05608327913,4764.2845748771
58,104,2,223,0.5,0.5,0,1,NaN,0.6,1,507,1,1,507,1,0,1.4,NaN,-1.15279825681097,-1.15279825681097,750,0,0,neutral,1,1872.10708397768,1622.69733112364
58,104,2,225,-0.5,-0.5,-0.5,2,2,0.8,2,763,1,0,763,1,0,1.2,0.8,0.898681504561694,0.898681504561694,750,1,0,congruent,0.1,8181.24007329859,1640.05178826625
58,104,2,226,-0.5,0.5,0,1,NaN,0.8,1,562,1,1,562,1,0,1,0.4,-0.712050651828558,-0.712050651828558,750,0,0,neutral,0.1,2559.65928368956,1842.09005319887
58,104,2,227,-0.5,0.5,-0.5,4,4,1,4,631,1,1,631,1,0,1.2,0.4,-0.159112747396084,-0.159112747396084,750,1,0,congruent,0.1,3175.1972066719,2271.10582606062
58,104,2,228,-0.5,0.5,0,2,NaN,1,2,706,1,1,706,1,0,1.2,0.6,0.441906713943563,0.441906713943563,750,0,0,neutral,0.1,4689.8680156906,3156.5348561483
58,104,2,229,0.5,0.5,0.5,3,2,1,4,583,0,1,NaN,0,0,1,NaN,-0.543765202653457,NaN,750,0,1,incongruent,0,5440.82877153369,3552.61549139255
58,104,2,230,-0.5,0.5,0,1,NaN,0.8,1,576,1,1,576,1,0,0.8,0.6,-0.599860352378491,-0.599860352378491,750,0,0,neutral,0.1,822.497234095228,2307.09900163885
58,104,2,231,0.5,0.5,-0.5,3,3,0.8,3,794,1,0,794,0,0,0.8,NaN,1.14710288191541,1.14710288191541,750,1,0,congruent,0,9964.40802428905,10143.6880936292
58,104,2,232,0.5,-0.5,0.5,2,1,0.6,2,767,1,0,767,0,0,0.6,NaN,0.930735875833142,0.930735875833142,750,0,0,incongruent,0,5762.4952768995,4513.65849316549
58,104,2,233,-0.5,0.5,-0.5,3,3,0.6,3,952,1,0,952,0,0,0.4,0.8,2.4132505471376,2.4132505471376,750,1,0,congruent,0,1355.18304231998,2529.46730669469
58,104,2,234,-0.5,-0.5,0,2,NaN,0.4,2,763,1,0,763,0,0,0.2,0.8,0.898681504561694,0.898681504561694,750,0,0,neutral,0,2176.36598958503,5764.82648487042
58,104,2,235,-0.5,0.5,-0.5,3,3,0.4,3,824,1,0,824,0,0,0.2,0.8,1.38751066645127,1.38751066645127,750,1,0,congruent,0,3473.33048848767,2623.34519200828
58,104,2,236,0.5,0.5,0.5,1,2,0.2,1,596,1,1,596,1,0,0,NaN,-0.439588496021252,-0.439588496021252,750,0,0,incongruent,1,2246.20746382465,1840.47539563759
58,104,2,237,-0.5,-0.5,0,4,NaN,0.4,4,752,1,0,752,1,0,0.4,0.6,0.810531983565212,0.810531983565212,750,0,0,neutral,0.1,6123.86139551235,4803.99274246592
58,104,2,238,0.5,0.5,0.5,2,4,0.4,2,969,1,0,969,0,0,0.6,NaN,2.54948162504126,2.54948162504126,750,0,0,incongruent,0,17398.0644231724,6592.15066054025
58,104,2,239,-0.5,0.5,0,1,NaN,0.2,1,563,1,1,563,1,0,0.6,0.6,-0.704037059010696,-0.704037059010696,750,0,0,neutral,0.1,3506.54123516195,4335.69686584828
58,104,2,241,0.5,0.5,-0.5,3,3,0.4,3,904,1,0,904,0,0,1,NaN,2.02859809188023,2.02859809188023,750,1,0,congruent,0,583.541954943497,4960.39427022746
58,104,2,242,-0.5,-0.5,0,4,NaN,0.4,4,957,1,0,957,0,0,0.6,0.8,2.45331851122691,2.45331851122691,750,0,0,neutral,0,2047.34562772444,1249.92576592466
58,104,2,243,-0.5,-0.5,0.5,1,2,0.4,1,580,1,1,580,1,0,0.4,0.6,-0.567805981107043,-0.567805981107043,750,0,0,incongruent,0.1,4403.69437934432,1603.07976433724
58,104,2,244,-0.5,-0.5,0.5,4,1,0.4,4,831,1,0,831,0,0,0.6,0.6,1.44360581617631,1.44360581617631,750,0,0,incongruent,0,4143.06789795285,4560.91107612394
58,104,2,245,0.5,0.5,0.5,1,2,0.4,1,701,1,1,701,1,0,0.4,NaN,0.401838749854253,0.401838749854253,750,0,0,incongruent,1,4684.86016809513,3028.56982081658
58,104,2,246,-0.5,-0.5,0.5,4,3,0.6,4,699,1,1,699,1,0,0.6,0.6,0.385811564218529,0.385811564218529,750,0,0,incongruent,0.1,1215.15104510857,2315.80776140225
58,104,2,247,0.5,-0.5,-0.5,1,1,0.6,1,542,1,1,542,1,0,0.8,NaN,-0.872322508185797,-0.872322508185797,750,1,0,congruent,1,14231.4699170789,4634.06804721277
58,104,2,248,0.5,0.5,0,4,NaN,0.6,3,803,0,0,NaN,0,0,1.2,NaN,1.21922521727617,NaN,750,0,1,neutral,0,18628.5735177559,4739.61489418776
58,104,2,249,0.5,0.5,-0.5,1,1,0.4,1,549,1,1,549,1,0,1,NaN,-0.816227358460763,-0.816227358460763,750,1,0,congruent,1,11501.7110117152,2421.67666156418
58,104,2,250,0.5,0.5,0.5,4,2,0.6,4,636,1,1,636,1,0,1.4,NaN,-0.119044783306774,-0.119044783306774,750,0,0,incongruent,1,10721.2122573606,2029.43942893721
58,104,2,251,-0.5,0.5,0.5,3,1,0.6,3,639,1,1,639,1,0,1.4,0.6,-0.0950040048531879,-0.0950040048531879,750,0,0,incongruent,0.1,976.958805398514,2335.38224835448
58,104,2,252,-0.5,0.5,0.5,1,3,0.8,4,939,0,0,NaN,0,0,1.4,0.6,2.3090738405054,NaN,750,0,1,incongruent,0,8433.9435343806,5658.32741961752
58,104,2,253,-0.5,0.5,0,2,NaN,0.6,2,879,1,0,879,0,0,1,0.4,1.82825827143368,1.82825827143368,750,0,0,neutral,0,1651.75328370125,3774.32482772887
58,104,2,254,-0.5,0.5,0.5,1,4,0.6,1,689,1,1,689,1,0,1,0.4,0.30567563603991,0.30567563603991,750,0,0,incongruent,0.1,14120.4380419708,1630.3077868753
58,104,2,255,0.5,-0.5,0.5,4,1,0.6,4,685,1,1,685,0,0,0.8,NaN,0.273621264768462,0.273621264768462,750,0,0,incongruent,0,9313.39922103677,1565.07966491666
58,104,2,256,0.5,0.5,0,3,NaN,0.6,3,606,1,1,606,1,0,0.4,NaN,-0.359452567842632,-0.359452567842632,750,0,0,neutral,1,3750.29894254519,7333.54076565303
58,104,2,257,0.5,-0.5,-0.5,4,4,0.6,4,742,1,1,742,1,0,0.6,NaN,0.730396055386593,0.730396055386593,750,1,0,congruent,1,4936.54557437554,2480.95137702304
58,104,2,258,-0.5,0.5,-0.5,1,1,0.6,1,878,1,0,878,0,0,1,0.6,1.82024467861582,1.82024467861582,750,1,0,congruent,0,1367.58028433049,4357.5050173663
58,104,2,259,0.5,-0.5,-0.5,3,3,0.4,3,599,1,1,599,0,0,1,NaN,-0.415547717567666,-0.415547717567666,750,1,0,congruent,0,3972.91282823709,4095.29042067152
58,104,2,261,0.5,-0.5,-0.5,3,3,0.4,3,833,1,0,833,1,0,0.8,NaN,1.45963300181203,1.45963300181203,750,1,0,congruent,1,2816.74897129443,3221.96162481794
58,104,2,262,-0.5,-0.5,0,4,NaN,0.4,4,946,1,0,946,1,0,0.8,0.4,2.36516899023043,2.36516899023043,750,0,0,neutral,0.1,6386.57108974084,745.667689711817
58,104,2,263,0.5,0.5,-0.5,3,3,0.4,3,522,1,1,522,1,0,0.6,NaN,-1.03259436454304,-1.03259436454304,750,1,0,congruent,1,1000.22214696131,6019.62513414731
58,104,2,264,0.5,0.5,-0.5,4,4,0.6,4,538,1,1,538,1,0,1,NaN,-0.904376879457245,-0.904376879457245,750,1,0,congruent,1,2779.53456367399,3406.29456867775
58,104,2,265,-0.5,0.5,0.5,2,3,0.8,2,909,1,0,909,0,0,1.4,0.4,2.06866605596954,2.06866605596954,750,0,0,incongruent,0,3870.18123116224,2728.45884674514
58,104,2,266,0.5,-0.5,-0.5,1,1,0.6,1,558,1,1,558,0,0,1.4,NaN,-0.744105023100006,-0.744105023100006,750,1,0,congruent,0,1946.05564069874,12977.5953515487
58,104,2,267,-0.5,0.5,-0.5,3,3,0.6,3,733,1,1,733,1,0,1,0.2,0.658273720025835,0.658273720025835,750,1,0,congruent,0.1,2447.91595240313,4228.1051276736
58,104,2,268,-0.5,0.5,-0.5,1,1,0.6,1,546,1,1,546,1,0,1,0.4,-0.840268136914349,-0.840268136914349,750,1,0,congruent,0.1,1314.45823799856,1935.24218940473
58,104,2,269,-0.5,-0.5,0,4,NaN,0.8,4,840,1,0,840,0,0,0.8,0.6,1.51572815153706,1.51572815153706,750,0,0,neutral,0,6138.81921798227,9545.94973410134
58,104,2,270,-0.5,0.5,-0.5,1,1,0.8,1,597,1,1,597,1,0,0.4,0.6,-0.43157490320339,-0.43157490320339,750,1,0,congruent,0.1,4291.7710082657,2408.08365734365
58,104,2,272,-0.5,0.5,0.5,3,1,0.6,3,619,1,1,619,1,0,0.6,0.6,-0.255275861210427,-0.255275861210427,750,0,0,incongruent,0.1,3741.39963689503,4215.35275001124
58,104,2,273,0.5,0.5,0.5,1,3,0.8,1,554,1,1,554,1,0,0.6,NaN,-0.776159394371454,-0.776159394371454,750,0,0,incongruent,1,7550.65436354086,1492.38174302185
58,104,2,275,0.5,0.5,-0.5,2,2,0.6,2,626,1,1,626,1,0,0.8,NaN,-0.199180711485393,-0.199180711485393,750,1,0,congruent,1,1202.37821220003,4802.06415544341
58,104,2,276,-0.5,0.5,0.5,3,4,0.6,3,594,1,1,594,1,0,1,0.6,-0.455615681656976,-0.455615681656976,750,0,0,incongruent,0.1,2611.49229207515,2410.78732094721
58,104,2,277,-0.5,0.5,0,1,NaN,0.8,1,559,1,1,559,1,0,1.2,0.6,-0.736091430282144,-0.736091430282144,750,0,0,neutral,0.1,3264.57771580975,9046.52415316972
58,104,2,278,0.5,-0.5,0.5,3,4,0.8,3,601,1,1,601,1,0,1.2,NaN,-0.399520531931942,-0.399520531931942,750,0,0,incongruent,1,3069.64487996604,8454.11311774757
58,104,2,279,0.5,0.5,0.5,4,1,0.8,2,774,0,0,NaN,0,0,1.2,NaN,0.986831025558175,NaN,750,0,1,incongruent,0,3338.679565615,3821.15244146447
58,104,2,280,0.5,0.5,0.5,2,4,0.6,2,814,1,0,814,0,0,1.2,NaN,1.30737473827265,1.30737473827265,750,0,0,incongruent,0,4521.0070044061,1692.35194624945
58,104,2,281,0.5,0.5,-0.5,3,3,0.6,3,581,1,1,581,1,0,0.8,NaN,-0.559792388289181,-0.559792388289181,750,1,0,congruent,1,7129.13254880481,6402.21425490022
58,104,2,282,-0.5,-0.5,-0.5,1,1,0.6,1,507,1,1,507,1,0,1,0.4,-1.15279825681097,-1.15279825681097,750,1,0,congruent,0.1,1186.47296449466,3354.23830141648
58,104,2,283,-0.5,-0.5,-0.5,4,4,0.6,4,590,1,1,590,0,0,1,0.6,-0.487670052928424,-0.487670052928424,750,1,0,congruent,0,10556.3744116326,4560.2897668824
58,104,2,285,-0.5,0.5,0.5,2,4,0.4,2,888,1,0,888,0,0,0.6,0.6,1.90038060679444,1.90038060679444,750,0,0,incongruent,0,1110.61420215699,2131.22819843506
58,104,2,287,0.5,-0.5,0,3,NaN,0.2,3,628,1,1,628,0,0,0.2,NaN,-0.183153525849669,-0.183153525849669,750,0,0,neutral,0,2369.45600883521,2558.67274048422
58,104,2,290,-0.5,0.5,0.5,2,4,0.2,2,622,1,1,622,1,0,0,0.4,-0.231235082756841,-0.231235082756841,750,0,0,incongruent,0.1,6900.42970759928,3715.85998066798
58,104,2,291,0.5,-0.5,-0.5,3,3,0.2,3,659,1,1,659,0,0,0.2,NaN,0.0652678515040511,0.0652678515040511,750,1,0,congruent,0,5363.78052654628,6055.74053456877
58,104,2,292,-0.5,-0.5,0,4,NaN,0.2,4,806,1,0,806,0,0,0.2,0.4,1.24326599572976,1.24326599572976,750,0,0,neutral,0,4392.25036513348,1131.75203903248
58,104,2,293,0.5,0.5,-0.5,3,3,0.2,3,641,1,1,641,1,0,0.2,NaN,-0.078976819217464,-0.078976819217464,750,1,0,congruent,1,6142.08937307335,7328.95716212112
58,104,2,294,0.5,-0.5,-0.5,2,2,0.4,2,539,1,1,539,0,0,0.6,NaN,-0.896363286639383,-0.896363286639383,750,1,0,congruent,0,2354.63931900638,4940.75108116404
58,104,2,295,0.5,0.5,0,1,NaN,0.4,1,582,1,1,582,1,0,0.6,NaN,-0.551778795471319,-0.551778795471319,750,0,0,neutral,1,6216.85521967664,6036.3358919965
58,104,2,296,-0.5,0.5,-0.5,3,3,0.6,3,587,1,1,587,1,0,0.8,0.6,-0.511710831382009,-0.511710831382009,750,1,0,congruent,0.1,12636.5366685682,1357.34503874464
58,104,2,297,-0.5,0.5,0.5,1,2,0.8,1,542,1,1,542,1,0,1,0.6,-0.872322508185797,-0.872322508185797,750,0,0,incongruent,0.1,5569.32464714278,1819.5984308566
58,104,2,298,0.5,-0.5,0.5,3,1,1,3,753,1,0,753,1,0,1.2,NaN,0.818545576383074,0.818545576383074,750,0,0,incongruent,1,1873.66727632453,7203.80522799482
58,104,2,299,0.5,0.5,0.5,1,4,1,1,559,1,1,559,1,0,1.2,NaN,-0.736091430282144,-0.736091430282144,750,0,0,incongruent,1,5165.68362905062,2533.41078672903
58,104,2,300,-0.5,0.5,0,4,NaN,1,4,836,1,0,836,0,0,1.6,0.6,1.48367378026562,1.48367378026562,750,0,0,neutral,0,6881.04214935265,3034.76604444902
58,104,3,301,-0.5,-0.5,-0.5,2,2,0.8,2,625,1,1,625,1,0,1.2,0.4,-0.207194304303255,-0.207194304303255,750,1,0,congruent,0.1,2064.10701168062,2621.65259243839
58,104,3,302,0.5,-0.5,0.5,4,3,0.8,4,640,1,1,640,1,0,1.2,NaN,-0.086990412035326,-0.086990412035326,750,0,0,incongruent,1,2501.07088927317,4057.82483354601
58,104,3,303,0.5,-0.5,0,3,NaN,0.8,3,532,1,1,532,0,0,1.4,NaN,-0.952458436364417,-0.952458436364417,750,0,0,neutral,0,2775.01936526017,2940.4145160667
58,104,3,304,-0.5,0.5,-0.5,2,2,0.8,2,568,1,1,568,1,0,1,0.6,-0.663969094921386,-0.663969094921386,750,1,0,congruent,0.1,4372.9086675966,2053.41086645326
58,104,3,305,-0.5,0.5,0.5,4,1,0.8,4,581,1,1,581,1,0,0.8,0.8,-0.559792388289181,-0.559792388289181,750,0,0,incongruent,0.1,1578.52692457452,1275.33454440783
58,104,3,306,0.5,0.5,0,3,NaN,0.8,3,684,1,1,684,1,0,1,NaN,0.2656076719506,0.2656076719506,750,0,0,neutral,1,3390.86173819678,3319.79085134383
58,104,3,307,-0.5,0.5,-0.5,4,4,0.8,4,581,1,1,581,1,0,1.2,0.8,-0.559792388289181,-0.559792388289181,750,1,0,congruent,0.1,1538.75521478319,3230.54943017675
58,104,3,308,0.5,0.5,0.5,2,3,0.8,2,490,1,1,490,1,0,1,NaN,-1.28902933471462,-1.28902933471462,750,0,0,incongruent,1,2326.88032858879,3728.16186586791
58,104,3,309,-0.5,-0.5,-0.5,4,4,1,4,748,1,1,748,1,0,1.4,0.4,0.778477612293765,0.778477612293765,750,1,0,congruent,0.1,2100.64765421828,2079.76494566224
58,104,3,310,-0.5,0.5,0.5,2,1,1,2,651,1,1,651,1,0,1.4,0.8,0.00115910896115547,0.00115910896115547,750,0,0,incongruent,0.1,8271.36958653954,1075.24920596419
58,104,3,311,-0.5,0.5,0.5,4,2,1,4,656,1,1,656,1,0,1.4,0.8,0.0412270730504652,0.0412270730504652,750,0,0,incongruent,0.1,11234.6739270406,1126.29725346415
58,104,3,312,-0.5,0.5,0,1,NaN,1,1,525,1,1,525,1,0,1.2,1,-1.00855358608945,-1.00855358608945,750,0,0,neutral,0.1,2868.09508123486,4339.73045364571
58,104,3,313,0.5,-0.5,-0.5,3,3,1,3,678,1,1,678,1,0,1.2,NaN,0.217526115043428,0.217526115043428,750,1,0,congruent,1,3791.48433476771,4316.16948001041
58,104,3,314,0.5,0.5,0,2,NaN,1,2,651,1,1,651,1,0,1.2,NaN,0.00115910896115547,0.00115910896115547,750,0,0,neutral,1,2264.14861846695,2039.05283663602
58,104,3,315,-0.5,-0.5,-0.5,1,1,1,1,524,1,1,524,1,0,1.4,0.6,-1.01656717890731,-1.01656717890731,750,1,0,congruent,0.1,3451.58523214715,2429.31084754822
58,104,3,316,0.5,0.5,0.5,2,3,1,2,585,1,1,585,1,0,1.4,NaN,-0.527738017017733,-0.527738017017733,750,0,0,incongruent,1,13091.0527387742,2963.23872940312
58,104,3,317,0.5,0.5,-0.5,1,1,1,1,556,1,1,556,1,0,1.6,NaN,-0.76013220873573,-0.76013220873573,750,1,0,congruent,1,3824.54358970742,10168.334823298
58,104,3,318,0.5,0.5,0.5,2,4,1,2,540,1,1,540,1,0,1.8,NaN,-0.888349693821521,-0.888349693821521,750,0,0,incongruent,1,880.791720932205,2298.6510001362
58,104,3,319,0.5,0.5,0.5,4,2,1,4,712,1,1,712,1,0,1.8,NaN,0.489988270850734,0.489988270850734,750,0,0,incongruent,1,3299.71703315219,6864.97146771235
58,104,3,320,0.5,-0.5,-0.5,1,1,1,1,583,1,1,583,1,0,1.8,NaN,-0.543765202653457,-0.543765202653457,750,1,0,congruent,1,1912.82300736804,4436.96091090405
58,104,3,321,-0.5,0.5,-0.5,2,2,1,2,688,1,1,688,1,0,2,1,0.297662043222048,0.297662043222048,750,1,0,congruent,0.1,2596.5290055424,6833.72950184495
58,104,3,322,0.5,0.5,0,4,NaN,1,4,672,1,1,672,1,0,1.8,NaN,0.169444558136256,0.169444558136256,750,0,0,neutral,1,1344.56413818546,3672.09570656651
58,104,3,323,-0.5,0.5,-0.5,3,3,1,3,645,1,1,645,1,0,1.8,1,-0.0469224479460162,-0.0469224479460162,750,1,0,congruent,0.1,11379.2498905647,3800.88362892526
58,104,3,324,-0.5,-0.5,0.5,1,2,1,1,528,1,1,528,1,0,1.6,0.6,-0.984512807635864,-0.984512807635864,750,0,0,incongruent,0.1,4690.0678161351,4980.29300247392
58,104,3,325,0.5,0.5,-0.5,3,3,1,3,619,1,1,619,1,0,1.4,NaN,-0.255275861210427,-0.255275861210427,750,1,0,congruent,1,4516.8889483078,5631.06834745983
58,104,3,326,-0.5,-0.5,0.5,4,1,1,4,577,1,1,577,1,0,1.4,0.8,-0.591846759560629,-0.591846759560629,750,0,0,incongruent,0.1,4249.21679342949,2104.37559538141
58,104,3,327,0.5,0.5,-0.5,2,2,1,2,607,1,1,607,1,0,1.4,NaN,-0.35143897502477,-0.35143897502477,750,1,0,congruent,1,3467.95067658869,5621.12258922874
58,104,3,328,0.5,-0.5,0,1,NaN,1,1,604,1,1,604,1,0,1.4,NaN,-0.375479753478356,-0.375479753478356,750,0,0,neutral,1,5900.85085280959,5130.24846054868
58,104,3,329,0.5,-0.5,-0.5,2,2,1,2,628,1,1,628,1,0,1.6,NaN,-0.183153525849669,-0.183153525849669,750,1,0,congruent,1,7860.43380203165,3245.78344959417
58,104,3,330,0.5,0.5,0.5,4,3,1,4,516,1,1,516,1,0,1.8,NaN,-1.08067592145021,-1.08067592145021,750,0,0,incongruent,1,1230.17681427752,2438.4351298996
58,104,3,331,-0.5,-0.5,0.5,3,2,1,3,710,1,1,710,1,0,1.8,1,0.473961085215011,0.473961085215011,750,0,0,incongruent,0.1,3571.74042738123,3773.63573009279
58,104,3,334,0.5,0.5,-0.5,4,4,1,2,903,0,0,NaN,0,0,1.6,NaN,2.02058449906237,NaN,750,0,1,congruent,0,7538.84970473493,1991.12721181284
58,104,3,335,0.5,0.5,0.5,3,1,0.8,3,642,1,1,642,1,0,1.2,NaN,-0.0709632263996021,-0.0709632263996021,750,0,0,incongruent,1,593.993826949486,2798.78728069976
58,104,3,336,-0.5,-0.5,0.5,1,2,0.8,1,573,1,1,573,1,0,1.2,1,-0.623901130832077,-0.623901130832077,750,0,0,incongruent,0.1,1982.5997916884,1409.688635357
58,104,3,337,0.5,0.5,0,4,NaN,0.8,4,599,1,1,599,1,0,1.2,NaN,-0.415547717567666,-0.415547717567666,750,0,0,neutral,1,5129.94127488187,854.186857085763
58,104,3,338,-0.5,0.5,-0.5,2,2,0.8,2,931,1,0,931,0,0,1.2,1,2.2449650979625,2.2449650979625,750,1,0,congruent,0,11754.044209132,5711.53407399107
58,104,3,339,-0.5,0.5,-0.5,3,3,0.6,3,778,1,0,778,0,0,1,0.8,1.01888539682962,1.01888539682962,750,1,0,congruent,0,11032.338535819,1141.7522412112
58,104,3,340,0.5,0.5,0,2,NaN,0.4,2,593,1,1,593,1,0,1,NaN,-0.463629274474838,-0.463629274474838,750,0,0,neutral,1,4404.97960006852,3420.34031395074
58,104,3,341,-0.5,-0.5,-0.5,1,1,0.6,1,559,1,1,559,0,0,1,1,-0.736091430282144,-0.736091430282144,750,1,0,congruent,0,3461.55492723092,4590.44985412656
58,104,3,342,0.5,-0.5,-0.5,3,3,0.6,3,570,1,1,570,1,0,0.8,NaN,-0.647941909285663,-0.647941909285663,750,1,0,congruent,1,4198.58292217633,2339.89043444227
58,104,3,344,-0.5,0.5,0.5,3,2,0.4,3,602,1,1,602,1,0,0.8,0.6,-0.39150693911408,-0.39150693911408,750,0,0,incongruent,0.1,5077.96235445155,3005.44517338865
58,104,3,345,-0.5,-0.5,0.5,4,1,0.4,4,793,1,0,793,0,0,1,0.8,1.13908928909755,1.13908928909755,750,0,0,incongruent,0,2913.92747118,1673.06933697439
58,104,3,346,0.5,0.5,-0.5,3,3,0.4,4,694,0,1,NaN,0,0,0.6,NaN,0.345743600129219,NaN,750,0,1,congruent,0,11771.2585359217,5979.21858670873
58,104,3,347,0.5,0.5,0,4,NaN,0.4,4,603,1,1,603,1,0,0.6,NaN,-0.383493346296218,-0.383493346296218,750,0,0,neutral,1,1791.6024879428,6834.40139057166
58,104,3,349,-0.5,-0.5,0,2,NaN,0.6,2,736,1,1,736,1,0,0.6,0.6,0.682314498479421,0.682314498479421,750,0,0,neutral,0.1,4281.61798382479,2204.10648912385
58,104,3,350,0.5,-0.5,0.5,4,1,0.6,4,589,1,1,589,1,0,0.6,NaN,-0.495683645746285,-0.495683645746285,750,0,0,incongruent,1,4009.96041821891,1400.72071007077
58,104,3,351,-0.5,0.5,-0.5,3,3,0.6,4,674,0,1,NaN,0,0,1,0.6,0.18547174377198,NaN,750,0,1,congruent,0,13207.1911073885,705.169562637854
58,104,3,352,0.5,-0.5,-0.5,4,4,0.4,4,565,1,1,565,0,0,1,NaN,-0.688009873374972,-0.688009873374972,750,1,0,congruent,0,4508.73626609107,9715.44271033153
58,104,3,353,0.5,0.5,0,2,NaN,0.4,2,747,1,1,747,1,0,0.6,NaN,0.770464019475903,0.770464019475903,750,0,0,neutral,1,1387.06024047449,5770.52051871684
58,104,3,354,-0.5,-0.5,0.5,3,4,0.6,3,565,1,1,565,0,0,1,0.6,-0.688009873374972,-0.688009873374972,750,0,0,incongruent,0,1663.64570105421,3200.8059428419
58,104,3,355,0.5,-0.5,0.5,4,3,0.6,4,681,1,1,681,1,0,0.8,NaN,0.241566893497014,0.241566893497014,750,0,0,incongruent,1,510.019071698546,5671.34912227366
58,104,3,356,0.5,0.5,0,2,NaN,0.6,2,502,1,1,502,1,0,0.8,NaN,-1.19286622090028,-1.19286622090028,750,0,0,neutral,1,7354.13522444267,10515.7934372864
58,104,3,357,-0.5,0.5,-0.5,4,4,0.6,4,478,1,1,478,1,0,1.2,0.4,-1.38519244852896,-1.38519244852896,750,1,0,congruent,0.1,3754.14269137973,2151.06035684199
58,104,3,358,0.5,0.5,0.5,3,2,0.8,3,531,1,1,531,1,0,1.4,NaN,-0.960472029182279,-0.960472029182279,750,0,0,incongruent,1,1438.77992345038,4391.75529914995
58,104,3,359,0.5,0.5,0.5,1,3,0.8,2,522,0,1,NaN,0,0,1.4,NaN,-1.03259436454304,NaN,750,0,1,incongruent,0,4992.75531553903,3704.31772326696
58,104,3,360,-0.5,0.5,-0.5,4,4,0.8,4,727,1,1,727,1,0,1.4,0.4,0.610192163118664,0.610192163118664,750,1,0,congruent,0.1,1423.76702884188,2229.68296860606
58,104,3,361,0.5,0.5,-0.5,2,2,0.8,2,559,1,1,559,1,0,1.2,NaN,-0.736091430282144,-0.736091430282144,750,1,0,congruent,1,2774.84737305547,1973.11959452314
58,104,3,362,0.5,0.5,-0.5,3,3,0.8,3,603,1,1,603,1,0,1.2,NaN,-0.383493346296218,-0.383493346296218,750,1,0,congruent,1,6884.18228834098,2985.80160028659
58,104,3,363,0.5,0.5,-0.5,1,1,0.8,1,535,1,1,535,1,0,1.4,NaN,-0.928417657910831,-0.928417657910831,750,1,0,congruent,1,1888.6962214158,4764.51595109617
58,104,3,364,0.5,-0.5,0.5,4,2,0.8,4,603,1,1,603,1,0,1.4,NaN,-0.383493346296218,-0.383493346296218,750,0,0,incongruent,1,3073.12189024683,3410.18596807131
58,104,3,365,-0.5,0.5,-0.5,1,1,0.8,1,499,1,1,499,1,0,1.8,0.6,-1.21690699935386,-1.21690699935386,750,1,0,congruent,0.1,1387.65254368506,2115.50790090034
58,104,3,366,-0.5,0.5,0.5,2,4,1,2,757,1,0,757,0,0,1.8,0.8,0.850599947654522,0.850599947654522,750,0,0,incongruent,0,5856.53973651104,7636.08121431603
58,104,3,367,0.5,0.5,-0.5,3,3,0.8,3,554,1,1,554,1,0,1.4,NaN,-0.776159394371454,-0.776159394371454,750,1,0,congruent,1,5704.51188166223,1012.79845961546
58,104,3,368,0.5,0.5,0,2,NaN,0.8,2,593,1,1,593,1,0,1.4,NaN,-0.463629274474838,-0.463629274474838,750,0,0,neutral,1,2476.71380635724,2890.29264904072
58,104,3,369,0.5,-0.5,-0.5,4,4,0.8,4,879,1,0,879,1,0,1.4,NaN,1.82825827143368,1.82825827143368,750,1,0,congruent,1,4040.90981923329,4035.7755330821
58,104,3,370,0.5,0.5,0,3,NaN,0.8,3,767,1,0,767,0,0,1.4,NaN,0.930735875833142,0.930735875833142,750,0,0,neutral,0,5928.14370205639,4365.9298506392
58,104,3,371,-0.5,0.5,0.5,2,1,0.6,2,611,1,1,611,1,0,1.2,0.6,-0.319384603753323,-0.319384603753323,750,0,0,incongruent,0.1,2886.33059602369,2727.10019033422
58,104,3,372,0.5,0.5,-0.5,3,3,0.6,3,561,1,1,561,1,0,1.4,NaN,-0.72006424464642,-0.72006424464642,750,1,0,congruent,1,3576.81168493293,1625.4022684168
58,104,3,374,0.5,0.5,-0.5,1,1,0.6,1,562,1,1,562,1,0,1,NaN,-0.712050651828558,-0.712050651828558,750,1,0,congruent,1,5955.41275722765,3921.42415036898
58,104,3,375,0.5,-0.5,0,4,NaN,0.6,4,919,1,0,919,1,0,1,NaN,2.14880198414816,2.14880198414816,750,0,0,neutral,1,5210.76724426991,5468.87811366761
58,104,3,378,0.5,-0.5,0.5,2,1,0.6,2,562,1,1,562,1,0,1.4,NaN,-0.712050651828558,-0.712050651828558,750,0,0,incongruent,1,2115.65359241564,4454.32725588461
58,104,3,379,0.5,-0.5,0.5,1,3,0.6,1,600,1,1,600,0,0,1.8,NaN,-0.407534124749804,-0.407534124749804,750,0,0,incongruent,0,1543.92080579856,3748.88473537514
58,104,3,380,-0.5,0.5,0,2,NaN,0.6,2,529,1,1,529,1,0,1.4,0.8,-0.976499214818003,-0.976499214818003,750,0,0,neutral,0.1,7828.49550691946,4288.50940551315
58,104,3,381,0.5,-0.5,-0.5,4,4,0.8,4,816,1,0,816,1,0,1.2,NaN,1.32340192390838,1.32340192390838,750,1,0,congruent,1,6140.48028995481,9933.43254556481
58,104,3,382,-0.5,-0.5,0,2,NaN,0.8,2,613,1,1,613,1,0,1.4,0.4,-0.303357418117599,-0.303357418117599,750,0,0,neutral,0.1,6911.84279407882,17994.1809361191
58,104,3,383,-0.5,-0.5,-0.5,4,4,0.8,4,830,1,0,830,1,0,1.2,0.6,1.43559222335844,1.43559222335844,750,1,0,congruent,0.1,5796.12417504888,4669.5603732841
58,104,3,384,-0.5,0.5,0.5,1,3,0.8,1,601,1,1,601,1,0,1,0.8,-0.399520531931942,-0.399520531931942,750,0,0,incongruent,0.1,5319.84784368406,8560.00112860398
58,104,3,385,-0.5,-0.5,-0.5,2,2,0.8,2,565,1,1,565,0,0,1.2,0.8,-0.688009873374972,-0.688009873374972,750,1,0,congruent,0,2637.63377705456,3329.00387849761
58,104,3,386,0.5,0.5,0.5,4,3,0.8,4,764,1,0,764,0,0,1,NaN,0.906695097379556,0.906695097379556,750,0,0,incongruent,0,3402.37816461861,4047.73733432259
58,104,3,387,-0.5,0.5,0,1,NaN,0.6,1,491,1,1,491,1,0,0.6,0.8,-1.28101574189676,-1.28101574189676,750,0,0,neutral,0.1,3087.99485507216,1787.14273170134
58,104,3,388,-0.5,0.5,0.5,2,4,0.8,2,572,1,1,572,1,0,0.6,0.8,-0.631914723649939,-0.631914723649939,750,0,0,incongruent,0.1,2329.19134962796,2566.87079279761
58,104,3,389,-0.5,-0.5,0,3,NaN,0.8,4,569,0,1,NaN,1,0,0.6,0.6,-0.655955502103524,NaN,750,0,1,neutral,0.1,10861.7157619374,3838.00437614912
58,104,3,390,0.5,-0.5,0.5,2,1,0.8,3,770,0,0,NaN,1,0,0.6,NaN,0.954776654286728,NaN,750,0,1,incongruent,1,4518.64081945796,7845.69532388705
58,104,3,391,-0.5,-0.5,-0.5,3,3,0.8,3,834,1,0,834,1,0,1,0.8,1.46764659462989,1.46764659462989,750,1,0,congruent,0.1,1405.1205975787,3936.83619728613
58,104,3,392,0.5,0.5,-0.5,2,2,0.8,2,519,1,1,519,1,0,1.2,NaN,-1.05663514299662,-1.05663514299662,750,1,0,congruent,1,1109.47750381047,577.59443341351
58,104,3,393,-0.5,0.5,0,1,NaN,0.8,1,527,1,1,527,1,0,1.4,1,-0.992526400453726,-0.992526400453726,750,0,0,neutral,0.1,3669.21103806979,2629.76197564522
58,104,3,394,0.5,-0.5,-0.5,2,2,0.8,2,636,1,1,636,1,0,1.4,NaN,-0.119044783306774,-0.119044783306774,750,1,0,congruent,1,2923.49963799546,3306.29584280162
58,104,3,395,0.5,0.5,-0.5,3,3,0.8,3,708,1,1,708,1,0,1.6,NaN,0.457933899579287,0.457933899579287,750,1,0,congruent,1,6824.4379157115,5581.28832616769
58,104,3,396,0.5,0.5,-0.5,2,2,1,2,496,1,1,496,1,0,1.6,NaN,-1.24094777780745,-1.24094777780745,750,1,0,congruent,1,4982.35838841306,2779.02248377609
58,104,3,397,0.5,0.5,0,4,NaN,1,4,525,1,1,525,1,0,1.8,NaN,-1.00855358608945,-1.00855358608945,750,0,0,neutral,1,5005.89586467617,7387.56974301583
58,104,3,398,0.5,-0.5,-0.5,2,2,1,2,518,1,1,518,1,0,1.8,NaN,-1.06464873581448,-1.06464873581448,750,1,0,congruent,1,3179.34907963173,1809.63216569149
58,104,3,399,0.5,-0.5,0,3,NaN,1,3,699,1,1,699,1,0,2,NaN,0.385811564218529,0.385811564218529,750,0,0,neutral,1,1775.21640825234,1243.27366305583
58,104,3,400,-0.5,0.5,-0.5,1,1,1,1,569,1,1,569,1,0,2,1,-0.655955502103524,-0.655955502103524,750,1,0,congruent,0.1,8301.76114148301,2189.35038025167
58,104,3,401,0.5,-0.5,-0.5,4,4,1,3,735,0,1,NaN,1,0,1.8,NaN,0.674300905661559,NaN,750,0,1,congruent,1,3784.39713432088,5356.0805788096
58,104,3,402,0.5,0.5,0,3,NaN,1,3,649,1,1,649,1,0,1.8,NaN,-0.0148680766745684,-0.0148680766745684,750,0,0,neutral,1,2272.8645143695,3438.47750813989
58,104,3,403,-0.5,0.5,0.5,2,4,1,4,772,0,0,NaN,0,0,1.8,1,0.970803839922451,NaN,750,1,0,incongruent,0,6698.48315403667,4596.34502594
58,104,3,404,-0.5,-0.5,-0.5,3,3,0.8,3,687,1,1,687,1,0,1.4,0.8,0.289648450404186,0.289648450404186,750,1,0,congruent,0.1,3720.71344784966,3170.34862574307
58,104,3,405,0.5,0.5,-0.5,1,1,0.8,1,564,1,1,564,1,0,1.2,NaN,-0.696023466192834,-0.696023466192834,750,1,0,congruent,1,1966.02534102406,4585.80100634842
58,104,3,406,-0.5,-0.5,0.5,3,2,0.8,3,662,1,1,662,1,0,1.4,0.8,0.0893086299576369,0.0893086299576369,750,0,0,incongruent,0.1,4884.84215281224,6282.84286916659
58,104,3,407,-0.5,0.5,0.5,4,3,0.8,4,838,1,0,838,0,0,1.2,0.8,1.49970096590134,1.49970096590134,750,0,0,incongruent,0,2616.78964109299,16334.5376804593
58,104,3,408,0.5,-0.5,0.5,3,1,0.6,3,786,1,0,786,1,0,0.8,NaN,1.08299413937252,1.08299413937252,750,0,0,incongruent,1,2520.44978068702,2341.13131416742
58,104,3,409,-0.5,0.5,-0.5,4,4,0.6,4,755,1,0,755,0,0,1.2,0.6,0.834572762018798,0.834572762018798,750,1,0,congruent,0,5338.67687022791,2214.79733378359
58,104,3,410,-0.5,-0.5,0.5,1,3,0.4,1,775,1,0,775,0,0,1,0.8,0.994844618376037,0.994844618376037,750,0,0,incongruent,0,5346.18700936139,1025.80277426461
58,104,3,411,0.5,-0.5,-0.5,2,2,0.4,2,535,1,1,535,0,0,0.6,NaN,-0.928417657910831,-0.928417657910831,750,1,0,congruent,0,1167.8430142971,3033.46330817781
58,104,3,412,-0.5,-0.5,-0.5,3,3,0.4,3,549,1,1,549,1,0,0.4,0.8,-0.816227358460763,-0.816227358460763,750,1,0,congruent,0.1,5003.70842466488,2628.8487395828
58,104,3,413,-0.5,0.5,-0.5,1,1,0.4,1,453,1,1,453,1,0,0.6,0.4,-1.58553226897551,-1.58553226897551,750,1,0,congruent,0.1,6639.66653064032,3433.01734667628
58,104,3,414,-0.5,0.5,-0.5,2,2,0.4,2,633,1,1,633,1,0,0.4,0.4,-0.14308556176036,-0.14308556176036,750,1,0,congruent,0.1,6615.60961932048,4592.8077818719
58,104,3,416,0.5,0.5,-0.5,1,1,0.4,1,472,1,1,472,1,0,0.6,NaN,-1.43327400543613,-1.43327400543613,750,1,0,congruent,1,7061.42847031688,1270.45934821401
58,104,3,417,-0.5,-0.5,0.5,2,3,0.6,2,781,1,0,781,1,0,1,0.8,1.04292617528321,1.04292617528321,750,0,0,incongruent,0.1,12165.474716154,3079.86149697025
58,104,3,418,0.5,0.5,-0.5,1,1,0.6,1,394,1,1,394,1,0,1,NaN,-2.05833424522937,-2.05833424522937,750,1,0,congruent,1,9637.88468847735,5078.83038987353
58,104,3,419,0.5,-0.5,0,4,NaN,0.8,4,630,1,1,630,0,0,1.2,NaN,-0.167126340213945,-0.167126340213945,750,0,0,neutral,0,3946.73668492527,6612.59484875193
58,104,3,420,-0.5,0.5,-0.5,2,2,0.8,2,688,1,1,688,1,0,1,0.4,0.297662043222048,0.297662043222048,750,1,0,congruent,0.1,5401.23475385133,11444.1901862981
58,104,3,421,0.5,0.5,0,1,NaN,0.8,1,542,1,1,542,1,0,1.2,NaN,-0.872322508185797,-0.872322508185797,750,0,0,neutral,1,5072.56980874097,13851.8369447322
58,104,3,422,-0.5,-0.5,0.5,4,3,0.8,4,598,1,1,598,1,0,1.2,0.8,-0.423561310385528,-0.423561310385528,750,0,0,incongruent,0.1,461.100559593042,2561.33170032778
58,104,3,423,-0.5,-0.5,0,2,NaN,0.8,2,551,1,1,551,1,0,1.2,0.8,-0.80020017282504,-0.80020017282504,750,0,0,neutral,0.1,1105.79809108191,1461.53613216728
58,104,3,424,0.5,-0.5,-0.5,4,4,0.8,4,474,1,1,474,1,0,1,NaN,-1.41724681980041,-1.41724681980041,750,1,0,congruent,1,4372.48089255485,6774.33025418319
58,104,3,425,-0.5,-0.5,0,3,NaN,0.8,2,656,0,1,NaN,1,0,1.4,0.8,0.0412270730504652,NaN,750,0,1,neutral,0.1,7590.03701264053,628.753030172622
58,104,3,426,0.5,-0.5,0.5,4,3,0.8,4,630,1,1,630,1,0,1.4,NaN,-0.167126340213945,-0.167126340213945,750,0,0,incongruent,1,1350.76206381617,3467.93340707636
58,104,3,427,0.5,0.5,-0.5,1,1,0.8,1,476,1,1,476,1,0,1.4,NaN,-1.40121963416469,-1.40121963416469,750,1,0,congruent,1,5658.28364272073,1902.3187643882
58,104,3,428,-0.5,-0.5,-0.5,2,2,1,2,655,1,1,655,1,0,1.6,1,0.0332134802326033,0.0332134802326033,750,1,0,congruent,0.1,2640.62356871223,4267.25476222594
58,104,3,429,0.5,-0.5,0.5,1,4,1,1,568,1,1,568,1,0,1.6,NaN,-0.663969094921386,-0.663969094921386,750,0,0,incongruent,1,2401.24164107995,2307.23037912519
58,104,3,430,0.5,0.5,0.5,3,1,1,3,683,1,1,683,1,0,1.6,NaN,0.257594079132738,0.257594079132738,750,0,0,incongruent,1,2460.26697846687,6691.72171159056
58,104,3,431,0.5,0.5,-0.5,2,2,1,2,504,1,1,504,1,0,1.8,NaN,-1.17683903526455,-1.17683903526455,750,1,0,congruent,1,2649.27513777786,3351.79698781986
58,104,3,432,-0.5,0.5,0.5,4,1,1,4,684,1,1,684,1,0,1.8,0.6,0.2656076719506,0.2656076719506,750,0,0,incongruent,0.1,825.459529222661,6246.68298452198
58,104,3,433,0.5,-0.5,-0.5,2,2,1,2,622,1,1,622,1,0,1.6,NaN,-0.231235082756841,-0.231235082756841,750,1,0,congruent,1,2483.05195777743,5175.99253671184
58,104,3,434,0.5,-0.5,0.5,3,4,1,4,561,0,1,NaN,1,0,1.8,NaN,-0.72006424464642,NaN,750,1,0,incongruent,1,17941.0944286408,1374.80800215839
58,104,3,435,-0.5,-0.5,-0.5,2,2,1,2,782,1,0,782,1,0,1.8,1,1.05093976810107,1.05093976810107,750,1,0,congruent,0.1,2607.73519405487,10444.8053370705
58,104,3,436,-0.5,0.5,0,4,NaN,1,4,578,1,1,578,1,0,1.6,0.8,-0.583833166742767,-0.583833166742767,750,0,0,neutral,0.1,7608.70026237199,3647.10006725814
58,104,3,437,0.5,-0.5,0.5,2,4,1,2,563,1,1,563,1,0,1.4,NaN,-0.704037059010696,-0.704037059010696,750,0,0,incongruent,1,3350.89021557085,3813.93089280047
58,104,3,438,-0.5,0.5,-0.5,1,1,1,1,525,1,1,525,1,0,1.6,0.8,-1.00855358608945,-1.00855358608945,750,1,0,congruent,0.1,3236.76934362961,3720.05816264419
58,104,3,439,0.5,0.5,0.5,3,4,1,3,622,1,1,622,1,0,1.4,NaN,-0.231235082756841,-0.231235082756841,750,0,0,incongruent,1,2718.24861992921,5173.78237082152
58,104,3,440,0.5,-0.5,0,4,NaN,1,4,595,1,1,595,1,0,1.4,NaN,-0.447602088839114,-0.447602088839114,750,0,0,neutral,1,7389.0947405004,2075.77362383964
58,104,3,441,-0.5,-0.5,-0.5,1,1,1,1,521,1,1,521,1,0,1.6,1,-1.0406079573609,-1.0406079573609,750,1,0,congruent,0.1,4748.48877729123,2833.44229349267
58,104,3,443,-0.5,0.5,-0.5,1,1,0.8,4,866,0,0,NaN,0,0,1.2,0.8,1.72408156480147,NaN,750,0,1,congruent,0,32774.6418667386,3510.51436127017
58,104,3,444,0.5,-0.5,-0.5,4,4,0.6,4,723,1,1,723,1,0,1,NaN,0.578137791847216,0.578137791847216,750,1,0,congruent,1,283.301174734267,4105.91560638851
58,104,3,446,0.5,0.5,-0.5,4,4,0.6,4,799,1,0,799,0,0,0.6,NaN,1.18717084600472,1.18717084600472,750,1,0,congruent,0,3142.14338947217,7688.82852433008
58,104,3,447,0.5,-0.5,-0.5,1,1,0.4,1,554,1,1,554,0,0,0.4,NaN,-0.776159394371454,-0.776159394371454,750,1,0,congruent,0,2521.37188158725,8012.2958545452
58,104,3,448,0.5,0.5,0,4,NaN,0.4,4,736,1,1,736,1,0,0.4,NaN,0.682314498479421,0.682314498479421,750,0,0,neutral,1,7613.9049990881,5983.8406678596
58,104,3,449,0.5,-0.5,-0.5,3,3,0.4,3,686,1,1,686,1,0,0.8,NaN,0.281634857586324,0.281634857586324,750,1,0,congruent,1,30415.7326515748,1939.13865281094
58,104,3,450,0.5,0.5,-0.5,2,2,0.4,2,522,1,1,522,1,0,0.8,NaN,-1.03259436454304,-1.03259436454304,750,1,0,congruent,1,2827.44096383623,2451.50098446856
58,104,4,451,-0.5,0.5,0.5,3,4,0.4,3,784,1,0,784,0,0,1.2,0.8,1.06696695373679,1.06696695373679,750,0,0,incongruent,0,4697.53630144352,4714.09581191555
58,104,4,452,-0.5,-0.5,-0.5,1,1,0.4,1,623,1,1,623,1,0,1.2,0.8,-0.223221489938979,-0.223221489938979,750,1,0,congruent,0.1,708.143631889533,6410.23024170509
58,104,4,453,0.5,-0.5,0.5,2,4,0.4,2,580,1,1,580,0,0,1.4,NaN,-0.567805981107043,-0.567805981107043,750,0,0,incongruent,0,3160.03506702747,1212.69121300907
58,104,4,454,0.5,0.5,0.5,3,2,0.4,3,585,1,1,585,1,0,1,NaN,-0.527738017017733,-0.527738017017733,750,0,0,incongruent,1,3854.03818603059,736.376266341179
58,104,4,455,-0.5,0.5,-0.5,1,1,0.6,1,563,1,1,563,1,0,1,0.6,-0.704037059010696,-0.704037059010696,750,1,0,congruent,0.1,2073.72980060296,3433.56830468645
58,104,4,456,0.5,0.5,0,3,NaN,0.8,3,796,1,0,796,0,0,0.8,NaN,1.16313006755114,1.16313006755114,750,0,0,neutral,0,4901.62680186666,9877.65440259043
58,104,4,457,-0.5,0.5,-0.5,2,2,0.6,2,885,1,0,885,0,0,0.8,0.6,1.87633982834085,1.87633982834085,750,1,0,congruent,0,12642.0064172862,3490.21636968549
58,104,4,458,-0.5,0.5,0,4,NaN,0.4,4,717,1,1,717,1,0,0.6,0.4,0.530056234940044,0.530056234940044,750,0,0,neutral,0.1,3004.06465064689,6109.9058191986
58,104,4,459,-0.5,0.5,0.5,2,1,0.6,2,674,1,1,674,1,0,0.8,0.4,0.18547174377198,0.18547174377198,750,0,0,incongruent,0.1,3910.10689549247,20598.1620360964
58,104,4,460,0.5,-0.5,-0.5,3,3,0.6,3,669,1,1,669,1,0,0.6,NaN,0.145403779682671,0.145403779682671,750,1,0,congruent,1,4957.77849673879,5478.82694327003
58,104,4,461,-0.5,0.5,-0.5,1,1,0.6,1,559,1,1,559,1,0,0.8,0.6,-0.736091430282144,-0.736091430282144,750,1,0,congruent,0.1,3786.88297823272,14414.1114264602
58,104,4,462,-0.5,-0.5,0.5,3,2,0.6,4,694,0,1,NaN,0,0,1,0.8,0.345743600129219,NaN,750,0,1,incongruent,0,28301.0196551652,6159.69868791677
58,104,4,463,-0.5,0.5,0.5,2,3,0.6,2,721,1,1,721,1,0,1,0.8,0.562110606211492,0.562110606211492,750,0,0,incongruent,0.1,5931.75940249768,3923.05961491087
58,104,4,465,-0.5,0.5,0,4,NaN,0.8,4,650,1,1,650,1,0,0.8,0.8,-0.00685448385670648,-0.00685448385670648,750,0,0,neutral,0.1,4067.57045620478,5506.13932894874
58,104,4,466,-0.5,0.5,0.5,1,2,0.8,1,737,1,1,737,1,0,0.6,0.8,0.690328091297283,0.690328091297283,750,0,0,incongruent,0.1,3987.03093280085,3096.75442984199
58,104,4,468,-0.5,0.5,0.5,1,3,0.6,4,658,0,1,NaN,0,0,0.6,0.6,0.0572542586861891,NaN,750,0,1,incongruent,0,8956.14702074726,1320.35706301814
58,104,4,469,0.5,-0.5,0.5,3,2,0.4,3,877,1,0,877,0,0,0.4,NaN,1.81223108579796,1.81223108579796,750,0,0,incongruent,0,1844.3048685298,1204.01572307542
58,104,4,470,0.5,0.5,0,1,NaN,0.4,1,598,1,1,598,1,0,0.4,NaN,-0.423561310385528,-0.423561310385528,750,0,0,neutral,1,2202.93814333984,1171.37739746325
58,104,4,472,0.5,0.5,0.5,4,1,0.6,3,702,0,1,NaN,0,0,0.4,NaN,0.409852342672115,NaN,750,0,1,incongruent,0,25131.1271079622,7737.06550989736
58,104,4,473,-0.5,-0.5,0.5,3,4,0.4,3,832,1,0,832,1,0,0.4,0.4,1.45161940899417,1.45161940899417,750,0,0,incongruent,0.1,8587.45241346716,1796.01097463972
58,104,4,474,0.5,0.5,0,1,NaN,0.4,1,445,1,1,445,1,0,0.6,NaN,-1.64964101151841,-1.64964101151841,750,0,0,neutral,1,1321.75707365851,2311.84921862866
58,104,4,475,-0.5,0.5,0.5,3,4,0.4,3,879,1,0,879,0,0,1,0.4,1.82825827143368,1.82825827143368,750,0,0,incongruent,0,2997.443824552,6153.55227357577
58,104,4,476,-0.5,0.5,0,2,NaN,0.4,2,836,1,0,836,0,0,0.6,0.4,1.48367378026562,1.48367378026562,750,0,0,neutral,0,12699.0725372893,2720.53314302158
58,104,4,477,-0.5,0.5,-0.5,3,3,0.4,3,618,1,1,618,1,0,0.6,0.2,-0.263289454028289,-0.263289454028289,750,1,0,congruent,0.1,7140.00845042991,3559.68447903186
58,104,4,478,-0.5,-0.5,0,1,NaN,0.4,1,597,1,1,597,0,0,0.8,0.4,-0.43157490320339,-0.43157490320339,750,0,0,neutral,0,1541.43135059121,3284.67103801719
58,104,4,480,0.5,-0.5,-0.5,4,4,0.4,4,683,1,1,683,0,0,0.6,NaN,0.257594079132738,0.257594079132738,750,1,0,congruent,0,1244.46808237587,4113.8096565201
58,104,4,481,-0.5,0.5,0,1,NaN,0.4,1,690,1,1,690,1,0,0.6,0.2,0.313689228857772,0.313689228857772,750,0,0,neutral,0.1,5498.21805890518,6658.07797003595
58,104,4,482,-0.5,0.5,-0.5,4,4,0.6,4,823,1,0,823,0,0,0.8,0.4,1.37949707363341,1.37949707363341,750,1,0,congruent,0,9944.74419325631,7080.09879822524
58,104,4,483,0.5,-0.5,0.5,1,2,0.4,1,827,1,0,827,0,0,0.6,NaN,1.41155144490486,1.41155144490486,750,0,0,incongruent,0,1915.35427355077,5697.75170969676
58,104,4,484,0.5,0.5,-0.5,4,4,0.4,4,481,1,1,481,1,0,0.6,NaN,-1.36115167007538,-1.36115167007538,750,1,0,congruent,1,4785.09665378849,3703.23482742716
58,104,4,485,0.5,0.5,0,2,NaN,0.6,2,561,1,1,561,1,0,0.6,NaN,-0.72006424464642,-0.72006424464642,750,0,0,neutral,1,5857.78060918058,7453.96250599422
58,104,4,486,0.5,-0.5,0.5,3,2,0.8,4,579,0,1,NaN,1,0,1,NaN,-0.575819573924905,NaN,750,0,1,incongruent,1,4210.71235044823,3822.43108258794
58,104,4,487,-0.5,-0.5,0.5,1,4,0.8,1,626,1,1,626,0,0,1.2,0.4,-0.199180711485393,-0.199180711485393,750,0,0,incongruent,0,7963.15660689011,3945.73377143071
58,104,4,488,-0.5,-0.5,0.5,3,2,0.8,4,640,0,1,NaN,1,0,1.2,0.2,-0.086990412035326,NaN,750,0,1,incongruent,0.1,48905.6537259426,2737.41394384711
58,104,4,489,0.5,-0.5,-0.5,1,1,0.8,1,496,1,1,496,0,0,1.4,NaN,-1.24094777780745,-1.24094777780745,750,1,0,congruent,0,1958.90688509435,3970.15694853916
58,104,4,490,0.5,-0.5,0.5,3,2,0.8,4,744,0,1,NaN,1,0,1,NaN,0.746423241022317,NaN,750,0,1,incongruent,1,4092.86987272106,4070.9983917108
58,104,4,491,-0.5,0.5,0,2,NaN,0.8,2,644,1,1,644,1,0,1,0.4,-0.0549360407638782,-0.0549360407638782,750,0,0,neutral,0.1,3226.70152636987,2032.60319529109
58,104,4,492,-0.5,-0.5,0.5,3,2,0.8,3,663,1,1,663,0,0,0.8,0.4,0.0973222227754989,0.0973222227754989,750,0,0,incongruent,0,6453.39769230058,5809.2283758603
58,104,4,493,0.5,-0.5,0.5,2,3,0.8,2,843,1,0,843,1,0,0.8,NaN,1.53976892999065,1.53976892999065,750,0,0,incongruent,1,2902.91705824348,2940.86664543356
58,104,4,494,-0.5,-0.5,-0.5,1,1,0.8,1,684,1,1,684,1,0,1,0.4,0.2656076719506,0.2656076719506,750,1,0,congruent,0.1,3802.37917592728,2488.57400770622
58,104,4,495,-0.5,0.5,-0.5,2,2,0.8,2,748,1,1,748,1,0,1.2,0.6,0.778477612293765,0.778477612293765,750,1,0,congruent,0.1,2720.05035678138,1860.43492046335
58,104,4,496,-0.5,0.5,0.5,1,3,0.8,1,676,1,1,676,1,0,1,0.8,0.201498929407704,0.201498929407704,750,0,0,incongruent,0.1,1685.34392826015,11773.8758921108
58,104,4,497,0.5,0.5,-0.5,4,4,1,4,921,1,0,921,0,0,1,NaN,2.16482916978388,2.16482916978388,750,1,0,congruent,0,1917.03415153039,2531.14644837163
58,104,4,498,-0.5,-0.5,-0.5,3,3,0.8,3,980,1,0,980,1,0,1,0.4,2.63763114603774,2.63763114603774,750,1,0,congruent,0.1,3923.59686055106,3595.61758332801
58,104,4,499,0.5,-0.5,0.5,2,4,0.8,2,674,1,1,674,1,0,0.8,NaN,0.18547174377198,0.18547174377198,750,0,0,incongruent,1,3666.32425045506,5888.00146989464
58,104,4,500,0.5,0.5,0,4,NaN,0.8,4,486,1,1,486,1,0,1,NaN,-1.32108370598607,-1.32108370598607,750,0,0,neutral,1,2751.68095196002,1471.1230625751
58,104,4,501,0.5,0.5,-0.5,1,1,0.8,1,444,1,1,444,1,0,1.2,NaN,-1.65765460433627,-1.65765460433627,750,1,0,congruent,1,11841.7997765699,2150.5654555472
58,104,4,502,0.5,-0.5,0.5,3,4,0.8,3,601,1,1,601,1,0,1.4,NaN,-0.399520531931942,-0.399520531931942,750,0,0,incongruent,1,3184.84763960835,3545.40372021573
58,104,4,503,0.5,0.5,0,2,NaN,0.8,2,403,1,1,403,1,0,1.8,NaN,-1.98621190986861,-1.98621190986861,750,0,0,neutral,1,2666.49680641628,1729.22739626764
58,104,4,504,-0.5,-0.5,-0.5,1,1,0.8,1,507,1,1,507,1,0,2,0.6,-1.15279825681097,-1.15279825681097,750,1,0,congruent,0.1,1624.61398280191,5057.12075195767
58,104,4,505,0.5,-0.5,0.5,2,4,0.8,2,661,1,1,661,1,0,1.8,NaN,0.081295037139775,0.081295037139775,750,0,0,incongruent,1,3633.51618984554,4428.9686514321
58,104,4,506,-0.5,0.5,0,4,NaN,0.8,4,625,1,1,625,1,0,1.8,0.8,-0.207194304303255,-0.207194304303255,750,0,0,neutral,0.1,3735.67656273733,1993.13068585592
58,104,4,507,-0.5,0.5,-0.5,2,2,0.8,2,632,1,1,632,1,0,1.6,0.8,-0.151099154578222,-0.151099154578222,750,1,0,congruent,0.1,6245.8530874311,2967.85307846104
58,104,4,508,0.5,-0.5,-0.5,1,1,1,1,542,1,1,542,1,0,1.4,NaN,-0.872322508185797,-0.872322508185797,750,1,0,congruent,1,1300.21467230209,1794.48581605029
58,104,4,509,-0.5,-0.5,-0.5,3,3,1,3,848,1,0,848,1,0,1.4,0.8,1.57983689407996,1.57983689407996,750,1,0,congruent,0.1,8036.8777638219,3487.84765133791
58,104,4,510,-0.5,-0.5,-0.5,4,4,1,4,622,1,1,622,1,0,1.4,0.8,-0.231235082756841,-0.231235082756841,750,1,0,congruent,0.1,3155.53556831549,2716.9503042129
58,104,4,511,0.5,-0.5,0,3,NaN,1,3,568,1,1,568,1,0,1.2,NaN,-0.663969094921386,-0.663969094921386,750,0,0,neutral,1,3730.75022337801,3965.58601628374
58,104,4,512,-0.5,0.5,-0.5,4,4,1,4,711,1,1,711,1,0,1.4,1,0.481974678032873,0.481974678032873,750,1,0,congruent,0.1,7111.62315093681,7786.2744273138
58,104,4,513,-0.5,0.5,-0.5,3,3,1,3,576,1,1,576,1,0,1.4,1,-0.599860352378491,-0.599860352378491,750,1,0,congruent,0.1,37785.4146242022,4291.45535459587
58,104,4,514,0.5,0.5,0.5,2,4,1,2,531,1,1,531,1,0,1.2,NaN,-0.960472029182279,-0.960472029182279,750,0,0,incongruent,1,2990.21965835694,1424.76340167337
58,104,4,515,-0.5,-0.5,0,4,NaN,1,4,528,1,1,528,1,0,1.4,1,-0.984512807635864,-0.984512807635864,750,0,0,neutral,0.1,4356.05641650338,2217.26097144617
58,104,4,516,0.5,-0.5,0.5,1,2,1,4,539,0,1,NaN,1,0,1.4,NaN,-0.896363286639383,NaN,750,0,1,incongruent,1,15535.8215843668,5266.02373763515
58,104,4,517,-0.5,0.5,0,4,NaN,1,4,628,1,1,628,1,0,1.4,1,-0.183153525849669,-0.183153525849669,750,0,0,neutral,0.1,10542.2034713148,8874.78617001454
58,104,4,518,-0.5,0.5,0.5,3,1,1,3,670,1,1,670,1,0,1.4,1,0.153417372500533,0.153417372500533,750,0,0,incongruent,0.1,12673.2302359576,1983.29430687592
58,104,4,519,0.5,-0.5,0.5,2,4,1,2,602,1,1,602,1,0,1.4,NaN,-0.39150693911408,-0.39150693911408,750,0,0,incongruent,1,5032.72377625633,2881.16559378055
58,104,4,520,-0.5,0.5,0.5,3,2,1,3,614,1,1,614,1,0,1.4,1,-0.295343825299737,-0.295343825299737,750,0,0,incongruent,0.1,4753.15806975087,7243.21052245179
58,104,4,521,-0.5,0.5,-0.5,1,1,1,1,712,1,1,712,1,0,1.4,1,0.489988270850734,0.489988270850734,750,1,0,congruent,0.1,8899.97247631186,4448.2384108026
58,104,4,522,0.5,0.5,-0.5,3,3,1,3,584,1,1,584,1,0,1.2,NaN,-0.535751609835595,-0.535751609835595,750,1,0,congruent,1,4170.76023617325,1213.56358777589
58,104,4,523,0.5,-0.5,0,1,NaN,1,1,492,1,1,492,1,0,1.4,NaN,-1.27300214907889,-1.27300214907889,750,0,0,neutral,1,2286.94998022134,5611.31537817625
58,104,4,524,0.5,0.5,-0.5,4,4,1,4,556,1,1,556,1,0,1.6,NaN,-0.76013220873573,-0.76013220873573,750,1,0,congruent,1,5168.39447999644,1868.13309761215
58,104,4,525,0.5,0.5,0,2,NaN,1,2,501,1,1,501,1,0,1.6,NaN,-1.20087981371814,-1.20087981371814,750,0,0,neutral,1,2395.5872664784,8108.89489466727
58,104,4,526,0.5,0.5,-0.5,3,3,1,3,635,1,1,635,1,0,1.8,NaN,-0.127058376124636,-0.127058376124636,750,1,0,congruent,1,1205.89832496766,2429.63421148274
58,104,4,527,0.5,0.5,0,1,NaN,1,1,445,1,1,445,1,0,2,NaN,-1.64964101151841,-1.64964101151841,750,0,0,neutral,1,1331.70179389005,2366.9952687778
58,104,4,528,0.5,0.5,0.5,2,1,1,2,388,1,1,388,1,0,2,NaN,-2.10641580213654,-2.10641580213654,750,0,0,incongruent,1,5073.02103631645,2717.10558836185
58,104,4,529,-0.5,0.5,0.5,1,2,1,1,462,1,1,462,1,0,2,1,-1.51340993361475,-1.51340993361475,750,0,0,incongruent,0.1,4095.05702528665,1540.30587628267
58,104,4,530,0.5,-0.5,0,4,NaN,1,4,604,1,1,604,1,0,1.8,NaN,-0.375479753478356,-0.375479753478356,750,0,0,neutral,1,4556.14498201922,6187.50349916797
58,104,4,531,-0.5,-0.5,-0.5,3,3,1,3,715,1,1,715,1,0,1.8,1,0.51402904930432,0.51402904930432,750,1,0,congruent,0.1,2554.45075299549,5011.72808691489
58,104,4,532,0.5,-0.5,-0.5,2,2,1,2,596,1,1,596,1,0,1.6,NaN,-0.439588496021252,-0.439588496021252,750,1,0,congruent,1,3484.1367943008,5633.24870546916
58,104,4,533,0.5,0.5,-0.5,3,3,1,3,470,1,1,470,1,0,1.6,NaN,-1.44930119107186,-1.44930119107186,750,1,0,congruent,1,3588.509861847,3700.57704060295
58,104,4,534,-0.5,0.5,0.5,1,4,1,4,588,0,1,NaN,0,0,1.6,1,-0.503697238564147,NaN,750,1,0,incongruent,0,7323.38282109919,4118.32764838037
58,104,4,535,0.5,-0.5,-0.5,2,2,0.8,2,596,1,1,596,0,0,1.4,NaN,-0.439588496021252,-0.439588496021252,750,1,0,congruent,0,2509.9362288418,14140.9302560945
58,104,4,536,-0.5,0.5,0.5,1,3,0.8,1,736,1,1,736,1,0,1,0.8,0.682314498479421,0.682314498479421,750,0,0,incongruent,0.1,1897.65774270679,6013.72005418278
58,104,4,537,-0.5,-0.5,-0.5,4,4,0.8,4,597,1,1,597,1,0,1,1,-0.43157490320339,-0.43157490320339,750,1,0,congruent,0.1,4080.8263526177,1482.12041007868
58,104,4,538,0.5,0.5,0.5,1,3,0.8,1,479,1,1,479,1,0,0.8,NaN,-1.3771788557111,-1.3771788557111,750,0,0,incongruent,1,7417.23415683311,2409.00816226513
58,104,4,539,0.5,-0.5,0.5,3,1,0.8,3,833,1,0,833,0,0,0.8,NaN,1.45963300181203,1.45963300181203,750,0,0,incongruent,0,10135.1076908222,6792.23868949631
58,104,4,540,-0.5,-0.5,0.5,1,3,0.8,1,544,1,1,544,1,0,0.8,1,-0.856295322550073,-0.856295322550073,750,0,0,incongruent,0.1,4016.712537626,854.499020577357
58,104,4,541,0.5,0.5,-0.5,2,2,0.8,2,583,1,1,583,1,0,1,NaN,-0.543765202653457,-0.543765202653457,750,1,0,congruent,1,6284.48881656456,1694.90851883277
58,104,4,542,-0.5,0.5,0,4,NaN,0.8,4,631,1,1,631,1,0,1.2,0.8,-0.159112747396084,-0.159112747396084,750,0,0,neutral,0.1,1100.65458518659,2042.35836315773
58,104,4,543,0.5,-0.5,-0.5,1,1,0.8,1,387,1,1,387,1,0,1.2,NaN,-2.1144293949544,-2.1144293949544,750,1,0,congruent,1,7210.56964493551,1727.57575688829
58,104,4,544,-0.5,-0.5,0.5,4,2,0.8,4,609,1,1,609,1,0,1.2,1,-0.335411789389046,-0.335411789389046,750,0,0,incongruent,0.1,2311.65346191682,3845.75645936594
58,104,4,545,-0.5,0.5,0,3,NaN,0.8,3,768,1,0,768,0,0,1.4,0.8,0.938749468651004,0.938749468651004,750,0,0,neutral,0,1450.01119999141,4878.65913207822
58,104,4,546,0.5,0.5,-0.5,2,2,0.8,2,594,1,1,594,1,0,1.2,NaN,-0.455615681656976,-0.455615681656976,750,1,0,congruent,1,6189.14352903423,8670.34997883261
58,104,4,547,0.5,-0.5,-0.5,4,4,0.8,3,949,0,0,NaN,0,0,1.2,NaN,2.38920976868402,NaN,750,0,1,congruent,0,6982.98363043878,1799.63328173095
58,104,4,548,0.5,-0.5,0.5,1,2,0.8,1,556,1,1,556,1,0,1,NaN,-0.76013220873573,-0.76013220873573,750,0,0,incongruent,1,3201.70785887292,4285.51076404257
58,104,4,549,-0.5,-0.5,0,2,NaN,0.8,2,716,1,1,716,1,0,1,1,0.522042642122182,0.522042642122182,750,0,0,neutral,0.1,10236.7998690048,5877.77914555487
58,104,4,550,0.5,0.5,-0.5,1,1,0.8,1,446,1,1,446,1,0,1,NaN,-1.64162741870054,-1.64162741870054,750,1,0,congruent,1,3397.08414250296,3323.97727517077
58,104,4,551,0.5,0.5,0,3,NaN,0.8,3,651,1,1,651,1,0,1.4,NaN,0.00115910896115547,0.00115910896115547,750,0,0,neutral,1,5471.92064247001,3400.95007633756
58,104,4,552,0.5,-0.5,0.5,1,3,0.8,1,560,1,1,560,1,0,1.4,NaN,-0.728077837464282,-0.728077837464282,750,0,0,incongruent,1,4440.05510484153,1866.3772806211
58,104,4,553,-0.5,0.5,0.5,3,2,0.8,3,590,1,1,590,1,0,1.8,0.6,-0.487670052928424,-0.487670052928424,750,0,0,incongruent,0.1,2049.2106473131,2596.20347732532
58,104,4,554,-0.5,-0.5,0,4,NaN,0.8,4,619,1,1,619,1,0,1.6,1,-0.255275861210427,-0.255275861210427,750,0,0,neutral,0.1,4039.34199722319,11891.9058701614
58,104,4,556,0.5,-0.5,-0.5,3,3,0.8,3,546,1,1,546,1,0,1.2,NaN,-0.840268136914349,-0.840268136914349,750,1,0,congruent,1,5546.22461628176,1976.64667018428
58,104,4,557,-0.5,-0.5,0.5,4,2,0.8,4,617,1,1,617,0,0,1.2,1,-0.271303046846151,-0.271303046846151,750,0,0,incongruent,0,5070.70750947568,5040.82346972804
58,104,4,558,-0.5,0.5,0.5,2,1,0.8,2,746,1,1,746,1,0,0.8,0.6,0.762450426658041,0.762450426658041,750,0,0,incongruent,0.1,13518.4858438037,3654.99335000603
58,104,4,560,0.5,-0.5,0.5,1,3,0.8,1,515,1,1,515,1,0,0.8,NaN,-1.08868951426807,-1.08868951426807,750,0,0,incongruent,1,2510.59842415473,3581.21297097761
58,104,4,561,0.5,-0.5,0.5,3,2,0.8,3,502,1,1,502,1,0,1.2,NaN,-1.19286622090028,-1.19286622090028,750,0,0,incongruent,1,2394.8705644908,883.589635955504
58,104,4,562,0.5,-0.5,0,2,NaN,0.8,2,636,1,1,636,0,0,1.2,NaN,-0.119044783306774,-0.119044783306774,750,0,0,neutral,0,1900.00549501855,4294.74636040571
58,104,4,563,0.5,0.5,0.5,3,2,0.8,3,562,1,1,562,1,0,1.2,NaN,-0.712050651828558,-0.712050651828558,750,0,0,incongruent,1,7831.06947506062,5001.54808298453
58,104,4,564,-0.5,-0.5,0,4,NaN,0.8,4,559,1,1,559,1,0,1.4,0.8,-0.736091430282144,-0.736091430282144,750,0,0,neutral,0.1,2192.06038233176,1645.60468334696
58,104,4,565,0.5,0.5,0.5,1,3,0.8,1,535,1,1,535,1,0,1.4,NaN,-0.928417657910831,-0.928417657910831,750,0,0,incongruent,1,3250.25180500146,5688.06020343045
58,104,4,566,0.5,0.5,-0.5,4,4,0.8,4,483,1,1,483,1,0,1.4,NaN,-1.34512448443965,-1.34512448443965,750,1,0,congruent,1,10820.5511402744,3661.22429967963
58,104,4,567,0.5,-0.5,0,1,NaN,0.8,1,598,1,1,598,1,0,1.4,NaN,-0.423561310385528,-0.423561310385528,750,0,0,neutral,1,4041.49445778207,3804.81382190153
58,104,4,569,-0.5,0.5,-0.5,1,1,0.8,1,570,1,1,570,1,0,1.8,0.6,-0.647941909285663,-0.647941909285663,750,1,0,congruent,0.1,2173.24211187095,5928.56623487802
58,104,4,570,0.5,0.5,-0.5,2,2,1,2,643,1,1,643,1,0,1.8,NaN,-0.0629496335817401,-0.0629496335817401,750,1,0,congruent,1,921.723544446356,3930.23100285634
58,104,4,571,0.5,0.5,0.5,4,3,1,4,605,1,1,605,1,0,1.8,NaN,-0.367466160660494,-0.367466160660494,750,0,0,incongruent,1,2745.97039976012,4379.56735206396
58,104,4,572,0.5,-0.5,0.5,2,4,1,2,581,1,1,581,1,0,1.8,NaN,-0.559792388289181,-0.559792388289181,750,0,0,incongruent,1,8105.04322732245,5401.44766638546
58,104,4,573,-0.5,-0.5,0,4,NaN,1,4,532,1,1,532,1,0,1.8,0.8,-0.952458436364417,-0.952458436364417,750,0,0,neutral,0.1,5912.70567086441,1384.63605831448
58,104,4,574,-0.5,0.5,-0.5,3,3,1,3,658,1,1,658,1,0,1.6,0.6,0.0572542586861891,0.0572542586861891,750,1,0,congruent,0.1,7208.93567573369,2820.84552567906
58,104,4,575,-0.5,0.5,0,1,NaN,1,1,551,1,1,551,1,0,1.6,0.8,-0.80020017282504,-0.80020017282504,750,0,0,neutral,0.1,5293.93948983395,4207.0045322284
58,104,4,576,0.5,-0.5,-0.5,3,3,1,3,481,1,1,481,1,0,1.4,NaN,-1.36115167007538,-1.36115167007538,750,1,0,congruent,1,3814.84598987968,1938.48907189202
58,104,4,577,0.5,0.5,0.5,2,1,1,2,548,1,1,548,1,0,1.4,NaN,-0.824240951278625,-0.824240951278625,750,0,0,incongruent,1,2482.30784754451,8883.2297439995
58,104,4,578,-0.5,-0.5,-0.5,4,4,1,4,598,1,1,598,1,0,1.4,0.8,-0.423561310385528,-0.423561310385528,750,1,0,congruent,0.1,4464.13084270735,4886.66763258357
58,104,4,579,0.5,0.5,0,3,NaN,1,3,529,1,1,529,1,0,1.4,NaN,-0.976499214818003,-0.976499214818003,750,0,0,neutral,1,4590.81979056336,5397.9483682652
58,104,4,580,-0.5,-0.5,-0.5,1,1,1,1,802,1,0,802,1,0,1.6,0.8,1.21121162445831,1.21121162445831,750,1,0,congruent,0.1,1830.23155828326,6740.15444091515
58,104,4,581,-0.5,-0.5,0,2,NaN,1,3,826,0,0,NaN,1,0,1.6,1,1.403537852087,NaN,750,0,1,neutral,0.1,2926.11684350247,1891.18117896904
58,104,4,582,-0.5,0.5,-0.5,3,3,1,1,556,0,1,NaN,0,0,1.4,0.8,-0.76013220873573,NaN,750,0,1,congruent,0,5098.57734785256,3993.93200373552
58,104,4,583,0.5,-0.5,-0.5,4,4,0.8,2,628,0,1,NaN,0,0,1,NaN,-0.183153525849669,NaN,750,0,1,congruent,0,10959.9934195895,4677.30025648547
58,104,4,584,0.5,0.5,0,3,NaN,0.8,3,392,1,1,392,1,0,0.8,NaN,-2.07436143086509,-2.07436143086509,750,0,0,neutral,1,3437.100652285,2354.24467415388
58,104,4,585,0.5,0.5,-0.5,2,2,0.8,3,945,0,0,NaN,0,0,0.8,NaN,2.35715539741257,NaN,750,0,1,congruent,0,3867.45494485853,2273.8446891529
58,104,4,586,-0.5,0.5,0.5,1,3,0.6,1,676,1,1,676,1,0,0.6,0.8,0.201498929407704,0.201498929407704,750,0,0,incongruent,0.1,2223.83930440401,2258.57509979152
58,104,4,588,0.5,-0.5,0,4,NaN,0.6,4,589,1,1,589,0,0,0.8,NaN,-0.495683645746285,-0.495683645746285,750,0,0,neutral,0,4118.1806386902,3293.62491416271
58,104,4,589,0.5,0.5,0.5,3,1,0.6,3,848,1,0,848,0,0,0.8,NaN,1.57983689407996,1.57983689407996,750,0,0,incongruent,0,4278.25860370916,4473.77689216388
58,104,4,590,-0.5,0.5,-0.5,4,4,0.4,4,603,1,1,603,1,0,0.4,0.8,-0.383493346296218,-0.383493346296218,750,1,0,congruent,0.1,7841.67501914208,2714.46658980656
58,104,4,591,-0.5,0.5,0,1,NaN,0.6,1,582,1,1,582,1,0,0.6,0.8,-0.551778795471319,-0.551778795471319,750,0,0,neutral,0.1,1998.20301142967,5030.2442978784
58,104,4,592,-0.5,0.5,-0.5,3,3,0.6,3,684,1,1,684,1,0,0.6,0.8,0.2656076719506,0.2656076719506,750,1,0,congruent,0.1,5571.28531491,2146.27039286003
58,104,4,593,-0.5,-0.5,-0.5,1,1,0.8,1,589,1,1,589,1,0,0.6,1,-0.495683645746285,-0.495683645746285,750,1,0,congruent,0.1,5519.00804404739,2098.52503861088
58,104,4,594,-0.5,-0.5,0.5,4,2,0.8,4,603,1,1,603,0,0,0.8,1,-0.383493346296218,-0.383493346296218,750,0,0,incongruent,0,10829.5017367304,3135.83199776527
58,104,4,595,-0.5,0.5,-0.5,3,3,0.8,3,718,1,1,718,1,0,0.8,0.8,0.538069827757906,0.538069827757906,750,1,0,congruent,0.1,5154.39857649647,4336.36968664267
58,104,4,596,-0.5,-0.5,-0.5,2,2,0.8,2,558,1,1,558,1,0,0.8,0.8,-0.744105023100006,-0.744105023100006,750,1,0,congruent,0.1,1613.81236263905,6332.40109036124
58,104,4,597,0.5,0.5,0,1,NaN,0.8,1,570,1,1,570,1,0,0.8,NaN,-0.647941909285663,-0.647941909285663,750,0,0,neutral,1,8971.16187178002,4318.29966689278
58,104,4,598,-0.5,0.5,-0.5,2,2,1,2,544,1,1,544,1,0,1,1,-0.856295322550073,-0.856295322550073,750,1,0,congruent,0.1,5579.17195048783,1126.30656074334
58,104,4,599,0.5,0.5,0.5,1,3,1,1,492,1,1,492,1,0,1,NaN,-1.27300214907889,-1.27300214907889,750,0,0,incongruent,1,2431.93038313267,1534.3151550166
58,104,4,600,0.5,0.5,0.5,3,2,1,3,676,1,1,676,1,0,1.4,NaN,0.201498929407704,0.201498929407704,750,0,0,incongruent,1,1052.08236543961,4390.4616781666
