subid,vers,block,trial,rewlvl,efflvl,congruency,targetresp,distractorresp,rollingefflvl,resp,rt,acc,fast,accrt,isrewarded,ismiss,runavgrrgen,runavgrrcond,zrt,acczrt,rtthreshold,isdisterror,isranderror,congruence,feedback,fcz_resp_theta,fcz_resp_theta_baseline
61,104,1,1,0.5,0.5,0.5,3,2,0.6,3,759,1,0,759,0,0,0,NaN,1.27951346143425,1.27951346143425,750,0,0,incongruent,0,1111.50161649782,1806.91616504727
61,104,1,2,-0.5,-0.5,0,4,NaN,0.5,4,490,1,1,490,0,0,0,0,-0.961240344891405,-0.961240344891405,750,0,0,neutral,0,2899.37916230736,1053.97532993682
61,104,1,3,-0.5,-0.5,-0.5,2,2,0.5,2,754,1,0,754,0,0,0,0,1.23786376243192,1.23786376243192,750,1,0,congruent,0,3709.10078524066,4400.63655289951
61,104,1,4,-0.5,-0.5,0,1,NaN,0.5,1,574,1,1,574,1,0,0,0,-0.261525401652166,-0.261525401652166,750,0,0,neutral,0.1,1723.7537698124,2030.81613211402
61,104,1,5,-0.5,0.5,-0.5,2,2,0.5,1,575,0,1,NaN,0,0,0.2,0,-0.253195461851699,NaN,750,0,1,congruent,0,1107.98156342394,3831.83551061543
61,104,1,6,0.5,-0.5,-0.5,3,3,0.3,3,489,1,1,489,0,0,0.2,NaN,-0.969570284691872,-0.969570284691872,750,1,0,congruent,0,292.790952842131,1203.33041912549
61,104,1,7,-0.5,0.5,-0.5,4,4,0.3,4,409,1,1,409,1,0,0.2,0,-1.63596546872924,-1.63596546872924,750,1,0,congruent,0.1,1307.30900752387,1257.92722898782
61,104,1,8,-0.5,0.5,0,2,NaN,0.4,2,570,1,1,570,1,0,0.4,0.2,-0.294845160854035,-0.294845160854035,750,0,0,neutral,0.1,1522.40768004161,644.247531143266
61,104,1,9,-0.5,0.5,-0.5,4,4,0.5,3,513,0,1,NaN,0,0,0.6,0.4,-0.769651729480661,NaN,750,0,1,congruent,0,1746.76184062854,1443.75080953342
61,104,1,10,0.5,-0.5,0,2,NaN,0.4,2,661,1,1,661,0,0,0.4,NaN,0.463179360988474,0.463179360988474,750,0,0,neutral,0,1277.201379324,2214.59457474073
61,104,1,11,-0.5,-0.5,-0.5,3,3,0.4,3,630,1,1,630,0,0,0.4,0.2,0.204951227173993,0.204951227173993,750,1,0,congruent,0,2943.27967070981,1204.26966196858
61,104,1,12,-0.5,0.5,0.5,2,4,0.4,1,689,0,1,NaN,0,0,0.4,0.4,0.696417675401553,NaN,750,0,1,incongruent,0,2069.00667927033,2185.43360434158
61,104,1,13,0.5,-0.5,-0.5,1,1,0.4,2,586,0,1,NaN,1,0,0.2,NaN,-0.161566124046561,NaN,750,0,1,congruent,1,1409.29833843504,510.962982471253
61,104,1,14,0.5,0.5,0,3,NaN,0.4,1,585,0,1,NaN,0,0,0.4,NaN,-0.169896063847028,NaN,750,0,1,neutral,0,8240.31204907439,2894.2284001448
61,104,1,15,-0.5,0.5,-0.5,2,2,0.4,3,472,0,1,NaN,0,0,0.4,0.4,-1.11117926129981,NaN,750,0,1,congruent,0,4374.83205063578,2190.24157076162
61,104,1,16,0.5,-0.5,0.5,1,4,0.2,4,564,0,1,NaN,1,0,0.4,NaN,-0.344824799656837,NaN,750,1,0,incongruent,1,3617.49721356264,4087.68727980137
61,104,1,17,-0.5,0.5,0.5,3,1,0.2,3,612,1,1,612,1,0,0.8,0.4,0.0550123107655847,0.0550123107655847,750,0,0,incongruent,0.1,351.613315542874,1599.85013436504
61,104,1,18,-0.5,0.5,0.5,2,4,0.2,2,552,1,1,552,1,0,1,0.4,-0.444784077262443,-0.444784077262443,750,0,0,incongruent,0.1,1008.61875364396,1064.95342446827
61,104,1,19,0.5,-0.5,-0.5,1,1,0.4,1,582,1,1,582,0,0,0.8,NaN,-0.194885883248429,-0.194885883248429,750,1,0,congruent,0,2552.12132089186,990.816484210491
61,104,1,20,0.5,-0.5,-0.5,4,4,0.4,4,488,1,1,488,0,0,0.8,NaN,-0.977900224492339,-0.977900224492339,750,1,0,congruent,0,2701.40071260408,1083.2252617355
61,104,1,21,0.5,-0.5,-0.5,3,3,0.4,3,388,1,1,388,0,0,0.8,NaN,-1.81089420453905,-1.81089420453905,750,1,0,congruent,0,1637.89758391502,6085.361846151
61,104,1,22,0.5,0.5,-0.5,1,1,0.4,2,556,0,1,NaN,0,0,0.4,NaN,-0.411464318060574,NaN,750,0,1,congruent,0,2512.15259977377,1012.5730537127
61,104,1,23,0.5,-0.5,0.5,3,4,0.4,4,768,0,0,NaN,1,0,0.2,NaN,1.35448291963846,NaN,750,1,0,incongruent,1,2112.38977725014,2435.11005785376
61,104,1,24,0.5,-0.5,0,4,NaN,0.4,4,574,1,1,574,1,0,0.4,NaN,-0.261525401652166,-0.261525401652166,750,0,0,neutral,1,1797.13561547038,4148.94442368889
61,104,1,25,0.5,0.5,-0.5,3,3,0.4,3,525,1,1,525,1,0,0.8,NaN,-0.669692451875055,-0.669692451875055,750,1,0,congruent,1,1230.90213604273,2605.86350686008
61,104,1,26,0.5,-0.5,-0.5,2,2,0.6,2,664,1,1,664,0,0,1.2,NaN,0.488169180389875,0.488169180389875,750,1,0,congruent,0,950.572770236308,1202.61562518285
61,104,1,27,-0.5,-0.5,-0.5,4,4,0.6,4,654,1,1,654,1,0,1.2,0.2,0.404869782385204,0.404869782385204,750,1,0,congruent,0.1,1776.20457091744,2005.52813284872
61,104,1,28,-0.5,0.5,0,2,NaN,0.6,2,880,1,0,880,0,0,1.4,0.4,2.28743617729077,2.28743617729077,750,0,0,neutral,0,2383.4622512249,1974.33668781006
61,104,1,29,-0.5,0.5,-0.5,4,4,0.6,4,468,1,1,468,1,0,1,0.4,-1.14449902050168,-1.14449902050168,750,1,0,congruent,0.1,550.380415207351,894.005981984847
61,104,1,30,0.5,0.5,0.5,2,3,0.6,2,622,1,1,622,1,0,0.8,NaN,0.138311708770256,0.138311708770256,750,0,0,incongruent,1,762.014590343514,1080.79640554845
61,104,1,31,-0.5,-0.5,0.5,3,2,0.6,3,640,1,1,640,1,0,0.8,0.4,0.288250625178664,0.288250625178664,750,0,0,incongruent,0.1,707.00386894904,1903.07051645599
61,104,1,32,-0.5,-0.5,0,2,NaN,0.6,2,557,1,1,557,1,0,1,0.6,-0.403134378260107,-0.403134378260107,750,0,0,neutral,0.1,2902.97504132804,891.606467092554
61,104,1,33,0.5,-0.5,0.5,4,2,0.6,2,628,0,1,NaN,0,0,1,NaN,0.188291347573059,NaN,750,1,0,incongruent,0,2042.0083972183,1302.56041130945
61,104,1,34,0.5,0.5,0,1,NaN,0.6,1,735,1,1,735,1,0,1,NaN,1.07959490622304,1.07959490622304,750,0,0,neutral,1,3477.08394105723,1174.43829963093
61,104,1,35,-0.5,-0.5,0.5,2,3,0.8,2,517,1,1,517,0,0,1.2,0.8,-0.736331970278792,-0.736331970278792,750,0,0,incongruent,0,3654.661308859,3021.75426077359
61,104,1,36,-0.5,0.5,-0.5,1,1,0.8,1,572,1,1,572,1,0,0.8,0.6,-0.2781852812531,-0.2781852812531,750,1,0,congruent,0.1,619.335068166564,1356.27334784089
61,104,1,37,0.5,-0.5,0.5,2,3,0.8,2,686,1,1,686,0,0,0.8,NaN,0.671427856000152,0.671427856000152,750,0,0,incongruent,0,1041.36924988296,3031.21516672363
61,104,1,38,0.5,-0.5,0,1,NaN,0.8,2,589,0,1,NaN,1,0,0.6,NaN,-0.136576304645159,NaN,750,0,1,neutral,1,2568.97618505053,3864.51264755908
61,104,1,39,0.5,-0.5,0.5,3,1,0.8,3,604,1,1,604,0,0,1,NaN,-0.0116272076381523,-0.0116272076381523,750,0,0,incongruent,0,1750.41262103363,527.280959953866
61,104,1,40,0.5,0.5,-0.5,4,4,0.8,4,518,1,1,518,1,0,0.6,NaN,-0.728002030478325,-0.728002030478325,750,1,0,congruent,1,589.301451099818,1402.68761980907
61,104,1,41,0.5,0.5,0,3,NaN,1,3,669,1,1,669,1,0,1,NaN,0.529818879392211,0.529818879392211,750,0,0,neutral,1,556.286960641043,2043.12038162973
61,104,1,42,-0.5,0.5,-0.5,2,2,1,1,324,0,1,NaN,0,0,1.2,0.8,-2.34401035176895,NaN,750,0,1,congruent,0,1647.81490279113,4370.1298964886
61,104,1,43,0.5,0.5,0.5,4,3,0.8,4,608,1,1,608,1,0,1.2,NaN,0.0216925515637162,0.0216925515637162,750,0,0,incongruent,1,1769.7000847087,1248.05106660896
61,104,1,44,0.5,0.5,0.5,3,1,0.8,3,588,1,1,588,1,0,1.2,NaN,-0.144906244445626,-0.144906244445626,750,0,0,incongruent,1,701.001405071852,1882.98298129102
61,104,1,45,0.5,0.5,0.5,2,4,0.8,2,643,1,1,643,1,0,1.6,NaN,0.313240444580066,0.313240444580066,750,0,0,incongruent,1,2062.3940273324,967.512859676665
61,104,1,46,0.5,-0.5,-0.5,3,3,0.8,3,724,1,1,724,0,0,1.6,NaN,0.987965568417903,0.987965568417903,750,1,0,congruent,0,1984.94049385736,885.832764609611
61,104,1,47,0.5,-0.5,0,2,NaN,0.8,2,676,1,1,676,1,0,1.2,NaN,0.588128457995481,0.588128457995481,750,0,0,neutral,1,693.058490206408,1574.30871316292
61,104,1,49,0.5,-0.5,0,2,NaN,0.8,2,637,1,1,637,0,0,1.6,NaN,0.263260805777263,0.263260805777263,750,0,0,neutral,0,776.715572050106,1623.49759844732
61,104,1,50,-0.5,0.5,-0.5,1,1,0.8,1,583,1,1,583,1,0,1.2,0.6,-0.186555943447962,-0.186555943447962,750,1,0,congruent,0.1,1603.57393673099,3069.59070463512
61,104,1,51,-0.5,-0.5,-0.5,3,3,0.8,3,574,1,1,574,0,0,1,0.6,-0.261525401652166,-0.261525401652166,750,1,0,congruent,0,2066.86550940367,955.663127328217
61,104,1,52,0.5,-0.5,0,2,NaN,0.8,2,691,1,1,691,1,0,1,NaN,0.713077555002488,0.713077555002488,750,0,0,neutral,1,2947.73647342082,974.751961437191
61,104,1,53,0.5,-0.5,0.5,1,4,0.8,2,722,0,1,NaN,1,0,1,NaN,0.971305688816969,NaN,750,0,1,incongruent,1,3043.18258924096,1249.51722732424
61,104,1,54,0.5,0.5,0,2,NaN,0.8,3,656,0,1,NaN,0,0,1,NaN,0.421529661986138,NaN,750,0,1,neutral,0,6624.10602018286,5479.72105916926
61,104,1,55,0.5,-0.5,-0.5,1,1,0.8,1,680,1,1,680,0,0,1,NaN,0.621448217197349,0.621448217197349,750,1,0,congruent,0,1120.34119405501,690.426813661462
61,104,1,56,-0.5,0.5,-0.5,2,2,0.8,2,781,1,0,781,0,0,0.8,0.6,1.46277213704453,1.46277213704453,750,1,0,congruent,0,1011.43241807832,1132.37765688901
61,104,1,57,-0.5,0.5,0.5,1,3,0.6,1,731,1,1,731,1,0,0.8,0.6,1.04627514702117,1.04627514702117,750,0,0,incongruent,0.1,1173.70991230903,943.05720862556
61,104,1,58,-0.5,0.5,0,4,NaN,0.6,1,614,0,1,NaN,0,0,0.6,0.6,0.0716721903665189,NaN,750,0,1,neutral,0,2745.28815147412,1665.43963742659
61,104,1,59,0.5,0.5,0.5,2,3,0.4,2,964,1,0,964,0,0,0.2,NaN,2.98715112053001,2.98715112053001,750,0,0,incongruent,0,2162.03130089621,970.435691668684
61,104,1,60,-0.5,-0.5,0.5,3,2,0.2,3,769,1,0,769,0,0,0.2,0.6,1.36281285943892,1.36281285943892,750,0,0,incongruent,0,2335.81335139084,1245.01532923488
61,104,1,64,-0.5,0.5,0,4,NaN,0.2,4,938,1,0,938,0,0,0,0.4,2.77057268571787,2.77057268571787,750,0,0,neutral,0,3312.08956611398,4873.09293456005
61,104,1,65,-0.5,-0.5,0.5,3,4,0.2,1,424,0,1,NaN,0,0,0,0,-1.51101637172224,NaN,750,0,1,incongruent,0,4343.72489579924,2016.10517305902
61,104,1,66,-0.5,-0.5,0,2,NaN,0.2,2,657,1,1,657,0,0,0,0,0.429859601786605,0.429859601786605,750,0,0,neutral,0,1341.10493007729,1926.96772684389
61,104,1,67,0.5,0.5,-0.5,4,4,0.2,4,702,1,1,702,1,0,0,NaN,0.804706892807626,0.804706892807626,750,1,0,congruent,1,4592.56270906078,2083.28247579807
61,104,1,68,-0.5,-0.5,0.5,2,1,0.2,2,528,1,1,528,0,0,0.4,0,-0.644702632473654,-0.644702632473654,750,0,0,incongruent,0,5057.95894434438,2567.19043491475
61,104,1,69,-0.5,-0.5,0,4,NaN,0.2,4,609,1,1,609,0,0,0.4,0,0.0300224913641833,0.0300224913641833,750,0,0,neutral,0,1247.40222304112,1272.18619151335
61,104,1,71,0.5,0.5,0.5,1,2,0.2,2,502,0,1,NaN,0,0,0.4,NaN,-0.861281067285799,NaN,750,1,0,incongruent,0,750.472068040277,3123.31901352842
61,104,1,72,0.5,0.5,0.5,4,1,0.2,4,689,1,1,689,1,0,0.4,NaN,0.696417675401553,0.696417675401553,750,0,0,incongruent,1,1325.38101300619,750.320649812895
61,104,1,73,-0.5,-0.5,-0.5,3,3,0.4,3,479,1,1,479,1,0,0.4,0,-1.05286968269654,-1.05286968269654,750,1,0,congruent,0.1,218.933043610025,3740.57604812235
61,104,1,74,0.5,0.5,0.5,2,4,0.4,2,805,1,0,805,0,0,0.6,NaN,1.66269069225574,1.66269069225574,750,0,0,incongruent,0,2747.27071875965,1768.63423036922
61,104,1,75,0.5,-0.5,0,1,NaN,0.4,3,599,0,1,NaN,0,0,0.6,NaN,-0.053276906640488,NaN,750,0,1,neutral,0,4131.74608276782,1334.36284187312
61,104,1,76,-0.5,-0.5,-0.5,3,3,0.4,3,566,1,1,566,0,0,0.6,0.2,-0.328164920055903,-0.328164920055903,750,1,0,congruent,0,1144.72949689865,1307.95749604713
61,104,1,77,0.5,0.5,0.5,2,1,0.4,2,731,1,1,731,1,0,0.6,NaN,1.04627514702117,1.04627514702117,750,0,0,incongruent,1,2319.828343721,6064.78449475844
61,104,1,78,-0.5,-0.5,0,4,NaN,0.4,4,657,1,1,657,0,0,0.6,0.2,0.429859601786605,0.429859601786605,750,0,0,neutral,0,1451.25460454379,596.145076948045
61,104,1,79,0.5,-0.5,-0.5,1,1,0.4,1,606,1,1,606,1,0,0.4,NaN,0.00503267196278191,0.00503267196278191,750,1,0,congruent,1,4677.99783985902,3287.7635469384
61,104,1,80,0.5,-0.5,0.5,2,3,0.4,2,307,1,1,307,1,0,0.8,NaN,-2.48561932837689,-2.48561932837689,750,0,0,incongruent,1,929.506637569384,321.852672088534
61,104,1,81,-0.5,-0.5,-0.5,1,1,0.4,2,603,0,1,NaN,1,0,1.2,0.2,-0.0199571474386195,NaN,750,0,1,congruent,0.1,906.910408284927,4460.71165600817
61,104,1,82,0.5,0.5,-0.5,2,2,0.4,1,561,0,1,NaN,0,0,1.4,NaN,-0.369814619058239,NaN,750,0,1,congruent,0,2711.55308968278,1725.10817125796
61,104,1,83,0.5,0.5,0,1,NaN,0.4,1,742,1,1,742,1,0,1,NaN,1.13790448482631,1.13790448482631,750,0,0,neutral,1,2283.06826634397,1322.14751987451
61,104,1,84,0.5,-0.5,-0.5,3,3,0.6,2,590,0,1,NaN,1,0,1.4,NaN,-0.128246364844692,NaN,750,0,1,congruent,1,713.681436624878,1482.67823979769
61,104,1,85,-0.5,0.5,0,1,NaN,0.6,1,650,1,1,650,1,0,1.4,0.2,0.371550023183336,0.371550023183336,750,0,0,neutral,0.1,666.945716850348,4673.15857444932
61,104,1,87,0.5,0.5,-0.5,3,3,0.6,3,402,1,1,402,1,0,1.4,NaN,-1.69427504733251,-1.69427504733251,750,1,0,congruent,1,839.555001134999,3049.90906162721
61,104,1,88,0.5,0.5,-0.5,4,4,0.8,4,646,1,1,646,1,0,1.8,NaN,0.338230263981467,0.338230263981467,750,1,0,congruent,1,2648.21238981621,782.825710440954
61,104,1,89,-0.5,0.5,-0.5,1,1,0.8,1,612,1,1,612,1,0,1.8,0.4,0.0550123107655847,0.0550123107655847,750,1,0,congruent,0.1,1069.3467404364,2866.4980909379
61,104,1,90,0.5,-0.5,-0.5,2,2,1,3,570,0,1,NaN,1,0,1.6,NaN,-0.294845160854035,NaN,750,0,1,congruent,1,2280.54323097398,1032.42866359543
61,104,1,91,0.5,0.5,-0.5,3,3,1,3,579,1,1,579,1,0,1.8,NaN,-0.219875702649831,-0.219875702649831,750,1,0,congruent,1,2635.3129227247,2542.17873591335
61,104,1,92,0.5,0.5,0,2,NaN,1,2,688,1,1,688,1,0,1.8,NaN,0.688087735601086,0.688087735601086,750,0,0,neutral,1,3001.56110446736,940.854646950331
61,104,1,93,0.5,-0.5,-0.5,4,4,1,3,469,0,1,NaN,1,0,1.8,NaN,-1.13616908070121,NaN,750,0,1,congruent,1,3276.64977104121,1829.89826334502
61,104,1,94,-0.5,0.5,0.5,3,2,1,3,581,1,1,581,1,0,1.8,0.4,-0.203215823048896,-0.203215823048896,750,0,0,incongruent,0.1,1403.35063525202,1610.15270779205
61,104,1,95,0.5,0.5,0.5,1,3,1,1,988,1,0,988,0,0,1.8,NaN,3.18706967574122,3.18706967574122,750,0,0,incongruent,0,1389.41439913336,1015.490573368
61,104,1,96,0.5,-0.5,-0.5,4,4,0.8,4,580,1,1,580,1,0,1.4,NaN,-0.211545762849363,-0.211545762849363,750,1,0,congruent,1,767.075985091963,2473.51089554977
61,104,1,97,-0.5,-0.5,0.5,1,2,0.8,1,753,1,0,753,1,0,1.4,0.4,1.22953382263145,1.22953382263145,750,0,0,incongruent,0.1,2041.45842337424,5571.81351282915
61,104,1,98,-0.5,-0.5,-0.5,3,3,0.8,4,755,0,0,NaN,1,0,1.2,0.6,1.24619370223238,NaN,750,0,1,congruent,0.1,2374.17147976549,422.961492470318
61,104,1,99,0.5,-0.5,0,4,NaN,0.8,4,621,1,1,621,0,0,1,NaN,0.129981768969789,0.129981768969789,750,0,0,neutral,0,1923.72766833709,950.772893255969
61,104,1,100,-0.5,-0.5,-0.5,3,3,0.8,3,564,1,1,564,1,0,0.8,0.6,-0.344824799656837,-0.344824799656837,750,1,0,congruent,0.1,1001.32753854622,1818.21061964528
61,104,1,101,0.5,-0.5,0.5,2,1,0.8,1,807,0,0,NaN,1,0,1,NaN,1.67935057185667,NaN,750,1,0,incongruent,1,1447.9453208642,1766.70753570843
61,104,1,102,-0.5,0.5,0.5,4,3,0.8,4,730,1,1,730,1,0,1,0.6,1.03794520722071,1.03794520722071,750,0,0,incongruent,0.1,674.428860803345,2239.84118392481
61,104,1,103,-0.5,-0.5,0.5,1,4,0.8,2,813,0,0,NaN,0,0,1,0.8,1.72933021065948,NaN,750,0,1,incongruent,0,573.394862753933,1438.6910651716
61,104,1,104,0.5,0.5,-0.5,3,3,0.8,3,634,1,1,634,1,0,0.8,NaN,0.238270986375861,0.238270986375861,750,1,0,congruent,1,576.857902324703,2577.41537174487
61,104,1,106,-0.5,-0.5,0,3,NaN,0.6,3,567,1,1,567,0,0,1,0.8,-0.319834980255436,-0.319834980255436,750,0,0,neutral,0,1345.91874798241,671.640554721538
61,104,1,107,0.5,0.5,0.5,4,3,0.6,4,695,1,1,695,1,0,0.6,NaN,0.746397314204356,0.746397314204356,750,0,0,incongruent,1,2402.81005971363,1667.83891016234
61,104,1,109,0.5,0.5,-0.5,3,3,0.6,4,596,0,1,NaN,0,0,0.8,NaN,-0.0782667260418894,NaN,750,0,1,congruent,0,1700.8138850892,2795.03506625759
61,104,1,110,-0.5,0.5,0.5,1,4,0.4,1,745,1,1,745,1,0,0.4,0.6,1.16289430422771,1.16289430422771,750,0,0,incongruent,0.1,1099.71591060837,2539.9943096339
61,104,1,111,-0.5,0.5,-0.5,3,3,0.4,3,538,1,1,538,1,0,0.6,0.6,-0.561403234468983,-0.561403234468983,750,1,0,congruent,0.1,3709.45518221473,844.381808977327
61,104,1,112,-0.5,-0.5,0.5,2,4,0.6,2,666,1,1,666,1,0,0.8,0.6,0.50482905999081,0.50482905999081,750,0,0,incongruent,0.1,2625.03801002492,1397.26098330747
61,104,1,114,0.5,0.5,-0.5,4,4,0.6,4,547,1,1,547,1,0,0.6,NaN,-0.486433776264779,-0.486433776264779,750,1,0,congruent,1,2768.79141560235,2102.27948187645
61,104,1,115,0.5,0.5,-0.5,3,3,0.6,3,509,1,1,509,1,0,1,NaN,-0.802971488682529,-0.802971488682529,750,1,0,congruent,1,5842.00922555833,3981.09025287001
61,104,1,116,0.5,0.5,0,1,NaN,0.8,1,752,1,0,752,0,0,1.2,NaN,1.22120388283098,1.22120388283098,750,0,0,neutral,0,1318.96964735316,1771.18202805265
61,104,1,117,0.5,0.5,-0.5,4,4,0.8,3,567,0,1,NaN,0,0,1,NaN,-0.319834980255436,NaN,750,0,1,congruent,0,5969.52054547696,4245.03514020545
61,104,1,118,0.5,-0.5,-0.5,1,1,0.6,1,627,1,1,627,1,0,0.8,NaN,0.179961407772592,0.179961407772592,750,1,0,congruent,1,2268.46932770391,1497.0205238904
61,104,1,119,0.5,0.5,0,2,NaN,0.6,2,730,1,1,730,1,0,1.2,NaN,1.03794520722071,1.03794520722071,750,0,0,neutral,1,2137.79021828186,1433.58637816561
61,104,1,120,0.5,-0.5,-0.5,3,3,0.6,3,582,1,1,582,0,0,1.2,NaN,-0.194885883248429,-0.194885883248429,750,1,0,congruent,0,495.105246018358,822.381635194853
61,104,1,122,-0.5,-0.5,0.5,3,2,0.4,3,641,1,1,641,0,0,0.8,0.4,0.296580564979131,0.296580564979131,750,0,0,incongruent,0,540.654323431171,5014.11891768802
61,104,1,123,-0.5,0.5,0,4,NaN,0.4,4,624,1,1,624,1,0,0.8,0.6,0.15497158837119,0.15497158837119,750,0,0,neutral,0.1,1290.5932742437,2744.74723615833
61,104,1,124,0.5,-0.5,-0.5,3,3,0.4,3,624,1,1,624,0,0,0.6,NaN,0.15497158837119,0.15497158837119,750,1,0,congruent,0,667.112206099258,2225.14888728715
61,104,1,125,0.5,0.5,0.5,4,1,0.4,4,742,1,1,742,1,0,0.2,NaN,1.13790448482631,1.13790448482631,750,0,0,incongruent,1,1342.82317350479,2206.54033407393
61,104,1,126,-0.5,-0.5,0,3,NaN,0.6,3,707,1,1,707,1,0,0.6,0.2,0.846356591809962,0.846356591809962,750,0,0,neutral,0.1,993.496734597395,1350.02590525761
61,104,1,127,-0.5,-0.5,0.5,1,3,0.6,4,774,0,0,NaN,1,0,0.8,0.4,1.40446255844126,NaN,750,0,1,incongruent,0.1,4523.12547662071,1085.94815370618
61,104,1,128,-0.5,0.5,0,3,NaN,0.6,3,680,1,1,680,1,0,1,0.6,0.621448217197349,0.621448217197349,750,0,0,neutral,0.1,913.216116579243,2964.70875331971
61,104,1,130,-0.5,0.5,0.5,3,1,0.6,3,544,1,1,544,1,0,1,0.8,-0.51142359566618,-0.51142359566618,750,0,0,incongruent,0.1,3809.74101056072,1651.94026801869
61,104,1,131,0.5,0.5,-0.5,2,2,0.8,2,687,1,1,687,1,0,0.8,NaN,0.679757795800619,0.679757795800619,750,1,0,congruent,1,883.070730385251,4203.23823612267
61,104,1,132,-0.5,0.5,0,4,NaN,0.8,4,609,1,1,609,1,0,1,0.8,0.0300224913641833,0.0300224913641833,750,0,0,neutral,0.1,2761.72443260082,3017.05479028846
61,104,1,133,0.5,-0.5,0.5,2,4,0.8,3,572,0,1,NaN,1,0,1,NaN,-0.2781852812531,NaN,750,0,1,incongruent,1,304.070388176565,901.945416004066
61,104,1,134,-0.5,0.5,-0.5,1,1,0.8,2,720,0,1,NaN,0,0,1.2,0.8,0.954645809216034,NaN,750,0,1,congruent,0,2151.08593765184,1251.03180245937
61,104,1,135,-0.5,-0.5,0,3,NaN,0.6,3,940,1,0,940,1,0,1.2,0.6,2.7872325653188,2.7872325653188,750,0,0,neutral,0.1,2729.33008345924,1394.45379892602
61,104,1,136,0.5,-0.5,-0.5,1,1,0.6,1,718,1,1,718,1,0,1.2,NaN,0.9379859296151,0.9379859296151,750,1,0,congruent,1,1566.66183718597,1165.85227626469
61,104,1,137,-0.5,-0.5,0.5,2,4,0.6,2,578,1,1,578,1,0,1.2,0.6,-0.228205642450298,-0.228205642450298,750,0,0,incongruent,0.1,1923.77923805153,1589.85965927333
61,104,1,140,0.5,-0.5,0,2,NaN,0.6,2,704,1,1,704,0,0,0.8,NaN,0.82136677240856,0.82136677240856,750,0,0,neutral,0,2977.8313093424,5931.46510312186
61,104,1,141,-0.5,-0.5,0.5,4,3,0.6,4,716,1,1,716,0,0,0.6,0.8,0.921326050014166,0.921326050014166,750,0,0,incongruent,0,1731.26517633125,1071.82089061638
61,104,1,143,0.5,-0.5,0.5,2,3,0.6,2,660,1,1,660,0,0,0,NaN,0.454849421188007,0.454849421188007,750,0,0,incongruent,0,1101.50936070938,2422.78762633924
61,104,1,144,-0.5,0.5,0.5,3,4,0.6,3,535,1,1,535,1,0,0,0.4,-0.586393053870384,-0.586393053870384,750,0,0,incongruent,0.1,1810.32453081154,3418.04518922826
61,104,1,145,-0.5,-0.5,-0.5,2,2,0.6,2,525,1,1,525,1,0,0.2,0.4,-0.669692451875055,-0.669692451875055,750,1,0,congruent,0.1,5627.91988101974,4273.02494731911
61,104,1,146,-0.5,0.5,0,4,NaN,0.6,1,459,0,1,NaN,0,0,0.4,0.6,-1.21946847870589,NaN,750,0,1,neutral,0,3978.6835204633,1981.1200608286
61,104,1,147,0.5,-0.5,-0.5,1,1,0.4,1,785,1,0,785,0,0,0.4,NaN,1.4960918962464,1.4960918962464,750,1,0,congruent,0,4279.78500310767,1700.34585852265
61,104,1,148,-0.5,0.5,0,3,NaN,0.4,3,474,1,1,474,1,0,0.4,0.4,-1.09451938169888,-1.09451938169888,750,0,0,neutral,0.1,1685.11389283789,1512.43723338962
61,104,1,149,-0.5,0.5,-0.5,4,4,0.4,4,544,1,1,544,1,0,0.6,0.4,-0.51142359566618,-0.51142359566618,750,1,0,congruent,0.1,6340.45124906499,3153.68780682531
61,104,1,150,0.5,-0.5,0.5,1,2,0.6,2,581,0,1,NaN,0,0,0.6,NaN,-0.203215823048896,NaN,750,1,0,incongruent,0,1682.40674802837,239.609090089403
61,104,2,151,-0.5,-0.5,0.5,2,1,0.6,2,979,1,0,979,0,0,0.4,0.4,3.11210021753702,3.11210021753702,750,0,0,incongruent,0,289.471039879289,1503.57264530858
61,104,2,152,-0.5,0.5,0.5,1,2,0.6,2,566,0,1,NaN,0,0,0.4,0.6,-0.328164920055903,NaN,750,1,0,incongruent,0,1651.87775876094,1438.38310959929
61,104,2,153,0.5,0.5,-0.5,4,4,0.6,4,495,1,1,495,1,0,0.4,NaN,-0.919590645889069,-0.919590645889069,750,1,0,congruent,1,1047.54458022661,1865.19628287053
61,104,2,154,-0.5,0.5,-0.5,1,1,0.6,1,538,1,1,538,1,0,0.6,0.6,-0.561403234468983,-0.561403234468983,750,1,0,congruent,0.1,3151.1142907935,2335.27048633079
61,104,2,155,-0.5,0.5,-0.5,3,3,0.8,3,604,1,1,604,1,0,0.6,0.6,-0.0116272076381523,-0.0116272076381523,750,1,0,congruent,0.1,728.172128952577,680.933048394519
61,104,2,156,0.5,0.5,-0.5,4,4,0.8,4,349,1,1,349,1,0,0.8,NaN,-2.13576185675727,-2.13576185675727,750,1,0,congruent,1,971.800649390801,608.786091489973
61,104,2,157,0.5,-0.5,0,3,NaN,0.8,3,584,1,1,584,1,0,1.2,NaN,-0.178226003647495,-0.178226003647495,750,0,0,neutral,1,1782.1654392204,888.425919904584
61,104,2,158,-0.5,0.5,-0.5,4,4,0.8,4,453,1,1,453,1,0,1.6,0.8,-1.26944811750869,-1.26944811750869,750,1,0,congruent,0.1,921.096540989821,8821.92559344425
61,104,2,159,-0.5,0.5,0,3,NaN,1,3,492,1,1,492,1,0,1.4,0.8,-0.944580465290471,-0.944580465290471,750,0,0,neutral,0.1,1391.56910545488,3521.94345690871
61,104,2,160,-0.5,0.5,-0.5,4,4,1,4,557,1,1,557,1,0,1.4,0.8,-0.403134378260107,-0.403134378260107,750,1,0,congruent,0.1,1955.00249987786,1226.27845724676
61,104,2,162,0.5,0.5,0.5,2,3,1,4,518,0,1,NaN,0,0,1.4,NaN,-0.728002030478325,NaN,750,0,1,incongruent,0,926.760239956095,1097.08158453634
61,104,2,163,0.5,-0.5,-0.5,1,1,0.8,2,622,0,1,NaN,0,0,1,NaN,0.138311708770256,NaN,750,0,1,congruent,0,432.641366875358,1909.44317190593
61,104,2,166,-0.5,-0.5,0.5,4,3,0.8,3,623,0,1,NaN,1,0,0.6,0.2,0.146641648570723,NaN,750,1,0,incongruent,0.1,1095.50090799481,9164.15547308355
61,104,2,167,-0.5,-0.5,0,2,NaN,0.8,4,554,0,1,NaN,1,0,0.4,0.4,-0.428124197661509,NaN,750,0,1,neutral,0.1,3170.49155327124,2398.1292978785
61,104,2,168,-0.5,0.5,-0.5,3,3,0.8,3,562,1,1,562,1,0,0.6,1,-0.361484679257772,-0.361484679257772,750,1,0,congruent,0.1,2610.53560029329,753.81577254836
61,104,2,169,0.5,-0.5,0,4,NaN,0.8,4,490,1,1,490,1,0,0.8,NaN,-0.961240344891405,-0.961240344891405,750,0,0,neutral,1,3233.69351559877,2959.87539477932
61,104,2,170,0.5,0.5,0.5,3,2,0.8,3,607,1,1,607,1,0,1.2,NaN,0.013362611763249,0.013362611763249,750,0,0,incongruent,1,1646.35001273535,993.975645636181
61,104,2,171,0.5,0.5,0,4,NaN,0.8,4,656,1,1,656,1,0,1.4,NaN,0.421529661986138,0.421529661986138,750,0,0,neutral,1,1782.49994953943,1699.96442044716
61,104,2,172,-0.5,0.5,-0.5,1,1,0.8,1,582,1,1,582,1,0,1.6,1,-0.194885883248429,-0.194885883248429,750,1,0,congruent,0.1,3835.80449339976,878.910312407962
61,104,2,173,0.5,-0.5,-0.5,2,2,1,1,383,0,1,NaN,1,0,1.6,NaN,-1.85254390354139,NaN,750,0,1,congruent,1,3681.81934725913,736.745265571371
61,104,2,174,-0.5,0.5,0.5,3,4,1,3,660,1,1,660,1,0,1.8,1,0.454849421188007,0.454849421188007,750,0,0,incongruent,0.1,1827.47748280054,2590.45067819806
61,104,2,175,0.5,0.5,-0.5,2,2,1,2,576,1,1,576,1,0,1.6,NaN,-0.244865522051232,-0.244865522051232,750,1,0,congruent,1,1996.78262270836,3224.35564788288
61,104,2,176,-0.5,0.5,0,4,NaN,1,4,553,1,1,553,1,0,1.6,1,-0.436454137461976,-0.436454137461976,750,0,0,neutral,0.1,1011.84027049976,1258.57862924236
61,104,2,177,-0.5,-0.5,0.5,3,4,1,3,667,1,1,667,1,0,1.4,0.6,0.513158999791277,0.513158999791277,750,0,0,incongruent,0.1,2343.35234454899,1266.06167058108
61,104,2,178,0.5,-0.5,-0.5,2,2,1,2,855,1,0,855,1,0,1.4,NaN,2.0791876822791,2.0791876822791,750,1,0,congruent,1,1619.16196888204,1772.38678669974
61,104,2,179,-0.5,-0.5,0,4,NaN,1,4,554,1,1,554,1,0,1.4,0.6,-0.428124197661509,-0.428124197661509,750,0,0,neutral,0.1,3516.72187506003,2304.64827028367
61,104,2,180,-0.5,0.5,0.5,3,2,1,3,873,1,0,873,0,0,1.4,1,2.2291265986875,2.2291265986875,750,0,0,incongruent,0,3603.97772708171,3600.30946270971
61,104,2,181,0.5,-0.5,-0.5,1,1,0.8,2,631,0,1,NaN,0,0,1,NaN,0.21328116697446,NaN,750,0,1,congruent,0,501.90073800179,1702.37217259249
61,104,2,182,-0.5,-0.5,0.5,4,2,0.8,3,810,0,0,NaN,0,0,0.8,0.8,1.70434039125808,NaN,750,0,1,incongruent,0,1875.36660017335,2103.72931086957
61,104,2,183,-0.5,0.5,0.5,2,3,0.8,2,908,1,0,908,0,0,0.6,0.8,2.52067449170385,2.52067449170385,750,0,0,incongruent,0,4555.89796295267,3190.8274943926
61,104,2,184,0.5,-0.5,-0.5,1,1,0.6,1,610,1,1,610,0,0,0.2,NaN,0.0383524311646504,0.0383524311646504,750,1,0,congruent,0,2112.10544006906,2547.81734847567
61,104,2,185,0.5,-0.5,-0.5,3,3,0.6,4,549,0,1,NaN,1,0,0,NaN,-0.469773896663844,NaN,750,0,1,congruent,1,3022.10954660945,2664.79933792026
61,104,2,186,-0.5,0.5,0.5,1,2,0.6,1,692,1,1,692,1,0,0.4,0.6,0.721407494802955,0.721407494802955,750,0,0,incongruent,0.1,4649.98727706842,668.576507554595
61,104,2,187,0.5,0.5,0.5,2,4,0.6,2,522,1,1,522,1,0,0.6,NaN,-0.694682271276457,-0.694682271276457,750,0,0,incongruent,1,1644.54963230337,1072.35080726358
61,104,2,188,0.5,-0.5,-0.5,1,1,0.6,1,586,1,1,586,0,0,1,NaN,-0.161566124046561,-0.161566124046561,750,1,0,congruent,0,737.132546319769,2792.382167159
61,104,2,189,0.5,0.5,-0.5,4,4,0.6,4,593,1,1,593,1,0,1,NaN,-0.103256545443291,-0.103256545443291,750,1,0,congruent,1,1640.02411663247,862.840243641366
61,104,2,190,0.5,0.5,0,2,NaN,0.6,3,564,0,1,NaN,0,0,1.4,NaN,-0.344824799656837,NaN,750,0,1,neutral,0,2417.63908249908,2332.50612003811
61,104,2,191,-0.5,-0.5,-0.5,4,4,0.6,4,613,1,1,613,1,0,1,0.8,0.0633422505660518,0.0633422505660518,750,1,0,congruent,0.1,1101.34652936445,3691.52846642247
61,104,2,192,0.5,0.5,0,3,NaN,0.6,3,773,1,0,773,0,0,1,NaN,1.39613261864079,1.39613261864079,750,0,0,neutral,0,6578.7268190365,2224.4228341748
61,104,2,193,-0.5,-0.5,0.5,4,2,0.6,4,793,1,0,793,1,0,0.6,0.8,1.56273141465013,1.56273141465013,750,0,0,incongruent,0.1,2284.1037849324,2624.34891740298
61,104,2,194,0.5,-0.5,0,3,NaN,0.6,3,620,1,1,620,0,0,0.8,NaN,0.121651829169322,0.121651829169322,750,0,0,neutral,0,3435.86140371683,3861.38747201782
61,104,2,195,-0.5,-0.5,0.5,2,3,0.6,1,696,0,1,NaN,1,0,0.4,0.8,0.754727254004823,NaN,750,0,1,incongruent,0.1,4293.68220685028,1747.96849895274
61,104,2,196,0.5,0.5,0,3,NaN,0.6,3,586,1,1,586,1,0,0.6,NaN,-0.161566124046561,-0.161566124046561,750,0,0,neutral,1,2640.90594321103,522.323507234915
61,104,2,197,-0.5,-0.5,-0.5,2,2,0.6,1,807,0,0,NaN,0,0,0.8,0.8,1.67935057185667,NaN,750,0,1,congruent,0,2347.81039618172,2276.76142834768
61,104,2,198,0.5,0.5,0.5,4,3,0.6,2,751,0,0,NaN,0,0,0.8,NaN,1.21287394303052,NaN,750,0,1,incongruent,0,1223.18262230438,2511.17230421046
61,104,2,199,0.5,0.5,0,3,NaN,0.4,3,534,1,1,534,1,0,0.6,NaN,-0.594722993670851,-0.594722993670851,750,0,0,neutral,1,2965.03676530659,6516.37241954644
61,104,2,200,-0.5,-0.5,0.5,4,1,0.4,2,696,0,1,NaN,0,0,1,0.6,0.754727254004823,NaN,750,0,1,incongruent,0,1172.34754298495,1398.59255971865
61,104,2,201,0.5,-0.5,0.5,3,2,0.4,3,366,1,1,366,0,0,0.8,NaN,-1.99415288014933,-1.99415288014933,750,0,0,incongruent,0,2485.81660257325,742.337129096544
61,104,2,202,-0.5,-0.5,0,1,NaN,0.4,1,697,1,1,697,0,0,0.4,0.6,0.76305719380529,0.76305719380529,750,0,0,neutral,0,1899.63909703755,2579.66857082013
61,104,2,203,0.5,0.5,-0.5,2,2,0.4,2,515,1,1,515,1,0,0.4,NaN,-0.752991849879727,-0.752991849879727,750,1,0,congruent,1,1985.39857316652,1800.05787289058
61,104,2,205,0.5,-0.5,0,4,NaN,0.6,4,503,1,1,503,1,0,0.6,NaN,-0.852951127485332,-0.852951127485332,750,0,0,neutral,1,2137.60117430087,2060.30874248744
61,104,2,206,-0.5,-0.5,0.5,2,4,0.6,3,655,0,1,NaN,0,0,1,0.4,0.413199722185671,NaN,750,0,1,incongruent,0,2921.53787113653,6011.44409397913
61,104,2,207,-0.5,0.5,-0.5,3,3,0.6,3,599,1,1,599,1,0,1,0.6,-0.053276906640488,-0.053276906640488,750,1,0,congruent,0.1,982.542000811388,2545.85827247953
61,104,2,208,-0.5,0.5,0.5,1,2,0.8,1,789,1,0,789,0,0,1.2,0.6,1.52941165544827,1.52941165544827,750,0,0,incongruent,0,507.739184839537,1698.54727367303
61,104,2,209,0.5,0.5,-0.5,4,4,0.6,4,792,1,0,792,0,0,0.8,NaN,1.55440147484967,1.55440147484967,750,1,0,congruent,0,3757.28036311838,3405.27794243936
61,104,2,210,0.5,-0.5,0,2,NaN,0.6,3,551,0,1,NaN,1,0,0.6,NaN,-0.45311401706291,NaN,750,0,1,neutral,1,688.198830038124,1276.06554259678
61,104,2,211,0.5,0.5,0.5,1,3,0.6,1,839,1,0,839,0,0,0.6,NaN,1.94590864547162,1.94590864547162,750,0,0,incongruent,0,3151.28263356992,693.077803722614
61,104,2,212,0.5,0.5,-0.5,2,2,0.4,2,813,1,0,813,0,0,0.6,NaN,1.72933021065948,1.72933021065948,750,1,0,congruent,0,1279.25289097022,1264.20796940749
61,104,2,213,-0.5,0.5,0.5,1,4,0.2,1,830,1,0,830,0,0,0.4,0.4,1.87093918726742,1.87093918726742,750,0,0,incongruent,0,536.605699844708,5717.48851581643
61,104,2,214,-0.5,0.5,-0.5,3,3,0,3,381,1,1,381,1,0,0.4,0.4,-1.86920378314232,-1.86920378314232,750,1,0,congruent,0.1,528.126280684882,1621.92899924868
61,104,2,215,-0.5,0.5,0,2,NaN,0.2,4,657,0,1,NaN,0,0,0.6,0.6,0.429859601786605,NaN,750,0,1,neutral,0,2792.48604459324,1042.12741690447
61,104,2,216,0.5,-0.5,-0.5,1,1,0.2,1,685,1,1,685,0,0,0.2,NaN,0.663097916199685,0.663097916199685,750,1,0,congruent,0,452.921096959077,5611.55556171209
61,104,2,217,-0.5,-0.5,-0.5,3,3,0.2,3,521,1,1,521,0,0,0.2,0.2,-0.703012211076924,-0.703012211076924,750,1,0,congruent,0,1817.70282698067,957.372335236604
61,104,2,218,0.5,0.5,0.5,2,4,0.2,1,801,0,0,NaN,0,0,0.2,NaN,1.62937093305387,NaN,750,0,1,incongruent,0,2145.38105078554,2593.7526417931
61,104,2,219,-0.5,-0.5,0.5,1,2,0.2,1,590,1,1,590,0,0,0.2,0.2,-0.128246364844692,-0.128246364844692,750,0,0,incongruent,0,1567.02374310659,1526.97144080179
61,104,2,220,0.5,-0.5,0.5,2,3,0.2,2,958,1,0,958,1,0,0,NaN,2.93717148172721,2.93717148172721,750,0,0,incongruent,1,1174.06651420862,1601.10252216065
61,104,2,221,0.5,0.5,0.5,4,2,0.2,1,633,0,1,NaN,0,0,0.4,NaN,0.229941046575394,NaN,750,0,1,incongruent,0,3322.97753763128,795.790643607176
61,104,2,222,-0.5,-0.5,0.5,1,4,0.2,2,777,0,0,NaN,0,0,0.4,0.2,1.42945237784266,NaN,750,0,1,incongruent,0,2937.65449518309,3086.80085969034
61,104,2,223,-0.5,-0.5,-0.5,3,3,0.2,3,487,1,1,487,0,0,0.4,0.2,-0.986230164292806,-0.986230164292806,750,1,0,congruent,0,4049.73714846601,3175.81547207732
61,104,2,225,0.5,-0.5,0,1,NaN,0.2,1,838,1,0,838,1,0,0.4,NaN,1.93757870567116,1.93757870567116,750,0,0,neutral,1,1082.59992698274,3647.07167705282
61,104,2,227,0.5,0.5,-0.5,1,1,0,1,665,1,1,665,1,0,0.4,NaN,0.496499120190342,0.496499120190342,750,1,0,congruent,1,410.564544507572,819.027880408153
61,104,2,228,0.5,-0.5,0,2,NaN,0.2,4,512,0,1,NaN,1,0,0.8,NaN,-0.777981669281128,NaN,750,0,1,neutral,1,2714.59120750177,210.567137002521
61,104,2,229,-0.5,0.5,-0.5,4,4,0.2,4,902,1,0,902,0,0,1.2,0.2,2.47069485290105,2.47069485290105,750,1,0,congruent,0,1192.83410448075,1717.95681328483
61,104,2,231,0.5,-0.5,-0.5,4,4,0.2,4,617,1,1,617,1,0,1,NaN,0.0966620097679203,0.0966620097679203,750,1,0,congruent,1,5427.4514848026,4173.48602056194
61,104,2,232,-0.5,0.5,-0.5,3,3,0.2,3,361,1,1,361,1,0,1.4,0.2,-2.03580257915166,-2.03580257915166,750,1,0,congruent,0.1,3461.01018524544,737.658917481204
61,104,2,233,-0.5,0.5,-0.5,4,4,0.4,4,564,1,1,564,1,0,1.2,0.4,-0.344824799656837,-0.344824799656837,750,1,0,congruent,0.1,2603.69508043669,3381.83046622172
61,104,2,234,0.5,0.5,0,1,NaN,0.6,1,612,1,1,612,1,0,1,NaN,0.0550123107655847,0.0550123107655847,750,0,0,neutral,1,1954.21553198671,2979.57653212156
61,104,2,235,-0.5,0.5,-0.5,2,2,0.8,2,504,1,1,504,1,0,1.4,0.4,-0.844621187684865,-0.844621187684865,750,1,0,congruent,0.1,1088.24715991113,1356.00014238463
61,104,2,236,0.5,-0.5,0.5,4,1,0.8,1,616,0,1,NaN,0,0,1.4,NaN,0.0883320699674532,NaN,750,1,0,incongruent,0,4024.31685710205,1708.07332009779
61,104,2,237,0.5,0.5,0.5,1,2,0.8,2,644,0,1,NaN,0,0,1,NaN,0.321570384380533,NaN,750,1,0,incongruent,0,1285.53125507988,3101.67752008439
61,104,2,238,-0.5,0.5,0,2,NaN,0.8,2,863,1,0,863,0,0,0.8,0.6,2.14582720068283,2.14582720068283,750,0,0,neutral,0,1041.30466692265,416.538657477613
61,104,2,239,-0.5,0.5,-0.5,3,3,0.6,2,500,0,1,NaN,0,0,0.6,0.6,-0.877940946886734,NaN,750,0,1,congruent,0,875.946015048326,1468.0918302091
61,104,2,240,0.5,-0.5,-0.5,1,1,0.4,2,632,0,1,NaN,0,0,0.2,NaN,0.221611106774927,NaN,750,0,1,congruent,0,1293.14150893622,840.402388489226
61,104,2,241,0.5,0.5,0,2,NaN,0.4,2,693,1,1,693,1,0,0,NaN,0.729737434603422,0.729737434603422,750,0,0,neutral,1,1949.32036184268,1601.90325239159
61,104,2,242,-0.5,0.5,-0.5,3,3,0.4,3,521,1,1,521,1,0,0.4,0.6,-0.703012211076924,-0.703012211076924,750,1,0,congruent,0.1,3933.09574165604,1971.49389978761
61,104,2,243,-0.5,-0.5,-0.5,2,2,0.4,2,576,1,1,576,0,0,0.6,0.2,-0.244865522051232,-0.244865522051232,750,1,0,congruent,0,378.845742644228,803.63494182431
61,104,2,244,0.5,0.5,0,1,NaN,0.4,1,686,1,1,686,1,0,0.6,NaN,0.671427856000152,0.671427856000152,750,0,0,neutral,1,3191.88325206126,526.461150054948
61,104,2,245,0.5,0.5,-0.5,4,4,0.6,4,524,1,1,524,1,0,1,NaN,-0.678022391675522,-0.678022391675522,750,1,0,congruent,1,2998.93450552641,8151.91651460775
61,104,2,246,0.5,0.5,-0.5,2,2,0.8,2,692,1,1,692,1,0,1.4,NaN,0.721407494802955,0.721407494802955,750,1,0,congruent,1,1960.61294344626,3086.29799081401
61,104,2,247,0.5,-0.5,0.5,3,4,1,3,481,1,1,481,1,0,1.4,NaN,-1.03620980309561,-1.03620980309561,750,0,0,incongruent,1,2916.36702940807,615.962082716703
61,104,2,248,-0.5,0.5,0,2,NaN,1,3,577,0,1,NaN,0,0,1.6,0.6,-0.236535582250765,NaN,750,0,1,neutral,0,7817.03182139708,1272.90407641289
61,104,2,249,0.5,0.5,-0.5,3,3,0.8,3,383,1,1,383,1,0,1.6,NaN,-1.85254390354139,-1.85254390354139,750,1,0,congruent,1,1164.33766839136,686.76762198877
61,104,2,250,-0.5,0.5,-0.5,1,1,0.8,1,724,1,1,724,1,0,1.6,0.4,0.987965568417903,0.987965568417903,750,1,0,congruent,0.1,622.986079763623,2562.65603881953
61,104,2,251,-0.5,-0.5,0.5,2,4,0.8,2,459,1,1,459,1,0,1.4,0.2,-1.21946847870589,-1.21946847870589,750,0,0,incongruent,0.1,2676.58640373112,911.708037246708
61,104,2,252,-0.5,-0.5,0,4,NaN,0.8,4,559,1,1,559,0,0,1.2,0.4,-0.386474498659173,-0.386474498659173,750,0,0,neutral,0,1029.92417507641,923.155227405083
61,104,2,253,0.5,0.5,-0.5,3,3,0.8,3,565,1,1,565,1,0,0.8,NaN,-0.33649485985637,-0.33649485985637,750,1,0,congruent,1,2179.95394624559,1078.02689410504
61,104,2,254,-0.5,0.5,-0.5,4,4,0.8,4,553,1,1,553,1,0,1.2,0.4,-0.436454137461976,-0.436454137461976,750,1,0,congruent,0.1,542.092123691768,4197.44386816057
61,104,2,255,-0.5,0.5,0.5,1,2,0.8,2,504,0,1,NaN,0,0,1,0.6,-0.844621187684865,NaN,750,1,0,incongruent,0,3310.32533347159,2152.91402023051
61,104,2,256,0.5,0.5,0,3,NaN,0.8,3,494,1,1,494,1,0,0.8,NaN,-0.927920585689536,-0.927920585689536,750,0,0,neutral,1,4124.92607255323,899.428235158349
61,104,2,257,0.5,0.5,0.5,2,1,0.8,1,716,0,1,NaN,0,0,1,NaN,0.921326050014166,NaN,750,1,0,incongruent,0,1174.69625435363,3114.15113009568
61,104,2,258,0.5,-0.5,0,4,NaN,0.6,4,556,1,1,556,1,0,1,NaN,-0.411464318060574,-0.411464318060574,750,0,0,neutral,1,1904.54966937388,1234.73752622707
61,104,2,259,-0.5,-0.5,-0.5,3,3,0.6,3,487,1,1,487,0,0,1,0.4,-0.986230164292806,-0.986230164292806,750,1,0,congruent,0,2138.35658257548,1986.77193014148
61,104,2,260,-0.5,0.5,0.5,1,4,0.6,2,556,0,1,NaN,0,0,0.8,0.6,-0.411464318060574,NaN,750,0,1,incongruent,0,1086.74063458789,5218.2535892662
61,104,2,261,0.5,-0.5,0.5,4,1,0.4,4,757,1,0,757,0,0,0.8,NaN,1.26285358183332,1.26285358183332,750,0,0,incongruent,0,2293.75793151811,802.493292719059
61,104,2,262,-0.5,0.5,0,2,NaN,0.4,3,445,0,1,NaN,0,0,0.4,0.4,-1.33608763591243,NaN,750,0,1,neutral,0,1660.49814413407,1892.32844961691
61,104,2,263,-0.5,0.5,-0.5,1,1,0.2,1,586,1,1,586,1,0,0.4,0.4,-0.161566124046561,-0.161566124046561,750,1,0,congruent,0.1,1353.43700212467,653.350919531865
61,104,2,264,-0.5,0.5,0,2,NaN,0.4,3,552,0,1,NaN,0,0,0.2,0.4,-0.444784077262443,NaN,750,0,1,neutral,0,3327.10536656138,2345.58024264993
61,104,2,265,0.5,-0.5,-0.5,1,1,0.2,1,566,1,1,566,0,0,0.2,NaN,-0.328164920055903,-0.328164920055903,750,1,0,congruent,0,2068.08124305109,1572.02552006904
61,104,2,266,-0.5,-0.5,0,2,NaN,0.2,2,502,1,1,502,1,0,0.2,0.4,-0.861281067285799,-0.861281067285799,750,0,0,neutral,0.1,2555.25582378317,2408.06881499381
61,104,2,267,0.5,-0.5,-0.5,1,1,0.2,1,623,1,1,623,0,0,0.4,NaN,0.146641648570723,0.146641648570723,750,1,0,congruent,0,3290.4915238584,716.667440266854
61,104,2,268,0.5,-0.5,0.5,3,2,0.2,3,599,1,1,599,0,0,0.4,NaN,-0.053276906640488,-0.053276906640488,750,0,0,incongruent,0,1332.44071783612,2227.57035487069
61,104,2,269,0.5,-0.5,0,4,NaN,0.2,4,580,1,1,580,0,0,0.2,NaN,-0.211545762849363,-0.211545762849363,750,0,0,neutral,0,3316.068459847,951.967420925776
61,104,2,270,-0.5,-0.5,0.5,3,4,0.2,3,481,1,1,481,1,0,0.2,0.4,-1.03620980309561,-1.03620980309561,750,0,0,incongruent,0.1,713.996861976916,2020.38291944232
61,104,2,271,0.5,-0.5,0,4,NaN,0.2,4,478,1,1,478,0,0,0.4,NaN,-1.06119962249701,-1.06119962249701,750,0,0,neutral,0,1013.09348663974,1261.75093734486
61,104,2,272,-0.5,-0.5,0.5,1,3,0.2,1,597,1,1,597,0,0,0.2,0.6,-0.0699367862414222,-0.0699367862414222,750,0,0,incongruent,0,1536.35344911105,2659.28530892439
61,104,2,273,-0.5,0.5,0.5,4,1,0.2,2,853,0,0,NaN,0,0,0.2,0.2,2.06252780267816,NaN,750,0,1,incongruent,0,4156.44318649065,4884.4566350384
61,104,2,274,0.5,0.5,0,2,NaN,0.2,3,573,0,1,NaN,0,0,0.2,NaN,-0.269855341452633,NaN,750,0,1,neutral,0,1059.21667140047,1006.99517539904
61,104,2,275,0.5,0.5,-0.5,3,3,0.2,3,517,1,1,517,1,0,0.2,NaN,-0.736331970278792,-0.736331970278792,750,1,0,congruent,1,3103.86063160217,1276.37641372506
61,104,2,276,0.5,0.5,-0.5,2,2,0.4,2,638,1,1,638,1,0,0.4,NaN,0.27159074557773,0.27159074557773,750,1,0,congruent,1,2908.58176770876,1973.20650839009
61,104,2,277,0.5,0.5,-0.5,3,3,0.4,3,505,1,1,505,1,0,0.8,NaN,-0.836291247884398,-0.836291247884398,750,1,0,congruent,1,2725.0896231374,4819.71823886104
61,104,2,278,0.5,-0.5,0,1,NaN,0.6,2,547,0,1,NaN,1,0,1.2,NaN,-0.486433776264779,NaN,750,0,1,neutral,1,661.972476318879,937.320860054006
61,104,2,279,-0.5,0.5,-0.5,4,4,0.6,4,541,1,1,541,1,0,1.6,0.2,-0.536413415067581,-0.536413415067581,750,1,0,congruent,0.1,1091.9868649457,1034.110790806
61,104,2,280,-0.5,0.5,0.5,1,3,0.8,1,566,1,1,566,1,0,1.8,0.4,-0.328164920055903,-0.328164920055903,750,0,0,incongruent,0.1,500.509048543718,2301.31886414839
61,104,2,281,0.5,0.5,0,4,NaN,1,4,568,1,1,568,1,0,1.6,NaN,-0.311505040454969,-0.311505040454969,750,0,0,neutral,1,4185.53787694432,1481.24292346798
61,104,2,282,-0.5,0.5,-0.5,2,2,1,1,600,0,1,NaN,0,0,1.6,0.6,-0.0449469668400209,NaN,750,0,1,congruent,0,2670.82354562671,2678.73753703003
61,104,2,283,-0.5,0.5,0.5,1,3,0.8,1,822,1,0,822,0,0,1.2,0.4,1.80429966886368,1.80429966886368,750,0,0,incongruent,0,3553.71950688796,4157.93883742831
61,104,2,284,0.5,0.5,0,2,NaN,0.6,2,606,1,1,606,1,0,0.8,NaN,0.00503267196278191,0.00503267196278191,750,0,0,neutral,1,3012.82163857476,2308.95920826934
61,104,2,285,0.5,-0.5,-0.5,1,1,0.6,1,535,1,1,535,1,0,1,NaN,-0.586393053870384,-0.586393053870384,750,1,0,congruent,1,1811.27140427902,1862.55980096105
61,104,2,286,-0.5,0.5,-0.5,4,4,0.6,1,705,0,1,NaN,0,0,1.2,0.4,0.829696712209028,NaN,750,0,1,congruent,0,4345.87528157148,1111.39718283855
61,104,2,287,-0.5,0.5,-0.5,3,3,0.4,3,561,1,1,561,1,0,0.8,0.4,-0.369814619058239,-0.369814619058239,750,1,0,congruent,0.1,2401.83901649152,3498.92885784188
61,104,2,288,-0.5,-0.5,0.5,1,2,0.4,2,766,0,0,NaN,0,0,1,0.4,1.33782304003752,NaN,750,1,0,incongruent,0,984.119834350609,4772.93761887872
61,104,2,289,0.5,0.5,0,4,NaN,0.4,4,515,1,1,515,1,0,1,NaN,-0.752991849879727,-0.752991849879727,750,0,0,neutral,1,2260.3390273588,1462.16049769476
61,104,2,290,-0.5,-0.5,-0.5,3,3,0.6,2,575,0,1,NaN,0,0,1,0.4,-0.253195461851699,NaN,750,0,1,congruent,0,1224.16018343403,1616.88517176218
61,104,2,291,0.5,-0.5,0.5,4,1,0.6,4,655,1,1,655,1,0,0.6,NaN,0.413199722185671,0.413199722185671,750,0,0,incongruent,1,671.283702980304,1325.38751408741
61,104,2,292,-0.5,0.5,0.5,1,2,0.6,2,769,0,0,NaN,0,0,1,0.4,1.36281285943892,NaN,750,1,0,incongruent,0,884.731722600659,1641.09841988032
61,104,2,294,0.5,0.5,-0.5,3,3,0.6,3,477,1,1,477,1,0,1,NaN,-1.06952956229748,-1.06952956229748,750,1,0,congruent,1,2185.0064140358,902.880557119784
61,104,2,295,-0.5,-0.5,0,4,NaN,0.8,4,575,1,1,575,0,0,1,0.4,-0.253195461851699,-0.253195461851699,750,0,0,neutral,0,764.103366032512,528.298168533478
61,104,2,296,-0.5,-0.5,-0.5,3,3,0.8,3,431,1,1,431,1,0,1,0.2,-1.45270679311897,-1.45270679311897,750,1,0,congruent,0.1,926.316415360384,8265.23635725651
61,104,2,297,-0.5,-0.5,0,4,NaN,0.8,4,467,1,1,467,0,0,0.8,0.2,-1.15282896030215,-1.15282896030215,750,0,0,neutral,0,1787.74116786554,331.690089480024
61,104,2,298,-0.5,-0.5,-0.5,1,1,0.8,1,666,1,1,666,1,0,0.8,0.2,0.50482905999081,0.50482905999081,750,1,0,congruent,0.1,3704.02819023352,2089.27750147574
61,104,2,299,0.5,-0.5,-0.5,3,3,0.8,3,420,1,1,420,0,0,0.8,NaN,-1.5443361309241,-1.5443361309241,750,1,0,congruent,0,921.806369175723,1172.82476630822
61,104,2,300,-0.5,-0.5,-0.5,1,1,0.8,2,579,0,1,NaN,0,0,0.4,0.4,-0.219875702649831,NaN,750,0,1,congruent,0,2522.56305518859,1876.2474333237
61,104,3,301,0.5,0.5,-0.5,2,2,0.8,2,892,1,0,892,0,0,0.4,NaN,2.38739545489638,2.38739545489638,750,1,0,congruent,0,2795.89599005333,1061.62060030395
61,104,3,302,-0.5,0.5,0.5,3,4,0.6,4,492,0,1,NaN,0,0,0.2,0.4,-0.944580465290471,NaN,750,1,0,incongruent,0,5274.58024546492,896.37851999932
61,104,3,303,0.5,0.5,0,4,NaN,0.4,4,427,1,1,427,1,0,0.2,NaN,-1.48602655232083,-1.48602655232083,750,0,0,neutral,1,1803.06663079882,2756.07753401553
61,104,3,304,-0.5,0.5,-0.5,2,2,0.6,2,730,1,1,730,1,0,0.4,0.4,1.03794520722071,1.03794520722071,750,1,0,congruent,0.1,1164.31295704732,1769.30801786003
61,104,3,306,0.5,-0.5,0.5,2,3,0.6,3,529,0,1,NaN,1,0,1,NaN,-0.636372692673187,NaN,750,1,0,incongruent,1,1052.530968977,3511.1742509561
61,104,3,307,-0.5,-0.5,0.5,4,1,0.6,1,784,0,0,NaN,0,0,1.4,0.4,1.48776195644593,NaN,750,1,0,incongruent,0,3015.09239235172,651.865392774693
61,104,3,309,0.5,0.5,-0.5,3,3,0.6,3,398,1,1,398,1,0,1,NaN,-1.72759480653438,-1.72759480653438,750,1,0,congruent,1,1153.23467270831,1452.68501254019
61,104,3,310,0.5,-0.5,0,2,NaN,0.8,4,500,0,1,NaN,1,0,1.2,NaN,-0.877940946886734,NaN,750,0,1,neutral,1,1288.40488478085,640.924780145372
61,104,3,311,-0.5,0.5,0.5,3,2,0.8,3,487,1,1,487,1,0,1.2,0.4,-0.986230164292806,-0.986230164292806,750,0,0,incongruent,0.1,1931.71240379879,1893.30204427953
61,104,3,312,-0.5,-0.5,-0.5,1,1,0.8,1,583,1,1,583,1,0,1,0.4,-0.186555943447962,-0.186555943447962,750,1,0,congruent,0.1,981.704756043418,821.058877582191
61,104,3,313,0.5,0.5,0.5,3,2,0.8,3,563,1,1,563,1,0,1.2,NaN,-0.353154739457305,-0.353154739457305,750,0,0,incongruent,1,2626.4319857579,521.136134927813
61,104,3,314,-0.5,0.5,0,1,NaN,0.8,4,545,0,1,NaN,0,0,1.6,0.6,-0.503093655865713,NaN,750,0,1,neutral,0,9269.32559076172,1400.67649483356
61,104,3,315,-0.5,-0.5,-0.5,4,4,0.6,4,516,1,1,516,1,0,1.2,0.4,-0.74466191007926,-0.74466191007926,750,1,0,congruent,0.1,1458.45556807371,1705.39701130806
61,104,3,316,0.5,-0.5,-0.5,1,1,0.6,1,555,1,1,555,1,0,1,NaN,-0.419794257861042,-0.419794257861042,750,1,0,congruent,1,1019.97949271606,3644.98251086392
61,104,3,317,-0.5,0.5,-0.5,3,3,0.6,3,561,1,1,561,1,0,1.2,0.4,-0.369814619058239,-0.369814619058239,750,1,0,congruent,0.1,2833.37005777938,3371.03202031664
61,104,3,318,0.5,-0.5,0,1,NaN,0.8,1,644,1,1,644,1,0,1.2,NaN,0.321570384380533,0.321570384380533,750,0,0,neutral,1,897.608017076154,1605.62397303567
61,104,3,319,-0.5,-0.5,-0.5,3,3,0.8,3,470,1,1,470,1,0,1.2,0.6,-1.12783914090075,-1.12783914090075,750,1,0,congruent,0.1,880.983464716616,947.329516761505
61,104,3,320,0.5,0.5,0.5,1,4,0.8,1,791,1,0,791,0,0,1.4,NaN,1.5460715350492,1.5460715350492,750,0,0,incongruent,0,1101.85860877934,507.826730928533
61,104,3,321,-0.5,-0.5,0.5,3,1,0.6,4,427,0,1,NaN,1,0,1.2,0.6,-1.48602655232083,NaN,750,0,1,incongruent,0.1,686.365151796335,1746.99422557124
61,104,3,322,0.5,-0.5,-0.5,2,2,0.6,2,529,1,1,529,0,0,1,NaN,-0.636372692673187,-0.636372692673187,750,1,0,congruent,0,4152.62923537318,1373.69155724994
61,104,3,323,-0.5,0.5,-0.5,3,3,0.6,3,555,1,1,555,1,0,0.8,0.6,-0.419794257861042,-0.419794257861042,750,1,0,congruent,0.1,1300.93903023071,1550.72702266256
61,104,3,324,-0.5,0.5,0.5,1,4,0.6,1,690,1,1,690,1,0,0.6,0.6,0.704747615202021,0.704747615202021,750,0,0,incongruent,0.1,3030.5684696706,1253.35164506205
61,104,3,325,0.5,0.5,0,4,NaN,0.6,4,537,1,1,537,1,0,0.6,NaN,-0.56973317426945,-0.56973317426945,750,0,0,neutral,1,1565.23244240473,1111.89164224954
61,104,3,326,-0.5,0.5,-0.5,2,2,0.8,1,713,0,1,NaN,0,0,1,0.8,0.896336230612764,NaN,750,0,1,congruent,0,1710.63370540424,3062.74462453684
61,104,3,327,-0.5,-0.5,-0.5,4,4,0.6,4,573,1,1,573,1,0,0.8,0.8,-0.269855341452633,-0.269855341452633,750,1,0,congruent,0.1,2899.73339632426,3166.00233703309
61,104,3,328,0.5,-0.5,0.5,1,3,0.6,3,564,0,1,NaN,1,0,1,NaN,-0.344824799656837,NaN,750,1,0,incongruent,1,3686.53194706663,3064.83302032979
61,104,3,329,-0.5,-0.5,0.5,3,4,0.6,3,565,1,1,565,1,0,1.2,1,-0.33649485985637,-0.33649485985637,750,0,0,incongruent,0.1,2158.33718358167,725.412164137077
61,104,3,330,-0.5,-0.5,0,4,NaN,0.6,4,519,1,1,519,1,0,1.2,1,-0.719672090677858,-0.719672090677858,750,0,0,neutral,0.1,1493.01753194352,2926.80158015037
61,104,3,331,0.5,0.5,-0.5,2,2,0.6,2,577,1,1,577,1,0,1,NaN,-0.236535582250765,-0.236535582250765,750,1,0,congruent,1,4892.61110746615,1727.79331604056
61,104,3,332,0.5,-0.5,0,4,NaN,0.8,4,627,1,1,627,1,0,1.4,NaN,0.179961407772592,0.179961407772592,750,0,0,neutral,1,1468.74629928291,1464.73742829197
61,104,3,333,0.5,0.5,-0.5,1,1,0.8,1,566,1,1,566,1,0,1.6,NaN,-0.328164920055903,-0.328164920055903,750,1,0,congruent,1,6587.66284750051,2146.52027245049
61,104,3,334,-0.5,-0.5,0,2,NaN,0.8,2,741,1,1,741,1,0,1.6,1,1.12957454502584,1.12957454502584,750,0,0,neutral,0.1,5245.77662165002,3293.33199862289
61,104,3,336,-0.5,0.5,-0.5,2,2,0.6,2,667,1,1,667,1,0,1.4,0.6,0.513158999791277,0.513158999791277,750,1,0,congruent,0.1,2316.06325976746,1795.13532910201
61,104,3,337,0.5,-0.5,0.5,1,4,0.6,2,812,0,0,NaN,1,0,1.2,NaN,1.72100027085901,NaN,750,0,1,incongruent,1,711.843350200307,2575.62685931062
61,104,3,338,0.5,-0.5,-0.5,2,2,0.6,2,619,1,1,619,1,0,1.2,NaN,0.113321889368855,0.113321889368855,750,1,0,congruent,1,3248.88933678408,7840.6298017971
61,104,3,339,-0.5,-0.5,-0.5,3,3,0.6,3,551,1,1,551,0,0,1.2,1,-0.45311401706291,-0.45311401706291,750,1,0,congruent,0,1044.59697085761,1115.4009124703
61,104,3,340,0.5,-0.5,0.5,2,4,0.6,4,592,0,1,NaN,0,0,1,NaN,-0.111586485243758,NaN,750,1,0,incongruent,0,3436.41654859435,2022.28792339187
61,104,3,342,0.5,-0.5,-0.5,2,2,0.8,2,534,1,1,534,1,0,1.2,NaN,-0.594722993670851,-0.594722993670851,750,1,0,congruent,1,2427.01125315634,1344.83838994527
61,104,3,343,0.5,0.5,-0.5,1,1,0.8,1,406,1,1,406,1,0,1.2,NaN,-1.66095528813064,-1.66095528813064,750,1,0,congruent,1,2068.76587694353,1083.02558324564
61,104,3,345,-0.5,-0.5,0.5,4,2,0.8,1,718,0,1,NaN,1,0,1.6,0.8,0.9379859296151,NaN,750,0,1,incongruent,0.1,5386.30502072438,3372.87636893945
61,104,3,346,0.5,-0.5,-0.5,1,1,0.8,1,556,1,1,556,1,0,1.8,NaN,-0.411464318060574,-0.411464318060574,750,1,0,congruent,1,2351.69000947563,2337.37079192475
61,104,3,349,-0.5,-0.5,-0.5,1,1,0.8,1,557,1,1,557,1,0,1.4,0.8,-0.403134378260107,-0.403134378260107,750,1,0,congruent,0.1,1090.16309160601,505.162561208639
61,104,3,350,0.5,-0.5,-0.5,4,4,0.8,4,499,1,1,499,1,0,1.2,NaN,-0.886270886687201,-0.886270886687201,750,1,0,congruent,1,3145.25518808376,2989.87248222496
61,104,3,351,0.5,0.5,0.5,2,3,0.8,3,552,0,1,NaN,0,0,1.4,NaN,-0.444784077262443,NaN,750,1,0,incongruent,0,1878.4514945714,1738.98381698517
61,104,3,352,0.5,0.5,0.5,1,4,0.6,1,898,1,0,898,0,0,1,NaN,2.43737509369918,2.43737509369918,750,0,0,incongruent,0,967.590783566582,980.06254600847
61,104,3,354,-0.5,-0.5,0.5,4,2,0.4,4,763,1,0,763,1,0,1,0.8,1.31283322063612,1.31283322063612,750,0,0,incongruent,0.1,800.673332298965,5292.66661304528
61,104,3,355,0.5,-0.5,-0.5,3,3,0.4,3,391,1,1,391,1,0,1,NaN,-1.78590438513765,-1.78590438513765,750,1,0,congruent,1,1058.04509002284,1522.34300462797
61,104,3,356,0.5,-0.5,-0.5,2,2,0.4,4,652,0,1,NaN,0,0,1,NaN,0.38820990278427,NaN,750,0,1,congruent,0,472.561465897461,2371.45766168302
61,104,3,357,-0.5,0.5,0.5,3,4,0.4,3,579,1,1,579,1,0,1,0.6,-0.219875702649831,-0.219875702649831,750,0,0,incongruent,0.1,1215.62923486065,852.975644916878
61,104,3,358,0.5,0.5,-0.5,1,1,0.4,1,489,1,1,489,1,0,1.2,NaN,-0.969570284691872,-0.969570284691872,750,1,0,congruent,1,3888.70209472272,804.69842660276
61,104,3,359,-0.5,-0.5,0,2,NaN,0.4,3,466,0,1,NaN,0,0,1.2,0.8,-1.16115890010262,NaN,750,0,1,neutral,0,3253.02725034127,1505.98770608234
61,104,3,361,-0.5,0.5,-0.5,3,3,0.4,3,529,1,1,529,1,0,0.6,0.6,-0.636372692673187,-0.636372692673187,750,1,0,congruent,0.1,3099.96555065008,3585.92830708399
61,104,3,362,0.5,0.5,0.5,2,1,0.6,1,548,0,1,NaN,0,0,0.8,NaN,-0.478103836464311,NaN,750,1,0,incongruent,0,1135.62373739185,1935.45194773595
61,104,3,363,0.5,0.5,0.5,3,2,0.6,3,507,1,1,507,1,0,0.6,NaN,-0.819631368283464,-0.819631368283464,750,0,0,incongruent,1,653.25917820106,885.680100856929
61,104,3,364,0.5,0.5,0,4,NaN,0.8,4,559,1,1,559,1,0,0.6,NaN,-0.386474498659173,-0.386474498659173,750,0,0,neutral,1,1221.15755581001,1584.65436941642
61,104,3,365,0.5,-0.5,-0.5,2,2,0.8,2,736,1,1,736,1,0,1,NaN,1.08792484602351,1.08792484602351,750,1,0,congruent,1,1370.8359424524,2503.53412178636
61,104,3,366,0.5,-0.5,0,4,NaN,0.8,4,493,1,1,493,0,0,1.4,NaN,-0.936250525490003,-0.936250525490003,750,0,0,neutral,0,2167.96796840514,2073.30465738377
61,104,3,367,-0.5,0.5,0.5,2,3,0.8,3,512,0,1,NaN,0,0,1.2,0.6,-0.777981669281128,NaN,750,1,0,incongruent,0,1052.81476434273,4445.03797178199
61,104,3,368,0.5,-0.5,0,4,NaN,0.6,4,534,1,1,534,0,0,1.2,NaN,-0.594722993670851,-0.594722993670851,750,0,0,neutral,0,3358.01317466922,1330.24210153391
61,104,3,369,0.5,-0.5,-0.5,3,3,0.6,3,522,1,1,522,1,0,0.8,NaN,-0.694682271276457,-0.694682271276457,750,1,0,congruent,1,1440.79315250048,3018.65769142853
61,104,3,370,-0.5,0.5,0.5,2,4,0.6,1,601,0,1,NaN,0,0,0.8,0.6,-0.0366170270395537,NaN,750,0,1,incongruent,0,1264.9398128444,1062.11938244612
61,104,3,371,0.5,-0.5,0,4,NaN,0.4,4,560,1,1,560,0,0,0.4,NaN,-0.378144558858706,-0.378144558858706,750,0,0,neutral,0,1807.85892221231,747.52798043064
61,104,3,372,-0.5,-0.5,0.5,2,1,0.4,2,710,1,1,710,0,0,0.4,0.6,0.871346411211363,0.871346411211363,750,0,0,incongruent,0,3740.01562056791,3110.58208419789
61,104,3,373,-0.5,0.5,-0.5,4,4,0.4,4,598,1,1,598,1,0,0.4,0.4,-0.0616068464409551,-0.0616068464409551,750,1,0,congruent,0.1,3285.55549075006,2158.3918315855
61,104,3,374,-0.5,-0.5,0.5,2,1,0.6,1,660,0,1,NaN,1,0,0.6,0.4,0.454849421188007,NaN,750,1,0,incongruent,0.1,4865.64818841138,2732.08216223911
61,104,3,375,0.5,0.5,-0.5,4,4,0.6,4,407,1,1,407,1,0,0.4,NaN,-1.65262534833018,-1.65262534833018,750,1,0,congruent,1,2592.03543503348,2106.20419123365
61,104,3,376,-0.5,-0.5,-0.5,3,3,0.6,3,519,1,1,519,1,0,0.8,0.4,-0.719672090677858,-0.719672090677858,750,1,0,congruent,0.1,969.657921989582,939.136600311343
61,104,3,377,0.5,0.5,0.5,1,2,0.6,1,742,1,1,742,1,0,1,NaN,1.13790448482631,1.13790448482631,750,0,0,incongruent,1,5060.39872599848,2851.93746238531
61,104,3,378,0.5,0.5,0.5,2,3,0.6,3,531,0,1,NaN,0,0,1.4,NaN,-0.619712813072253,NaN,750,1,0,incongruent,0,1168.55142696981,1972.10851220419
61,104,3,379,0.5,-0.5,0.5,3,4,0.6,4,514,0,1,NaN,1,0,1.2,NaN,-0.761321789680194,NaN,750,1,0,incongruent,1,3175.64104324415,1901.85314300072
61,104,3,381,0.5,0.5,0.5,3,2,0.8,3,440,1,1,440,1,0,1.4,NaN,-1.37773733491476,-1.37773733491476,750,0,0,incongruent,1,2622.19322422907,1211.36774742013
61,104,3,382,-0.5,-0.5,0,1,NaN,0.8,4,559,0,1,NaN,1,0,1.6,0.4,-0.386474498659173,NaN,750,0,1,neutral,0.1,1655.59476403078,3907.2340008958
61,104,3,383,0.5,-0.5,-0.5,4,4,0.8,4,537,1,1,537,0,0,1.4,NaN,-0.56973317426945,-0.56973317426945,750,1,0,congruent,0,2592.40312014008,2581.64450576475
61,104,3,384,0.5,-0.5,0,3,NaN,0.8,3,671,1,1,671,1,0,1.4,NaN,0.546478758993145,0.546478758993145,750,0,0,neutral,1,4670.93364422116,888.750525529081
61,104,3,385,0.5,0.5,0.5,2,3,0.8,2,510,1,1,510,1,0,1.4,NaN,-0.794641548882062,-0.794641548882062,750,0,0,incongruent,1,1810.64309373008,1867.06307699563
61,104,3,386,0.5,-0.5,-0.5,1,1,0.8,1,631,1,1,631,1,0,1.4,NaN,0.21328116697446,0.21328116697446,750,1,0,congruent,1,6209.02650159715,2031.50682312129
61,104,3,387,0.5,0.5,0.5,4,3,0.8,3,464,0,1,NaN,0,0,1.4,NaN,-1.17781877970355,NaN,750,1,0,incongruent,0,1663.01381530138,1893.65626259797
61,104,3,388,0.5,-0.5,-0.5,1,1,0.6,1,566,1,1,566,1,0,1.2,NaN,-0.328164920055903,-0.328164920055903,750,1,0,congruent,1,2464.64262107252,2285.5263872702
61,104,3,389,0.5,0.5,-0.5,4,4,0.6,4,482,1,1,482,1,0,1.6,NaN,-1.02787986329514,-1.02787986329514,750,1,0,congruent,1,2478.52938050183,4029.33749584118
61,104,3,390,-0.5,0.5,-0.5,2,2,0.8,4,687,0,1,NaN,0,0,1.6,0.6,0.679757795800619,NaN,750,0,1,congruent,0,1591.21851531836,372.370669202418
61,104,3,391,-0.5,0.5,0.5,1,4,0.6,1,511,1,1,511,1,0,1.2,0.4,-0.786311609081595,-0.786311609081595,750,0,0,incongruent,0.1,997.172414269331,1037.66943411368
61,104,3,392,-0.5,0.5,0.5,4,3,0.6,1,663,0,1,NaN,0,0,1,0.4,0.479839240589408,NaN,750,0,1,incongruent,0,1894.02263032478,2146.03667534491
61,104,3,393,0.5,-0.5,-0.5,1,1,0.4,1,438,1,1,438,0,0,1,NaN,-1.3943972145157,-1.3943972145157,750,1,0,congruent,0,3185.2466776016,1185.98274584488
61,104,3,394,-0.5,0.5,-0.5,4,4,0.4,4,585,1,1,585,1,0,0.6,0.4,-0.169896063847028,-0.169896063847028,750,1,0,congruent,0.1,2940.08353285475,1578.16219668876
61,104,3,395,-0.5,-0.5,0,1,NaN,0.6,1,724,1,1,724,1,0,0.4,0.6,0.987965568417903,0.987965568417903,750,0,0,neutral,0.1,963.184038391938,1150.75909368972
61,104,3,396,0.5,-0.5,-0.5,3,3,0.6,3,488,1,1,488,1,0,0.6,NaN,-0.977900224492339,-0.977900224492339,750,1,0,congruent,1,6741.42523938435,1616.90167750488
61,104,3,397,0.5,-0.5,-0.5,1,1,0.6,1,440,1,1,440,0,0,0.8,NaN,-1.37773733491476,-1.37773733491476,750,1,0,congruent,0,3696.94363541845,1696.1189926377
61,104,3,398,-0.5,0.5,0.5,4,2,0.6,4,563,1,1,563,1,0,0.8,0.6,-0.353154739457305,-0.353154739457305,750,0,0,incongruent,0.1,1997.08002759535,1415.0531517434
61,104,3,399,-0.5,0.5,0,1,NaN,0.6,1,569,1,1,569,1,0,1,0.6,-0.303175100654502,-0.303175100654502,750,0,0,neutral,0.1,1996.90653118884,1071.55273137988
61,104,3,400,0.5,-0.5,-0.5,2,2,0.8,4,591,0,1,NaN,1,0,1,NaN,-0.119916425044225,NaN,750,0,1,congruent,1,291.077769096355,928.765936064668
61,104,3,401,-0.5,0.5,0,3,NaN,0.8,3,612,1,1,612,1,0,1.2,0.8,0.0550123107655847,0.0550123107655847,750,0,0,neutral,0.1,3466.36903041853,1511.83919379532
61,104,3,402,-0.5,-0.5,0.5,4,2,0.8,1,883,0,0,NaN,1,0,1,0.8,2.31242599669218,NaN,750,0,1,incongruent,0.1,1465.62907680409,2359.83747733296
61,104,3,403,-0.5,-0.5,-0.5,3,3,0.8,3,474,1,1,474,1,0,1.2,1,-1.09451938169888,-1.09451938169888,750,1,0,congruent,0.1,3493.57396980372,2023.57783479886
61,104,3,404,-0.5,-0.5,0.5,4,2,0.8,4,782,1,0,782,0,0,1.2,1,1.471102076845,1.471102076845,750,0,0,incongruent,0,2247.57954176318,1077.65128001316
61,104,3,405,-0.5,-0.5,0.5,2,4,0.8,1,710,0,1,NaN,1,0,1,0.8,0.871346411211363,NaN,750,0,1,incongruent,0.1,3516.11519336151,1217.43843838443
61,104,3,406,-0.5,-0.5,0,4,NaN,0.8,3,563,0,1,NaN,0,0,0.8,0.8,-0.353154739457305,NaN,750,0,1,neutral,0,2370.71318265166,355.773035509859
61,104,3,407,-0.5,0.5,-0.5,2,2,0.8,2,857,1,0,857,0,0,0.6,0.8,2.09584756188003,2.09584756188003,750,1,0,congruent,0,2063.70272663122,1035.56400601798
61,104,3,409,0.5,-0.5,-0.5,4,4,0.8,4,567,1,1,567,1,0,0.4,NaN,-0.319834980255436,-0.319834980255436,750,1,0,congruent,1,1844.08364051646,2241.36743722316
61,104,3,410,-0.5,-0.5,-0.5,3,3,0.8,3,519,1,1,519,0,0,0.8,0.6,-0.719672090677858,-0.719672090677858,750,1,0,congruent,0,1792.60443957825,1837.54424273823
61,104,3,411,-0.5,-0.5,0.5,4,2,0.8,2,606,0,1,NaN,0,0,0.6,0.4,0.00503267196278191,NaN,750,1,0,incongruent,0,994.47240106441,1120.79885243213
61,104,3,412,0.5,0.5,0,2,NaN,0.8,4,728,0,1,NaN,0,0,0.6,NaN,1.02128532761977,NaN,750,0,1,neutral,0,5137.64224938521,2608.40737397774
61,104,3,413,-0.5,-0.5,-0.5,3,3,0.6,3,651,1,1,651,0,0,0.6,0.2,0.379879962983803,0.379879962983803,750,1,0,congruent,0,1339.32379341511,6682.29561289904
61,104,3,414,-0.5,0.5,-0.5,2,2,0.6,4,648,0,1,NaN,0,0,0.4,0.8,0.354890143582401,NaN,750,0,1,congruent,0,2234.20144043837,1407.77790223406
61,104,3,416,-0.5,-0.5,0.5,3,1,0.4,4,721,0,1,NaN,0,0,0.4,0.2,0.962975749016502,NaN,750,0,1,incongruent,0,5194.89888880434,2703.62517949981
61,104,3,417,-0.5,0.5,0,4,NaN,0.4,4,541,1,1,541,1,0,0.4,0.6,-0.536413415067581,-0.536413415067581,750,0,0,neutral,0.1,3027.71365292932,2559.43965999527
61,104,3,418,-0.5,0.5,0.5,1,4,0.4,4,566,0,1,NaN,0,0,0.6,0.6,-0.328164920055903,NaN,750,1,0,incongruent,0,2616.80294822043,634.121029335139
61,104,3,419,0.5,0.5,0.5,2,3,0.4,3,484,0,1,NaN,0,0,0.6,NaN,-1.01121998369421,NaN,750,1,0,incongruent,0,1596.74592300431,948.090459023062
61,104,3,420,-0.5,0.5,0,3,NaN,0.2,3,564,1,1,564,1,0,0.6,0.4,-0.344824799656837,-0.344824799656837,750,0,0,neutral,0.1,8660.78086538979,2413.03418620055
61,104,3,421,0.5,-0.5,-0.5,2,2,0.4,2,627,1,1,627,0,0,0.4,NaN,0.179961407772592,0.179961407772592,750,1,0,congruent,0,840.58581953242,1921.92570263788
61,104,3,422,0.5,0.5,-0.5,1,1,0.4,1,558,1,1,558,1,0,0.4,NaN,-0.39480443845964,-0.39480443845964,750,1,0,congruent,1,2946.2802450694,1589.1451540404
61,104,3,423,0.5,-0.5,0.5,4,2,0.6,4,492,1,1,492,0,0,0.6,NaN,-0.944580465290471,-0.944580465290471,750,0,0,incongruent,0,1624.53774882654,1618.6617075532
61,104,3,424,-0.5,-0.5,-0.5,1,1,0.6,1,505,1,1,505,1,0,0.6,0,-0.836291247884398,-0.836291247884398,750,1,0,congruent,0.1,4373.26168472722,1296.90805174967
61,104,3,425,-0.5,0.5,-0.5,2,2,0.6,2,632,1,1,632,1,0,0.8,0.6,0.221611106774927,0.221611106774927,750,1,0,congruent,0.1,986.615690673396,1004.91271897409
61,104,3,426,0.5,0.5,0.5,4,1,0.6,4,865,1,0,865,0,0,0.8,NaN,2.16248708028377,2.16248708028377,750,0,0,incongruent,0,1499.62257210968,3595.06788298585
61,104,3,427,0.5,-0.5,0.5,1,3,0.6,1,600,1,1,600,0,0,0.8,NaN,-0.0449469668400209,-0.0449469668400209,750,0,0,incongruent,0,3958.761681021,4948.66787859
61,104,3,428,-0.5,-0.5,-0.5,2,2,0.6,2,572,1,1,572,1,0,0.4,0.2,-0.2781852812531,-0.2781852812531,750,1,0,congruent,0.1,3126.81021304409,619.793302311189
61,104,3,429,0.5,-0.5,-0.5,1,1,0.6,1,598,1,1,598,1,0,0.6,NaN,-0.0616068464409551,-0.0616068464409551,750,1,0,congruent,1,1428.99836151113,2069.2466455828
61,104,3,430,0.5,0.5,0.5,2,4,0.6,2,607,1,1,607,1,0,0.8,NaN,0.013362611763249,0.013362611763249,750,0,0,incongruent,1,3187.49496321386,5748.60239264921
61,104,3,431,-0.5,0.5,0.5,1,2,0.8,2,529,0,1,NaN,0,0,1,0.6,-0.636372692673187,NaN,750,1,0,incongruent,0,1281.12237957668,1116.37403715958
61,104,3,432,-0.5,-0.5,0.5,2,4,0.6,1,593,0,1,NaN,0,0,1,0.4,-0.103256545443291,NaN,750,0,1,incongruent,0,1583.52686798996,6961.90677231318
61,104,3,433,-0.5,0.5,0,3,NaN,0.6,3,573,1,1,573,1,0,1,0.6,-0.269855341452633,-0.269855341452633,750,0,0,neutral,0.1,5050.680004735,6347.59730731053
61,104,3,434,0.5,-0.5,0.5,4,1,0.6,1,641,0,1,NaN,0,0,1,NaN,0.296580564979131,NaN,750,1,0,incongruent,0,1908.3172845416,1509.96880318357
61,104,3,435,0.5,0.5,-0.5,2,2,0.6,2,623,1,1,623,1,0,0.6,NaN,0.146641648570723,0.146641648570723,750,1,0,congruent,1,823.038347729325,1359.38859671744
61,104,3,436,0.5,-0.5,-0.5,1,1,0.6,1,607,1,1,607,1,0,0.6,NaN,0.013362611763249,0.013362611763249,750,1,0,congruent,1,3673.36341458274,2071.24187775186
61,104,3,437,0.5,-0.5,-0.5,2,2,0.6,2,653,1,1,653,1,0,1,NaN,0.396539842584737,0.396539842584737,750,1,0,congruent,1,2940.66636426643,1455.76694409493
61,104,3,438,-0.5,0.5,-0.5,1,1,0.6,1,631,1,1,631,1,0,1.4,0.6,0.21328116697446,0.21328116697446,750,1,0,congruent,0.1,2155.81118771355,1224.68227050609
61,104,3,439,-0.5,0.5,-0.5,4,4,0.8,2,587,0,1,NaN,0,0,1.4,0.8,-0.153236184246094,NaN,750,0,1,congruent,0,583.003798213744,2741.86504367013
61,104,3,440,0.5,-0.5,-0.5,3,3,0.6,3,580,1,1,580,0,0,1.4,NaN,-0.211545762849363,-0.211545762849363,750,1,0,congruent,0,2623.66285974926,663.571975204664
61,104,3,441,-0.5,0.5,0,1,NaN,0.6,1,630,1,1,630,1,0,1,0.6,0.204951227173993,0.204951227173993,750,0,0,neutral,0.1,1098.51013355145,2817.23057996026
61,104,3,442,0.5,-0.5,-0.5,3,3,0.8,3,480,1,1,480,1,0,0.8,NaN,-1.04453974289608,-1.04453974289608,750,1,0,congruent,1,1396.07229099297,1811.6465966432
61,104,3,443,-0.5,-0.5,-0.5,2,2,0.8,2,574,1,1,574,1,0,0.8,0.4,-0.261525401652166,-0.261525401652166,750,1,0,congruent,0.1,1304.61983187943,2099.69896889006
61,104,3,444,-0.5,-0.5,0,3,NaN,0.8,3,542,1,1,542,1,0,0.8,0.6,-0.528083475267114,-0.528083475267114,750,0,0,neutral,0.1,7456.70707814089,3398.34143799297
61,104,3,445,-0.5,-0.5,0.5,2,1,0.8,1,825,0,0,NaN,1,0,1,0.8,1.82928948826508,NaN,750,1,0,incongruent,0.1,2805.2201322865,6640.62999486666
61,104,3,447,0.5,0.5,-0.5,2,2,0.8,2,539,1,1,539,1,0,1.2,NaN,-0.553073294668516,-0.553073294668516,750,1,0,congruent,1,620.784737287753,4611.68822979139
61,104,3,448,0.5,0.5,0.5,4,3,0.8,3,600,0,1,NaN,0,0,1.2,NaN,-0.0449469668400209,NaN,750,1,0,incongruent,0,1930.13740268336,2217.33687263461
61,104,3,449,0.5,0.5,0,3,NaN,0.6,3,520,1,1,520,1,0,1,NaN,-0.711342150877391,-0.711342150877391,750,0,0,neutral,1,4065.50857113677,1313.08866086163
61,104,3,450,0.5,-0.5,-0.5,4,4,0.8,4,528,1,1,528,1,0,1.2,NaN,-0.644702632473654,-0.644702632473654,750,1,0,congruent,1,1194.18639130645,1978.51421341294
61,104,4,452,0.5,0.5,-0.5,2,2,0.6,2,682,1,1,682,1,0,1.2,NaN,0.638108096798284,0.638108096798284,750,1,0,congruent,1,1796.34309312518,6048.60332900744
61,104,4,453,0.5,0.5,-0.5,3,3,0.6,3,517,1,1,517,1,0,1.2,NaN,-0.736331970278792,-0.736331970278792,750,1,0,congruent,1,1595.68784203044,366.82394176429
61,104,4,454,-0.5,-0.5,0.5,2,4,0.6,2,794,1,0,794,1,0,1.6,0.8,1.5710613544506,1.5710613544506,750,0,0,incongruent,0.1,3348.40249067246,563.609964993773
61,104,4,455,-0.5,0.5,0,4,NaN,0.6,4,496,1,1,496,1,0,1.4,0.6,-0.911260706088602,-0.911260706088602,750,0,0,neutral,0.1,3110.52765632368,759.103453919751
61,104,4,456,0.5,-0.5,0.5,3,4,0.8,3,447,1,1,447,1,0,1.2,NaN,-1.31942775631149,-1.31942775631149,750,0,0,incongruent,1,1539.38363650558,2139.87366761812
61,104,4,457,-0.5,0.5,-0.5,2,2,0.8,2,576,1,1,576,1,0,1.6,0.6,-0.244865522051232,-0.244865522051232,750,1,0,congruent,0.1,3490.62766520805,951.392935443018
61,104,4,458,-0.5,-0.5,-0.5,4,4,0.8,4,342,1,1,342,1,0,1.4,0.8,-2.19407143536054,-2.19407143536054,750,1,0,congruent,0.1,1005.48122078613,1866.72352750265
61,104,4,459,0.5,0.5,0,1,NaN,0.8,2,740,0,1,NaN,0,0,1.2,NaN,1.12124460522538,NaN,750,0,1,neutral,0,1924.12866115086,2319.2090971136
61,104,4,460,-0.5,0.5,-0.5,2,2,0.8,2,541,1,1,541,1,0,1,0.8,-0.536413415067581,-0.536413415067581,750,1,0,congruent,0.1,2828.26117698828,3328.70077524023
61,104,4,461,-0.5,0.5,-0.5,3,3,0.8,3,472,1,1,472,1,0,1,0.8,-1.11117926129981,-1.11117926129981,750,1,0,congruent,0.1,6100.12561764646,1725.97315456347
61,104,4,462,0.5,-0.5,-0.5,4,4,0.8,4,556,1,1,556,1,0,0.8,NaN,-0.411464318060574,-0.411464318060574,750,1,0,congruent,1,4792.95798907921,1392.96221796192
61,104,4,463,-0.5,0.5,0,3,NaN,0.8,3,493,1,1,493,1,0,1,0.8,-0.936250525490003,-0.936250525490003,750,0,0,neutral,0.1,4866.95409954363,2441.33433638993
61,104,4,464,-0.5,-0.5,-0.5,4,4,0.8,4,512,1,1,512,1,0,1,1,-0.777981669281128,-0.777981669281128,750,1,0,congruent,0.1,2537.67329196809,550.326164297993
61,104,4,465,0.5,-0.5,-0.5,1,1,0.8,2,592,0,1,NaN,1,0,1.2,NaN,-0.111586485243758,NaN,750,0,1,congruent,1,893.789760491975,1701.40116750223
61,104,4,466,-0.5,-0.5,0,3,NaN,0.8,4,477,0,1,NaN,1,0,1.4,1,-1.06952956229748,NaN,750,0,1,neutral,0.1,3201.2223245742,1644.28694549213
61,104,4,467,0.5,-0.5,0.5,4,2,0.8,1,653,0,1,NaN,1,0,1.4,NaN,0.396539842584737,NaN,750,0,1,incongruent,1,737.654447689119,1386.63246439441
61,104,4,468,-0.5,0.5,-0.5,1,1,0.8,1,552,1,1,552,1,0,1.4,1,-0.444784077262443,-0.444784077262443,750,1,0,congruent,0.1,965.188851091061,12406.8446235991
61,104,4,469,0.5,0.5,-0.5,3,3,0.8,3,515,1,1,515,1,0,1.4,NaN,-0.752991849879727,-0.752991849879727,750,1,0,congruent,1,3424.28701288207,2055.96531463664
61,104,4,470,0.5,0.5,0.5,1,4,1,1,548,1,1,548,1,0,1.6,NaN,-0.478103836464311,-0.478103836464311,750,0,0,incongruent,1,742.430286564228,3422.88061450161
61,104,4,471,0.5,0.5,0,3,NaN,1,3,506,1,1,506,1,0,1.6,NaN,-0.827961308083931,-0.827961308083931,750,0,0,neutral,1,3150.76345647985,1826.05961829195
61,104,4,472,0.5,-0.5,-0.5,1,1,1,1,470,1,1,470,1,0,1.8,NaN,-1.12783914090075,-1.12783914090075,750,1,0,congruent,1,5389.50144455059,821.366348519602
61,104,4,473,0.5,-0.5,0.5,2,3,1,2,470,1,1,470,1,0,1.8,NaN,-1.12783914090075,-1.12783914090075,750,0,0,incongruent,1,3083.2565558164,768.264673441304
61,104,4,474,0.5,0.5,0,4,NaN,1,4,599,1,1,599,1,0,2,NaN,-0.053276906640488,-0.053276906640488,750,0,0,neutral,1,1351.72065698304,1603.2523618258
61,104,4,475,0.5,-0.5,-0.5,3,3,1,3,533,1,1,533,1,0,2,NaN,-0.603052933471318,-0.603052933471318,750,1,0,congruent,1,3098.17383544416,1434.63702687261
61,104,4,476,-0.5,0.5,0.5,2,1,1,2,582,1,1,582,1,0,2,1,-0.194885883248429,-0.194885883248429,750,0,0,incongruent,0.1,4018.52886524487,1133.4748220671
61,104,4,477,-0.5,-0.5,-0.5,4,4,1,4,648,1,1,648,1,0,1.8,1,0.354890143582401,0.354890143582401,750,1,0,congruent,0.1,2804.19489480683,3466.97031576556
61,104,4,478,-0.5,0.5,0.5,1,3,1,1,696,1,1,696,1,0,1.6,1,0.754727254004823,0.754727254004823,750,0,0,incongruent,0.1,947.494951092251,1373.78599933875
61,104,4,479,-0.5,-0.5,-0.5,4,4,1,3,540,0,1,NaN,1,0,1.4,1,-0.544743354868048,NaN,750,0,1,congruent,0.1,3584.81600633201,1675.85210580388
61,104,4,480,-0.5,0.5,-0.5,2,2,1,2,544,1,1,544,1,0,1.2,1,-0.51142359566618,-0.51142359566618,750,1,0,congruent,0.1,2491.96223302077,200.906016694511
61,104,4,481,-0.5,-0.5,0.5,1,4,1,1,812,1,0,812,1,0,1,1,1.72100027085901,1.72100027085901,750,0,0,incongruent,0.1,4947.78470452342,2143.93334356635
61,104,4,482,-0.5,0.5,-0.5,3,3,1,3,559,1,1,559,1,0,1,1,-0.386474498659173,-0.386474498659173,750,1,0,congruent,0.1,1225.90377445814,3166.65083744628
61,104,4,483,0.5,0.5,-0.5,2,2,1,4,439,0,1,NaN,0,0,1,NaN,-1.38606727471523,NaN,750,0,1,congruent,0,3371.51560335014,773.442216909813
61,104,4,484,0.5,0.5,-0.5,3,3,0.8,3,407,1,1,407,1,0,0.8,NaN,-1.65262534833018,-1.65262534833018,750,1,0,congruent,1,1436.56370157214,6263.28476110083
61,104,4,485,-0.5,0.5,-0.5,2,2,0.8,1,579,0,1,NaN,0,0,1,1,-0.219875702649831,NaN,750,0,1,congruent,0,3051.01417472169,6206.87667948795
61,104,4,486,0.5,0.5,0.5,4,1,0.6,4,856,1,0,856,0,0,0.8,NaN,2.08751762207956,2.08751762207956,750,0,0,incongruent,0,4353.11712360471,2139.48959160963
61,104,4,487,0.5,-0.5,0,2,NaN,0.4,3,469,0,1,NaN,0,0,0.6,NaN,-1.13616908070121,NaN,750,0,1,neutral,0,8313.4926174609,1499.18796643761
61,104,4,488,-0.5,0.5,-0.5,1,1,0.4,1,610,1,1,610,1,0,0.4,0.8,0.0383524311646504,0.0383524311646504,750,1,0,congruent,0.1,4422.53349687019,1407.33365257761
61,104,4,489,0.5,0.5,0.5,2,3,0.4,1,840,0,0,NaN,0,0,0.6,NaN,1.95423858527209,NaN,750,0,1,incongruent,0,4846.4616692509,1373.56623273642
61,104,4,490,0.5,-0.5,0.5,3,4,0.4,3,448,1,1,448,1,0,0.2,NaN,-1.31109781651102,-1.31109781651102,750,0,0,incongruent,1,4212.25877355536,879.674232082562
61,104,4,492,0.5,0.5,-0.5,1,1,0.4,1,461,1,1,461,1,0,0.8,NaN,-1.20280859910495,-1.20280859910495,750,1,0,congruent,1,4084.32245259887,608.459258318426
61,104,4,493,0.5,-0.5,0,3,NaN,0.4,3,515,1,1,515,1,0,1.2,NaN,-0.752991849879727,-0.752991849879727,750,0,0,neutral,1,2017.1934683821,1398.06425844858
61,104,4,494,-0.5,-0.5,-0.5,4,4,0.4,4,497,1,1,497,0,0,1.4,1,-0.902930766288135,-0.902930766288135,750,1,0,congruent,0,3243.40915142375,686.153202137694
61,104,4,495,-0.5,-0.5,-0.5,3,3,0.4,3,751,1,0,751,0,0,1.4,0.8,1.21287394303052,1.21287394303052,750,1,0,congruent,0,3736.29208348039,4518.72722273569
61,104,4,496,0.5,0.5,0,4,NaN,0.4,4,488,1,1,488,1,0,1,NaN,-0.977900224492339,-0.977900224492339,750,0,0,neutral,1,4688.51539977575,563.559875591778
61,104,4,497,0.5,-0.5,0.5,1,3,0.6,1,656,1,1,656,1,0,1.2,NaN,0.421529661986138,0.421529661986138,750,0,0,incongruent,1,1930.05808758599,930.289391557933
61,104,4,498,-0.5,0.5,0,3,NaN,0.6,3,585,1,1,585,1,0,1.2,0.8,-0.169896063847028,-0.169896063847028,750,0,0,neutral,0.1,3116.13332883259,1216.20618606791
61,104,4,499,0.5,-0.5,-0.5,2,2,0.8,1,803,0,0,NaN,1,0,1,NaN,1.64603081265481,NaN,750,0,1,congruent,1,6115.89574205508,1710.92849048934
61,104,4,500,-0.5,-0.5,0.5,1,4,0.8,4,694,0,1,NaN,1,0,1.4,0.6,0.738067374403889,NaN,750,1,0,incongruent,0.1,2480.98207069448,980.077853129757
61,104,4,501,-0.5,0.5,0,2,NaN,0.8,3,541,0,1,NaN,0,0,1.6,0.8,-0.536413415067581,NaN,750,0,1,neutral,0,1152.6612937444,5530.66583668722
61,104,4,502,0.5,-0.5,-0.5,3,3,0.6,3,529,1,1,529,0,0,1.2,NaN,-0.636372692673187,-0.636372692673187,750,1,0,congruent,0,2047.51207288201,1361.82313920451
61,104,4,503,-0.5,0.5,0.5,1,4,0.6,4,846,0,0,NaN,0,0,0.8,0.6,2.00421822407489,NaN,750,1,0,incongruent,0,2865.72446042294,2410.98536728093
61,104,4,504,-0.5,-0.5,0.5,2,1,0.6,1,636,0,1,NaN,1,0,0.6,0.6,0.254930865976796,NaN,750,1,0,incongruent,0.1,1743.87648268536,3639.94299678222
61,104,4,507,0.5,0.5,0,1,NaN,0.2,1,704,1,1,704,1,0,0.2,NaN,0.82136677240856,0.82136677240856,750,0,0,neutral,1,4027.89915970133,1636.49050852412
61,104,4,508,0.5,-0.5,-0.5,3,3,0.2,3,517,1,1,517,0,0,0.6,NaN,-0.736331970278792,-0.736331970278792,750,1,0,congruent,0,3480.31516743537,824.157133759725
61,104,4,509,0.5,-0.5,0,4,NaN,0.2,4,534,1,1,534,0,0,0.6,NaN,-0.594722993670851,-0.594722993670851,750,0,0,neutral,0,3995.32992210571,1359.80023382007
61,104,4,510,0.5,-0.5,-0.5,3,3,0.2,3,542,1,1,542,0,0,0.4,NaN,-0.528083475267114,-0.528083475267114,750,1,0,congruent,0,3134.6504828651,968.708060021567
61,104,4,511,-0.5,0.5,0.5,4,1,0.2,4,813,1,0,813,0,0,0.4,0.4,1.72933021065948,1.72933021065948,750,0,0,incongruent,0,1006.71632093059,1358.06065434604
61,104,4,514,0.5,-0.5,0.5,2,4,0.2,2,633,1,1,633,0,0,0,NaN,0.229941046575394,0.229941046575394,750,0,0,incongruent,0,4237.30412599135,2307.08751025432
61,104,4,515,-0.5,0.5,0,3,NaN,0.2,3,361,1,1,361,1,0,0,0,-2.03580257915166,-2.03580257915166,750,0,0,neutral,0.1,2527.71566635376,1045.51512147162
61,104,4,516,0.5,-0.5,-0.5,4,4,0.4,4,505,1,1,505,0,0,0.2,NaN,-0.836291247884398,-0.836291247884398,750,1,0,congruent,0,5150.24369281719,1218.9890412235
61,104,4,517,-0.5,-0.5,0,1,NaN,0.4,1,529,1,1,529,1,0,0.2,0.6,-0.636372692673187,-0.636372692673187,750,0,0,neutral,0.1,2182.05350399592,1265.94417101199
61,104,4,518,0.5,0.5,-0.5,4,4,0.4,4,697,1,1,697,1,0,0.4,NaN,0.76305719380529,0.76305719380529,750,1,0,congruent,1,1222.63617533386,6247.67941329621
61,104,4,519,-0.5,-0.5,-0.5,1,1,0.6,1,700,1,1,700,1,0,0.8,0.6,0.788047013206692,0.788047013206692,750,1,0,congruent,0.1,6014.18192297802,4325.74207006755
61,104,4,520,-0.5,0.5,0,3,NaN,0.6,2,716,0,1,NaN,0,0,1,0.2,0.921326050014166,NaN,750,0,1,neutral,0,3439.28122592429,463.58331392809
61,104,4,521,-0.5,0.5,-0.5,2,2,0.4,2,609,1,1,609,1,0,0.8,0.2,0.0300224913641833,0.0300224913641833,750,1,0,congruent,0.1,7038.7275135488,2127.22395349959
61,104,4,522,0.5,-0.5,-0.5,3,3,0.6,3,438,1,1,438,1,0,1,NaN,-1.3943972145157,-1.3943972145157,750,1,0,congruent,1,4605.56070771268,2521.76117374957
61,104,4,523,0.5,-0.5,0,1,NaN,0.6,4,719,0,1,NaN,1,0,1.2,NaN,0.946315869415567,NaN,750,0,1,neutral,1,2764.49714072452,6229.78246471191
61,104,4,524,0.5,-0.5,0.5,2,4,0.6,4,836,0,0,NaN,1,0,1.2,NaN,1.92091882607022,NaN,750,1,0,incongruent,1,752.770560753027,2678.38757852599
61,104,4,525,0.5,-0.5,-0.5,1,1,0.6,1,532,1,1,532,0,0,1.4,NaN,-0.611382873271786,-0.611382873271786,750,1,0,congruent,0,4606.55532406474,2574.75557431076
61,104,4,526,0.5,-0.5,0,2,NaN,0.6,4,828,0,0,NaN,1,0,1.4,NaN,1.85427930766648,NaN,750,0,1,neutral,1,2722.62953227983,1291.83462899412
61,104,4,527,0.5,0.5,-0.5,1,1,0.6,1,584,1,1,584,1,0,1.6,NaN,-0.178226003647495,-0.178226003647495,750,1,0,congruent,1,3902.24972916287,1592.57480023956
61,104,4,528,0.5,-0.5,0.5,3,4,0.8,4,523,0,1,NaN,1,0,1.6,NaN,-0.68635233147599,NaN,750,1,0,incongruent,1,3360.71569700085,885.951253265481
61,104,4,529,-0.5,-0.5,0,4,NaN,0.8,4,527,1,1,527,0,0,1.6,0.8,-0.653032572274121,-0.653032572274121,750,0,0,neutral,0,3789.71442472881,1144.03029558076
61,104,4,530,0.5,0.5,0.5,3,1,0.8,3,396,1,1,396,1,0,1.2,NaN,-1.74425468613531,-1.74425468613531,750,0,0,incongruent,1,1946.16016638311,2713.05923248441
61,104,4,531,0.5,0.5,0,4,NaN,0.8,4,636,1,1,636,1,0,1.6,NaN,0.254930865976796,0.254930865976796,750,0,0,neutral,1,808.320920221167,1770.54430470156
61,104,4,532,0.5,-0.5,0.5,2,1,0.8,1,902,0,0,NaN,1,0,1.6,NaN,2.47069485290105,NaN,750,1,0,incongruent,1,580.377853674409,1136.25265083928
61,104,4,533,-0.5,-0.5,-0.5,3,3,0.8,3,475,1,1,475,1,0,1.6,0.8,-1.08618944189841,-1.08618944189841,750,1,0,congruent,0.1,374.538180388323,2570.93172892231
61,104,4,534,0.5,0.5,0,2,NaN,0.8,4,688,0,1,NaN,0,0,1.4,NaN,0.688087735601086,NaN,750,0,1,neutral,0,1212.06479602921,2493.07805862494
61,104,4,535,-0.5,-0.5,-0.5,4,4,0.8,4,979,1,0,979,0,0,1.4,0.8,3.11210021753702,3.11210021753702,750,1,0,congruent,0,318.593041566009,838.6765285845
61,104,4,536,-0.5,0.5,0,1,NaN,0.8,1,676,1,1,676,1,0,1,0.4,0.588128457995481,0.588128457995481,750,0,0,neutral,0.1,3377.17232535815,2063.29694967455
61,104,4,537,-0.5,-0.5,0.5,3,1,0.8,1,597,0,1,NaN,1,0,0.8,0.6,-0.0699367862414222,NaN,750,1,0,incongruent,0.1,2077.58342777703,809.754963573031
61,104,4,539,-0.5,0.5,0.5,4,1,0.8,4,834,1,0,834,0,0,0.8,0.6,1.90425894646929,1.90425894646929,750,0,0,incongruent,0,2778.26775569252,5354.07223724163
61,104,4,541,-0.5,-0.5,0,1,NaN,0.6,1,643,1,1,643,1,0,1.2,0.6,0.313240444580066,0.313240444580066,750,0,0,neutral,0.1,2794.56229731632,4220.44010849879
61,104,4,542,-0.5,-0.5,-0.5,3,3,0.6,3,419,1,1,419,0,0,1.2,0.6,-1.55266607072457,-1.55266607072457,750,1,0,congruent,0,3570.53390790854,2770.17709258133
61,104,4,543,-0.5,0.5,0,4,NaN,0.6,4,507,1,1,507,1,0,1,0.6,-0.819631368283464,-0.819631368283464,750,0,0,neutral,0.1,1294.27595077324,927.492150078386
61,104,4,544,0.5,-0.5,-0.5,2,2,0.6,2,461,1,1,461,1,0,0.8,NaN,-1.20280859910495,-1.20280859910495,750,1,0,congruent,1,2236.80609340245,2648.53261440154
61,104,4,546,-0.5,0.5,0,1,NaN,0.8,4,515,0,1,NaN,0,0,1,0.8,-0.752991849879727,NaN,750,0,1,neutral,0,13425.6982453431,2223.06923743077
61,104,4,547,-0.5,0.5,-0.5,3,3,0.6,3,520,1,1,520,1,0,0.8,0.6,-0.711342150877391,-0.711342150877391,750,1,0,congruent,0.1,2177.56838182538,2195.36695228819
61,104,4,548,-0.5,0.5,0,2,NaN,0.8,1,616,0,1,NaN,0,0,1,0.6,0.0883320699674532,NaN,750,0,1,neutral,0,1081.09153120203,4224.64906127017
61,104,4,549,0.5,-0.5,-0.5,1,1,0.6,1,631,1,1,631,1,0,0.8,NaN,0.21328116697446,0.21328116697446,750,1,0,congruent,1,2513.71555458368,7508.80703716637
61,104,4,550,-0.5,0.5,0,3,NaN,0.6,3,608,1,1,608,1,0,0.8,0.6,0.0216925515637162,0.0216925515637162,750,0,0,neutral,0.1,1026.28629867727,781.934127158221
61,104,4,551,-0.5,-0.5,0.5,2,3,0.6,4,698,0,1,NaN,0,0,0.8,0.6,0.771387133605758,NaN,750,0,1,incongruent,0,861.753881671746,2704.57879669883
61,104,4,552,-0.5,-0.5,-0.5,1,1,0.6,1,632,1,1,632,1,0,0.8,0.4,0.221611106774927,0.221611106774927,750,1,0,congruent,0.1,840.688179616515,1624.16171283406
61,104,4,553,-0.5,0.5,0.5,2,3,0.6,2,568,1,1,568,1,0,0.8,0.6,-0.311505040454969,-0.311505040454969,750,0,0,incongruent,0.1,2287.72936690582,1182.36879854994
61,104,4,554,-0.5,0.5,-0.5,1,1,0.6,1,565,1,1,565,1,0,1,0.6,-0.33649485985637,-0.33649485985637,750,1,0,congruent,0.1,1650.38027491217,1089.2600646302
61,104,4,555,0.5,-0.5,0.5,3,4,0.8,3,577,1,1,577,1,0,0.8,NaN,-0.236535582250765,-0.236535582250765,750,0,0,incongruent,1,1189.08218866358,2671.97121805393
61,104,4,556,-0.5,-0.5,0,2,NaN,0.8,2,569,1,1,569,1,0,1,0.6,-0.303175100654502,-0.303175100654502,750,0,0,neutral,0.1,1597.45187433303,1646.45945227025
61,104,4,557,0.5,-0.5,-0.5,1,1,0.8,1,554,1,1,554,0,0,1.2,NaN,-0.428124197661509,-0.428124197661509,750,1,0,congruent,0,4740.78922033293,1222.37012448995
61,104,4,558,-0.5,-0.5,0.5,3,4,0.8,3,392,1,1,392,1,0,1,0.6,-1.77757444533718,-1.77757444533718,750,0,0,incongruent,0.1,1567.43283328727,1768.29077026123
61,104,4,559,0.5,-0.5,0.5,1,3,0.8,1,469,1,1,469,0,0,1,NaN,-1.13616908070121,-1.13616908070121,750,0,0,incongruent,0,4347.25689529525,1136.73489620694
61,104,4,560,-0.5,0.5,0,4,NaN,0.8,4,571,1,1,571,1,0,0.8,0.8,-0.286515221053568,-0.286515221053568,750,0,0,neutral,0.1,2316.30047636672,811.283446126961
61,104,4,561,0.5,0.5,-0.5,1,1,0.8,1,514,1,1,514,1,0,0.6,NaN,-0.761321789680194,-0.761321789680194,750,1,0,congruent,1,2380.71590368724,1760.74664932404
61,104,4,562,0.5,-0.5,0.5,3,4,1,3,581,1,1,581,1,0,0.8,NaN,-0.203215823048896,-0.203215823048896,750,0,0,incongruent,1,4715.41671741181,1318.85458940404
61,104,4,563,0.5,0.5,-0.5,1,1,1,1,506,1,1,506,1,0,1.2,NaN,-0.827961308083931,-0.827961308083931,750,1,0,congruent,1,2387.8291598126,1695.59318159088
61,104,4,564,-0.5,0.5,0.5,2,4,1,4,530,0,1,NaN,0,0,1.4,0.8,-0.62804275287272,NaN,750,1,0,incongruent,0,1189.05424588768,2048.04863385034
61,104,4,565,-0.5,0.5,-0.5,1,1,0.8,1,517,1,1,517,1,0,1.4,0.8,-0.736331970278792,-0.736331970278792,750,1,0,congruent,0.1,2778.38539952084,2063.64152504043
61,104,4,566,-0.5,-0.5,-0.5,2,2,0.8,1,570,0,1,NaN,1,0,1.4,0.6,-0.294845160854035,NaN,750,0,1,congruent,0.1,909.417653247252,3860.33072838915
61,104,4,567,-0.5,-0.5,0.5,3,4,0.8,3,517,1,1,517,0,0,1.2,0.8,-0.736331970278792,-0.736331970278792,750,0,0,incongruent,0,1449.47162074948,2131.87010049766
61,104,4,568,0.5,0.5,-0.5,1,1,0.8,1,467,1,1,467,1,0,0.8,NaN,-1.15282896030215,-1.15282896030215,750,1,0,congruent,1,2978.30791555229,1020.59268975976
61,104,4,569,0.5,-0.5,0,2,NaN,0.8,2,806,1,0,806,1,0,0.8,NaN,1.67102063205621,1.67102063205621,750,0,0,neutral,1,3574.26543887982,1151.65487094051
61,104,4,570,0.5,0.5,0.5,1,2,0.8,1,783,1,0,783,0,0,1.2,NaN,1.47943201664546,1.47943201664546,750,0,0,incongruent,0,2147.46553706294,3075.80027798033
61,104,4,571,-0.5,-0.5,0,3,NaN,0.6,4,425,0,1,NaN,0,0,1,0.8,-1.50268643192177,NaN,750,0,1,neutral,0,1844.82675819626,1719.98913831009
61,104,4,572,-0.5,-0.5,-0.5,2,2,0.6,2,614,1,1,614,0,0,0.8,0.6,0.0716721903665189,0.0716721903665189,750,1,0,congruent,0,5574.75548427112,1125.73151245967
61,104,4,573,0.5,-0.5,0,3,NaN,0.6,3,528,1,1,528,0,0,0.8,NaN,-0.644702632473654,-0.644702632473654,750,0,0,neutral,0,2784.76343934275,2385.63989896193
61,104,4,575,-0.5,-0.5,0,3,NaN,0.4,3,543,1,1,543,1,0,0,0.4,-0.519753535466647,-0.519753535466647,750,0,0,neutral,0.1,4961.76780524048,2701.32995765568
61,104,4,576,0.5,0.5,-0.5,2,2,0.4,2,806,1,0,806,0,0,0.2,NaN,1.67102063205621,1.67102063205621,750,1,0,congruent,0,1896.48682259799,4650.59955034706
61,104,4,577,-0.5,0.5,-0.5,1,1,0.4,1,618,1,1,618,1,0,0.2,0.8,0.104991949568387,0.104991949568387,750,1,0,congruent,0.1,1034.71128052611,3749.55599742728
61,104,4,578,0.5,-0.5,0,4,NaN,0.4,4,592,1,1,592,1,0,0.4,NaN,-0.111586485243758,-0.111586485243758,750,0,0,neutral,1,1562.94541756499,1294.51156651373
61,104,4,579,-0.5,-0.5,-0.5,2,2,0.4,2,653,1,1,653,0,0,0.8,0.4,0.396539842584737,0.396539842584737,750,1,0,congruent,0,1038.52365178483,6924.09300485452
61,104,4,580,-0.5,0.5,0.5,1,4,0.4,1,598,1,1,598,1,0,0.8,0.8,-0.0616068464409551,-0.0616068464409551,750,0,0,incongruent,0.1,2379.60056926913,440.642343142771
61,104,4,581,0.5,0.5,0,4,NaN,0.4,3,529,0,1,NaN,0,0,0.8,NaN,-0.636372692673187,NaN,750,0,1,neutral,0,2940.55915427846,1141.35009993806
61,104,4,582,-0.5,0.5,-0.5,1,1,0.4,1,516,1,1,516,1,0,0.8,0.8,-0.74466191007926,-0.74466191007926,750,1,0,congruent,0.1,9709.32912083746,1644.80798029155
61,104,4,583,0.5,0.5,0.5,2,4,0.6,2,579,1,1,579,1,0,0.8,NaN,-0.219875702649831,-0.219875702649831,750,0,0,incongruent,1,2680.44477322577,1289.76237130994
61,104,4,584,-0.5,-0.5,0.5,4,1,0.8,4,940,1,0,940,1,0,0.8,0.2,2.7872325653188,2.7872325653188,750,0,0,incongruent,0.1,3708.79284343454,1993.38735758209
61,104,4,585,-0.5,-0.5,0,2,NaN,0.8,2,935,1,0,935,1,0,1,0.4,2.74558286631647,2.74558286631647,750,0,0,neutral,0.1,4498.55340213016,2727.23254992052
61,104,4,586,-0.5,0.5,0.5,1,2,0.8,1,520,1,1,520,1,0,1,0.8,-0.711342150877391,-0.711342150877391,750,0,0,incongruent,0.1,2514.12278585888,5051.55832723038
61,104,4,587,-0.5,-0.5,0,2,NaN,0.8,2,667,1,1,667,1,0,1.2,0.6,0.513158999791277,0.513158999791277,750,0,0,neutral,0.1,2118.80365156681,1913.63263406498
61,104,4,588,-0.5,0.5,0.5,4,2,0.8,3,567,0,1,NaN,0,0,1.2,1,-0.319834980255436,NaN,750,0,1,incongruent,0,4190.18780564387,1333.76167619649
61,104,4,589,-0.5,-0.5,0.5,2,4,0.6,2,799,1,0,799,0,0,0.8,0.8,1.61271105345294,1.61271105345294,750,0,0,incongruent,0,900.706094250236,1015.18359037438
61,104,4,590,-0.5,-0.5,-0.5,1,1,0.6,1,774,1,0,774,0,0,0.6,0.6,1.40446255844126,1.40446255844126,750,1,0,congruent,0,1171.04157558475,662.475271352823
61,104,4,591,-0.5,-0.5,0,2,NaN,0.6,2,721,1,1,721,1,0,0.4,0.6,0.962975749016502,0.962975749016502,750,0,0,neutral,0.1,3373.86231528121,5009.78937533932
61,104,4,593,-0.5,-0.5,-0.5,3,3,0.6,3,277,1,1,277,0,0,0.4,0.6,-2.7355175223909,-2.7355175223909,750,1,0,congruent,0,2328.10201392743,787.538106863081
61,104,4,594,0.5,0.5,0.5,1,2,0.6,1,531,1,1,531,1,0,0.4,NaN,-0.619712813072253,-0.619712813072253,750,0,0,incongruent,1,903.584828666428,1461.15499548178
61,104,4,595,0.5,0.5,0.5,3,4,0.8,3,531,1,1,531,1,0,0.8,NaN,-0.619712813072253,-0.619712813072253,750,0,0,incongruent,1,3464.37012612657,1112.23428464763
61,104,4,596,-0.5,-0.5,0,1,NaN,0.8,2,573,0,1,NaN,1,0,1.2,0.4,-0.269855341452633,NaN,750,0,1,neutral,0.1,2776.77349240756,2245.62622363461
61,104,4,597,0.5,-0.5,-0.5,3,3,0.8,3,653,1,1,653,1,0,1.2,NaN,0.396539842584737,0.396539842584737,750,1,0,congruent,1,279.454545650283,1989.05791289824
61,104,4,599,-0.5,0.5,0,1,NaN,0.6,1,699,1,1,699,1,0,1.4,0.6,0.779717073406225,0.779717073406225,750,0,0,neutral,0.1,2807.23376727725,873.870779712936
61,104,4,600,-0.5,-0.5,-0.5,2,2,0.6,2,616,1,1,616,1,0,1.2,0.6,0.0883320699674532,0.0883320699674532,750,1,0,congruent,0.1,3847.70622738937,2651.26910712913
