subid,vers,block,trial,rewlvl,efflvl,congruency,targetresp,distractorresp,rollingefflvl,resp,rt,acc,fast,accrt,isrewarded,ismiss,runavgrrgen,runavgrrcond,zrt,acczrt,rtthreshold,isdisterror,isranderror,congruence,feedback,fcz_resp_theta,fcz_resp_theta_baseline
62,104,1,1,-0.5,-0.5,-0.5,2,2,0.5,1,864,0,0,NaN,0,0,0,0,1.45941268815102,NaN,750,0,1,congruent,0,942.316091163165,3370.60810295052
62,104,1,2,-0.5,-0.5,-0.5,1,1,0.5,1,438,1,1,438,0,0,0,0,-1.50631062250165,-1.50631062250165,750,1,0,congruent,0,2662.58549449795,1892.36845937309
62,104,1,4,0.5,-0.5,0,2,NaN,0.4,2,635,1,1,635,0,0,0,NaN,-0.134837636120014,-0.134837636120014,750,0,0,neutral,0,2548.26061333815,4680.48667634725
62,104,1,5,0.5,0.5,0.5,3,2,0.4,3,359,1,1,359,1,0,0,NaN,-2.05629217541611,-2.05629217541611,750,0,0,incongruent,1,2270.21698860453,5581.00999117626
62,104,1,6,-0.5,0.5,0.5,2,3,0.5,2,553,1,1,553,1,0,0.4,0,-0.705704564461608,-0.705704564461608,750,0,0,incongruent,0.1,9062.79051357589,765.307143085526
62,104,1,7,-0.5,0.5,0.5,4,1,0.6,1,648,0,1,NaN,0,0,0.6,0.2,-0.0443343426024446,NaN,750,1,0,incongruent,0,3415.36717494967,3961.51237886538
62,104,1,8,0.5,-0.5,0.5,2,3,0.4,2,477,1,1,477,0,0,0.6,NaN,-1.23480074194894,-1.23480074194894,750,0,0,incongruent,0,1611.64839124265,1808.50087825738
62,104,1,9,-0.5,0.5,0,3,NaN,0.4,1,620,0,1,NaN,0,0,0.6,0.2,-0.239264513255672,NaN,750,0,1,neutral,0,2759.16456362594,2232.42465237949
62,104,1,10,0.5,-0.5,0.5,2,1,0.4,2,425,1,1,425,1,0,0.6,NaN,-1.59681391601922,-1.59681391601922,750,0,0,incongruent,1,6451.26013577346,391.683740871828
62,104,1,11,0.5,-0.5,0,1,NaN,0.4,1,532,1,1,532,0,0,0.6,NaN,-0.851902192451529,-0.851902192451529,750,0,0,neutral,0,7809.81267527056,2452.90260967161
62,104,1,12,-0.5,0.5,0.5,3,1,0.4,3,438,1,1,438,1,0,0.4,0.2,-1.50631062250165,-1.50631062250165,750,0,0,incongruent,0.1,644.914588509182,1857.78747338556
62,104,1,13,0.5,0.5,-0.5,2,2,0.6,1,553,0,1,NaN,0,0,0.6,NaN,-0.705704564461608,NaN,750,0,1,congruent,0,3084.06007075351,1913.78590947493
62,104,1,14,-0.5,-0.5,0,1,NaN,0.4,1,589,1,1,589,1,0,0.6,0,-0.455080059336031,-0.455080059336031,750,0,0,neutral,0.1,2324.56538430519,3946.11375436798
62,104,1,15,-0.5,-0.5,0.5,2,3,0.4,2,597,1,1,597,0,0,0.8,0.2,-0.39938572486368,-0.39938572486368,750,0,0,incongruent,0,2261.63616818296,1660.51025279191
62,104,1,17,0.5,-0.5,-0.5,1,1,0.2,1,749,1,1,749,1,0,0.4,NaN,0.658806630110982,0.658806630110982,750,1,0,congruent,1,1168.3145399561,4327.30225097224
62,104,1,18,-0.5,-0.5,0.5,2,3,0.2,2,521,1,1,521,0,0,0.6,0.2,-0.928481902351011,-0.928481902351011,750,0,0,incongruent,0,1177.26904754007,2791.35618167665
62,104,1,19,-0.5,0.5,0,3,NaN,0.2,3,364,1,1,364,1,0,0.6,0.4,-2.02148321637089,-2.02148321637089,750,0,0,neutral,0.1,731.94848748426,1766.29017086812
62,104,1,20,-0.5,0.5,-0.5,1,1,0.4,1,538,1,1,538,1,0,0.6,0.6,-0.810131441597266,-0.810131441597266,750,1,0,congruent,0.1,6218.0306694817,625.767322618789
62,104,1,21,0.5,-0.5,0,2,NaN,0.6,2,536,1,1,536,0,0,0.8,NaN,-0.824055025215354,-0.824055025215354,750,0,0,neutral,0,946.063069821679,2231.79886591812
62,104,1,22,0.5,-0.5,-0.5,4,4,0.6,4,365,1,1,365,0,0,0.8,NaN,-2.01452142456185,-2.01452142456185,750,1,0,congruent,0,3556.93447295779,5026.47565023168
62,104,1,23,0.5,-0.5,0,3,NaN,0.6,3,698,1,1,698,0,0,0.4,NaN,0.303755247849747,0.303755247849747,750,0,0,neutral,0,5532.98316345074,1971.8998946135
62,104,1,24,-0.5,0.5,-0.5,4,4,0.6,4,818,1,0,818,0,0,0.4,0.6,1.13917026493501,1.13917026493501,750,1,0,congruent,0,2655.97228847879,5856.27291439821
62,104,1,25,-0.5,0.5,0.5,3,2,0.4,3,751,1,0,751,0,0,0.2,0.6,0.67273021372907,0.67273021372907,750,0,0,incongruent,0,4083.70618982138,2769.28718858968
62,104,1,26,0.5,-0.5,-0.5,1,1,0.4,1,645,1,1,645,1,0,0,NaN,-0.0652197180295761,-0.0652197180295761,750,1,0,congruent,1,1684.48444827969,2443.36885785719
62,104,1,27,0.5,0.5,0,3,NaN,0.4,3,573,1,1,573,1,0,0.4,NaN,-0.566468728280732,-0.566468728280732,750,0,0,neutral,1,2485.06254261532,2242.7230118522
62,104,1,28,-0.5,-0.5,-0.5,2,2,0.6,2,796,1,0,796,1,0,0.8,0.2,0.986010845136042,0.986010845136042,750,1,0,congruent,0.1,4706.30944454855,1505.0597949729
62,104,1,29,0.5,0.5,0,3,NaN,0.6,3,749,1,1,749,1,0,1,NaN,0.658806630110982,0.658806630110982,750,0,0,neutral,1,2664.95044486276,3367.07822084538
62,104,1,30,-0.5,-0.5,-0.5,4,4,0.6,4,564,1,1,564,0,0,1.4,0.4,-0.629124854562126,-0.629124854562126,750,1,0,congruent,0,845.563145868564,1684.49185305105
62,104,1,31,-0.5,0.5,0,1,NaN,0.6,3,455,0,1,NaN,0,0,1.4,0.6,-1.3879601617479,NaN,750,0,1,neutral,0,4879.00066599159,1485.74010872709
62,104,1,32,0.5,-0.5,-0.5,2,2,0.4,2,713,1,1,713,1,0,1,NaN,0.408182124985404,0.408182124985404,750,1,0,congruent,1,875.220245307996,1901.51813951862
62,104,1,33,-0.5,0.5,-0.5,3,3,0.4,3,850,1,0,850,0,0,1,0.4,1.36194760282441,1.36194760282441,750,1,0,congruent,0,2055.73978314549,3365.8464982031
62,104,1,34,-0.5,-0.5,0,2,NaN,0.4,2,541,1,1,541,0,0,0.8,0.4,-0.789246066170134,-0.789246066170134,750,0,0,neutral,0,1946.65154687867,1741.94131687137
62,104,1,35,0.5,-0.5,-0.5,4,4,0.4,4,582,1,1,582,1,0,0.4,NaN,-0.503812601999337,-0.503812601999337,750,1,0,congruent,1,3785.65497388253,1517.20750584021
62,104,1,36,-0.5,0.5,0,3,NaN,0.4,3,485,1,1,485,1,0,0.8,0.2,-1.17910640747659,-1.17910640747659,750,0,0,neutral,0.1,885.211403359676,1666.73793910737
62,104,1,37,-0.5,0.5,-0.5,2,2,0.6,1,572,0,1,NaN,0,0,1,0.2,-0.573430520089776,NaN,750,0,1,congruent,0,6081.10081855723,1011.84180599734
62,104,1,38,0.5,0.5,0,1,NaN,0.4,1,511,1,1,511,1,0,0.6,NaN,-0.998099820441449,-0.998099820441449,750,0,0,neutral,1,1026.30925939834,2485.82049657677
62,104,1,39,-0.5,-0.5,-0.5,2,2,0.4,2,391,1,1,391,0,0,1,0.2,-1.83351483752671,-1.83351483752671,750,1,0,congruent,0,2044.87028326893,847.710977181085
62,104,1,40,0.5,-0.5,0,1,NaN,0.4,1,554,1,1,554,0,0,1,NaN,-0.698742772652565,-0.698742772652565,750,0,0,neutral,0,589.333100046025,164.460136604957
62,104,1,41,-0.5,-0.5,-0.5,4,4,0.4,4,616,1,1,616,0,0,0.6,0.2,-0.267111680491847,-0.267111680491847,750,1,0,congruent,0,2060.9947099541,7453.97155208894
62,104,1,42,-0.5,0.5,0,1,NaN,0.4,3,501,0,1,NaN,0,0,0.4,0.2,-1.06771773853189,NaN,750,0,1,neutral,0,10111.4419597729,5026.46494864724
62,104,1,43,0.5,-0.5,0.5,3,2,0.4,2,734,0,1,NaN,1,0,0.4,NaN,0.554379752975325,NaN,750,1,0,incongruent,1,2595.74301516308,3704.51733562335
62,104,1,44,-0.5,-0.5,0.5,2,4,0.4,2,748,1,1,748,0,0,0.4,0.2,0.651844838301938,0.651844838301938,750,0,0,incongruent,0,2631.24392659954,1829.07123368523
62,104,1,45,0.5,0.5,0.5,4,2,0.4,4,759,1,0,759,0,0,0.4,NaN,0.728424548201421,0.728424548201421,750,0,0,incongruent,0,2484.37477187204,1683.90297883877
62,104,1,46,0.5,-0.5,0,3,NaN,0.4,3,783,1,0,783,0,0,0.4,NaN,0.895507551618473,0.895507551618473,750,0,0,neutral,0,1321.32587355355,4730.09065075315
62,104,1,47,-0.5,-0.5,-0.5,4,4,0.4,4,598,1,1,598,0,0,0.4,0,-0.392423933054636,-0.392423933054636,750,1,0,congruent,0,665.076779073193,619.57328279193
62,104,1,48,-0.5,-0.5,0.5,2,1,0.4,3,868,0,0,NaN,0,0,0.4,0,1.4872598553872,NaN,750,0,1,incongruent,0,14658.2209560059,2250.89680656503
62,104,1,49,-0.5,0.5,0.5,4,2,0.4,4,824,1,0,824,0,0,0,0.2,1.18094101578927,1.18094101578927,750,0,0,incongruent,0,810.937960438998,7694.29422727005
62,104,1,50,0.5,-0.5,-0.5,3,3,0.2,3,835,1,0,835,0,0,0,NaN,1.25752072568875,1.25752072568875,750,1,0,congruent,0,4816.87746230886,4401.57190861816
62,104,1,53,0.5,-0.5,0,4,NaN,0.2,4,628,1,1,628,1,0,0.2,NaN,-0.183570178783321,-0.183570178783321,750,0,0,neutral,1,5266.67628969412,1930.3450671945
62,104,1,54,0.5,0.5,-0.5,2,2,0.2,2,519,1,1,519,1,0,0.6,NaN,-0.942405485969099,-0.942405485969099,750,1,0,congruent,1,820.650807068435,1768.66169027141
62,104,1,55,-0.5,-0.5,0,1,NaN,0.4,1,559,1,1,559,0,0,1,0.2,-0.663933813607345,-0.663933813607345,750,0,0,neutral,0,2323.27609677289,4129.21959581621
62,104,1,56,-0.5,-0.5,-0.5,3,3,0.4,3,780,1,0,780,0,0,1,0.2,0.874622176191341,0.874622176191341,750,1,0,congruent,0,839.327930632101,242.060525501095
62,104,1,57,0.5,-0.5,-0.5,4,4,0.4,4,620,1,1,620,0,0,1,NaN,-0.239264513255672,-0.239264513255672,750,1,0,congruent,0,1479.80792507581,1417.26870196815
62,104,1,58,0.5,-0.5,-0.5,3,3,0.4,2,722,0,1,NaN,0,0,0.8,NaN,0.470838251266799,NaN,750,0,1,congruent,0,3465.98942638455,6995.16916998953
62,104,1,59,0.5,-0.5,0.5,4,1,0.4,4,868,1,0,868,1,0,0.4,NaN,1.4872598553872,1.4872598553872,750,0,0,incongruent,1,1647.55972223833,4444.70104615373
62,104,1,60,-0.5,0.5,-0.5,2,2,0.4,2,540,1,1,540,1,0,0.4,0.2,-0.796207857979178,-0.796207857979178,750,1,0,congruent,0.1,3410.09527221129,1766.46108952887
62,104,1,61,0.5,0.5,0.5,3,1,0.4,3,815,1,0,815,0,0,0.6,NaN,1.11828488950788,1.11828488950788,750,0,0,incongruent,0,4455.89147680111,9039.6471685034
62,104,1,62,0.5,0.5,-0.5,4,4,0.4,4,465,1,1,465,1,0,0.6,NaN,-1.31834224365747,-1.31834224365747,750,1,0,congruent,1,4456.60637021194,3339.51252503015
62,104,1,63,0.5,-0.5,0,3,NaN,0.6,3,808,1,0,808,0,0,1,NaN,1.06955234684457,1.06955234684457,750,0,0,neutral,0,7913.70898000102,6135.64584664507
62,104,1,64,-0.5,0.5,0.5,2,4,0.6,2,819,1,0,819,0,0,1,0.4,1.14613205674405,1.14613205674405,750,0,0,incongruent,0,2944.60834539165,1844.64568403098
62,104,1,65,-0.5,-0.5,0.5,1,3,0.6,1,763,1,0,763,1,0,0.6,0.2,0.756271715437596,0.756271715437596,750,0,0,incongruent,0.1,725.06265115442,5786.79179228323
62,104,1,66,0.5,0.5,0,2,NaN,0.6,2,772,1,0,772,0,0,0.6,NaN,0.81892784171899,0.81892784171899,750,0,0,neutral,0,2301.41500656184,2945.31402824522
62,104,1,67,0.5,-0.5,-0.5,4,4,0.4,4,673,1,1,673,0,0,0.6,NaN,0.129710452623651,0.129710452623651,750,1,0,congruent,0,2958.59379556832,1207.26422030638
62,104,1,68,-0.5,-0.5,0.5,2,1,0.4,2,629,1,1,629,1,0,0.2,0.4,-0.176608386974277,-0.176608386974277,750,0,0,incongruent,0.1,1010.57202925467,1109.89466717946
62,104,1,69,0.5,-0.5,0,1,NaN,0.4,1,667,1,1,667,1,0,0.4,NaN,0.0879397017693882,0.0879397017693882,750,0,0,neutral,1,2469.56871620927,1378.22571793409
62,104,1,70,0.5,0.5,0.5,4,2,0.4,4,770,1,0,770,0,0,0.8,NaN,0.805004258100903,0.805004258100903,750,0,0,incongruent,0,1520.33684232402,2299.19709272704
62,104,1,71,-0.5,0.5,0,1,NaN,0.2,1,769,1,0,769,0,0,0.6,0.2,0.798042466291859,0.798042466291859,750,0,0,neutral,0,7160.53530268765,4374.21491372961
62,104,1,72,-0.5,0.5,-0.5,3,3,0.2,3,881,1,0,881,0,0,0.6,0.2,1.57776314890477,1.57776314890477,750,1,0,congruent,0,2106.31814767431,3070.16707015951
62,104,1,73,0.5,0.5,-0.5,1,1,0,1,625,1,1,625,1,0,0.6,NaN,-0.204455554210453,-0.204455554210453,750,1,0,congruent,1,1611.0019009781,851.394299951081
62,104,1,74,0.5,-0.5,-0.5,2,2,0.2,2,640,1,1,640,0,0,0.8,NaN,-0.100028677074795,-0.100028677074795,750,1,0,congruent,0,488.202008853627,3156.54709944754
62,104,1,76,0.5,-0.5,0.5,4,3,0.2,4,804,1,0,804,0,0,0.4,NaN,1.04170517960839,1.04170517960839,750,0,0,incongruent,0,5240.5838002537,5858.30689915198
62,104,1,77,-0.5,0.5,-0.5,2,2,0.2,1,591,0,1,NaN,0,0,0.4,0.2,-0.441156475717943,NaN,750,0,1,congruent,0,6767.37442581897,967.810271954091
62,104,1,79,0.5,0.5,0,2,NaN,0.2,2,640,1,1,640,1,0,0,NaN,-0.100028677074795,-0.100028677074795,750,0,0,neutral,1,853.863762150233,1160.66661468804
62,104,1,80,0.5,-0.5,-0.5,1,1,0.4,1,824,1,0,824,1,0,0.4,NaN,1.18094101578927,1.18094101578927,750,1,0,congruent,1,1704.64964298348,3245.63109650479
62,104,1,81,0.5,0.5,0,3,NaN,0.4,3,844,1,0,844,0,0,0.8,NaN,1.32017685197015,1.32017685197015,750,0,0,neutral,0,977.816670006629,5781.75641528113
62,104,1,83,0.5,0.5,0,1,NaN,0.2,1,637,1,1,637,1,0,0.8,NaN,-0.120914052501927,-0.120914052501927,750,0,0,neutral,1,4125.87051447673,2594.36060634233
62,104,1,85,0.5,-0.5,-0.5,1,1,0.4,1,664,1,1,664,1,0,1.2,NaN,0.0670543263422567,0.0670543263422567,750,1,0,congruent,1,5545.0830105422,2734.06540008054
62,104,1,86,-0.5,0.5,0.5,3,2,0.4,2,736,0,1,NaN,0,0,1.2,0,0.568303336593412,NaN,750,1,0,incongruent,0,882.43166355162,8032.49845350556
62,104,1,87,0.5,-0.5,0,1,NaN,0.4,1,569,1,1,569,0,0,1.2,NaN,-0.594315895516907,-0.594315895516907,750,0,0,neutral,0,1724.72049054684,805.958488451976
62,104,1,88,0.5,0.5,-0.5,3,3,0.4,3,525,1,1,525,1,0,1.2,NaN,-0.900634735114836,-0.900634735114836,750,1,0,congruent,1,3878.5167270822,2368.61679200297
62,104,1,89,0.5,-0.5,0.5,2,1,0.6,2,764,1,0,764,0,0,1.2,NaN,0.76323350724664,0.76323350724664,750,0,0,incongruent,0,2279.26136681068,5071.85902274873
62,104,1,90,0.5,0.5,0.5,4,2,0.6,4,541,1,1,541,1,0,0.8,NaN,-0.789246066170134,-0.789246066170134,750,0,0,incongruent,1,2871.42649171377,3827.99338140981
62,104,1,92,-0.5,0.5,-0.5,2,2,0.6,2,590,1,1,590,1,0,0.8,0,-0.448118267526987,-0.448118267526987,750,1,0,congruent,0.1,2106.99866527131,1908.25190216895
62,104,1,93,0.5,0.5,-0.5,3,3,0.8,4,835,0,0,NaN,0,0,1,NaN,1.25752072568875,NaN,750,0,1,congruent,0,6417.43087884817,7595.98719798114
62,104,1,94,0.5,0.5,-0.5,1,1,0.6,1,739,1,1,739,1,0,0.6,NaN,0.589188712020544,0.589188712020544,750,1,0,congruent,1,5482.92121748225,2563.22357615
62,104,1,95,0.5,-0.5,0,3,NaN,0.8,3,915,1,0,915,1,0,1,NaN,1.81446407041226,1.81446407041226,750,0,0,neutral,1,1109.60466379097,4609.30355371511
62,104,1,96,-0.5,0.5,-0.5,4,4,0.8,4,679,1,1,679,1,0,1,0.2,0.171481203477914,0.171481203477914,750,1,0,congruent,0.1,1486.2313717387,2671.2150681203
62,104,1,98,0.5,-0.5,-0.5,1,1,0.6,1,546,1,1,546,0,0,1,NaN,-0.754437107124915,-0.754437107124915,750,1,0,congruent,0,1273.84457453542,1343.84288965353
62,104,1,99,-0.5,0.5,-0.5,2,2,0.6,2,461,1,1,461,1,0,1,0.4,-1.34618941089364,-1.34618941089364,750,1,0,congruent,0.1,1752.40851588657,2652.42690495068
62,104,1,101,-0.5,0.5,0.5,2,1,0.6,2,811,1,0,811,0,0,0.6,0.6,1.0904377222717,1.0904377222717,750,0,0,incongruent,0,7308.69917727742,2143.92931679053
62,104,1,102,0.5,-0.5,-0.5,4,4,0.6,4,570,1,1,570,1,0,0.4,NaN,-0.587354103707863,-0.587354103707863,750,1,0,congruent,1,1153.24503616316,1036.13347357624
62,104,1,104,-0.5,0.5,-0.5,4,4,0.4,4,578,1,1,578,1,0,0.8,0.4,-0.531659769235513,-0.531659769235513,750,1,0,congruent,0.1,2941.10219456836,2324.73281455027
62,104,1,105,-0.5,0.5,0,3,NaN,0.4,3,804,1,0,804,0,0,0.8,0.4,1.04170517960839,1.04170517960839,750,0,0,neutral,0,2907.74545880823,2739.88289661162
62,104,1,106,-0.5,-0.5,0.5,4,3,0.4,4,721,1,1,721,1,0,0.6,0.6,0.463876459457755,0.463876459457755,750,0,0,incongruent,0.1,2705.27273039998,1566.42127859541
62,104,1,107,-0.5,-0.5,0.5,1,2,0.4,1,737,1,1,737,0,0,0.8,0.8,0.575265128402456,0.575265128402456,750,0,0,incongruent,0,6429.85815400113,3974.18263289179
62,104,1,108,0.5,-0.5,0.5,2,3,0.4,2,607,1,1,607,0,0,0.4,NaN,-0.329767806773242,-0.329767806773242,750,0,0,incongruent,0,1593.86513342547,1516.95303489829
62,104,1,109,-0.5,0.5,0,3,NaN,0.4,3,848,1,0,848,0,0,0.4,0.4,1.34802401920632,1.34802401920632,750,0,0,neutral,0,1466.94888269472,3646.13544053754
62,104,1,110,0.5,-0.5,0.5,2,1,0.2,2,741,1,1,741,0,0,0.2,NaN,0.603112295638632,0.603112295638632,750,0,0,incongruent,0,4055.4188504955,2805.33911723721
62,104,1,111,0.5,0.5,0.5,4,2,0.2,4,687,1,1,687,1,0,0.2,NaN,0.227175537950265,0.227175537950265,750,0,0,incongruent,1,5007.60905035658,1128.46622788233
62,104,1,112,-0.5,0.5,0,3,NaN,0.4,3,779,1,0,779,0,0,0.4,0.2,0.867660384382297,0.867660384382297,750,0,0,neutral,0,2392.84333542048,1397.13965344608
62,104,1,113,-0.5,-0.5,-0.5,4,4,0.4,4,624,1,1,624,1,0,0.4,0.6,-0.211417346019497,-0.211417346019497,750,1,0,congruent,0.1,1864.71262390865,1054.12541750855
62,104,1,114,-0.5,0.5,0,1,NaN,0.4,1,700,1,1,700,1,0,0.6,0.2,0.317678831467835,0.317678831467835,750,0,0,neutral,0.1,53.5488607143431,2044.93690791178
62,104,1,115,-0.5,0.5,-0.5,3,3,0.4,3,715,1,1,715,1,0,0.8,0.4,0.422105708603492,0.422105708603492,750,1,0,congruent,0.1,2783.48895631928,5151.90682823561
62,104,1,116,-0.5,-0.5,-0.5,2,2,0.6,2,671,1,1,671,1,0,1,0.6,0.115786869005563,0.115786869005563,750,1,0,congruent,0.1,2674.54006925654,457.991560633017
62,104,1,117,0.5,0.5,0.5,3,1,0.6,3,977,1,0,977,0,0,0.8,NaN,2.24609516257298,2.24609516257298,750,0,0,incongruent,0,4063.78533136465,3057.38436911121
62,104,1,118,0.5,-0.5,0.5,4,2,0.6,4,889,1,0,889,0,0,0.8,NaN,1.63345748337712,1.63345748337712,750,0,0,incongruent,0,2285.09013774156,2045.10184358304
62,104,1,120,-0.5,-0.5,0.5,3,2,0.4,3,954,1,0,954,0,0,0.4,0.8,2.08597395096497,2.08597395096497,750,0,0,incongruent,0,1659.51550449482,4735.49815344329
62,104,1,121,0.5,0.5,0,2,NaN,0.4,2,750,1,1,750,0,0,0.2,NaN,0.665768421920026,0.665768421920026,750,0,0,neutral,0,3215.04386718136,6420.68371087603
62,104,1,122,-0.5,-0.5,0.5,4,3,0.4,4,740,1,1,740,0,0,0,0.6,0.596150503829588,0.596150503829588,750,0,0,incongruent,0,1869.99850815427,2846.62014665229
62,104,1,123,0.5,0.5,0.5,2,1,0.4,2,948,1,0,948,0,0,0,NaN,2.0442032001107,2.0442032001107,750,0,0,incongruent,0,5116.68603153162,1418.47655515896
62,104,1,124,-0.5,0.5,-0.5,3,3,0.2,3,793,1,0,793,0,0,0,0.4,0.965125469708911,0.965125469708911,750,1,0,congruent,0,1316.5293000047,4188.19295097632
62,104,1,125,0.5,-0.5,-0.5,1,1,0,1,855,1,0,855,0,0,0,NaN,1.39675656186963,1.39675656186963,750,1,0,congruent,0,4038.02888717893,4392.56636425757
62,104,1,126,0.5,0.5,0.5,2,4,0,2,735,1,1,735,1,0,0,NaN,0.561341544784369,0.561341544784369,750,0,0,incongruent,1,2565.08748674682,3446.29224164173
62,104,1,127,-0.5,-0.5,0,3,NaN,0.2,3,721,1,1,721,1,0,0.4,0.4,0.463876459457755,0.463876459457755,750,0,0,neutral,0.1,8008.7984155959,4832.77869635481
62,104,1,128,-0.5,0.5,-0.5,2,2,0.2,2,553,1,1,553,1,0,0.6,0.4,-0.705704564461608,-0.705704564461608,750,1,0,congruent,0.1,1633.47408496891,1180.75371465255
62,104,1,129,0.5,0.5,0.5,1,3,0.4,4,886,0,0,NaN,0,0,0.8,NaN,1.61257210794999,NaN,750,0,1,incongruent,0,3251.62859610347,2931.13066764454
62,104,1,130,-0.5,0.5,0.5,4,1,0.4,4,786,1,0,786,0,0,0.8,0.6,0.916392927045604,0.916392927045604,750,0,0,incongruent,0,3205.73989064224,2411.65764258894
62,104,1,131,-0.5,-0.5,0,2,NaN,0.4,2,597,1,1,597,1,0,0.8,0.6,-0.39938572486368,-0.39938572486368,750,0,0,neutral,0.1,1519.34903995445,4956.97770304746
62,104,1,132,-0.5,-0.5,-0.5,1,1,0.4,1,620,1,1,620,0,0,0.6,0.6,-0.239264513255672,-0.239264513255672,750,1,0,congruent,0,1777.97736901993,425.367498165504
62,104,1,133,0.5,-0.5,-0.5,3,3,0.4,3,820,1,0,820,0,0,0.4,NaN,1.15309384855309,1.15309384855309,750,1,0,congruent,0,920.367382549664,8023.80805056868
62,104,1,134,0.5,0.5,0,1,NaN,0.4,1,770,1,0,770,0,0,0.2,NaN,0.805004258100903,0.805004258100903,750,0,0,neutral,0,2850.17003948387,3158.07960639428
62,104,1,135,0.5,-0.5,0.5,3,2,0.4,3,760,1,0,760,0,0,0.2,NaN,0.735386340010464,0.735386340010464,750,0,0,incongruent,0,2111.97153949729,3127.37062816286
62,104,1,136,-0.5,0.5,0.5,2,4,0.4,2,800,1,0,800,0,0,0.2,0.6,1.01385801237222,1.01385801237222,750,0,0,incongruent,0,1110.10787041434,1282.5265575393
62,104,1,137,0.5,-0.5,0,1,NaN,0.2,1,625,1,1,625,0,0,0,NaN,-0.204455554210453,-0.204455554210453,750,0,0,neutral,0,7111.12144859143,3206.59245543925
62,104,1,138,0.5,-0.5,0.5,4,2,0.2,4,701,1,1,701,0,0,0,NaN,0.324640623276878,0.324640623276878,750,0,0,incongruent,0,3569.59208862537,2873.50365290342
62,104,1,139,0.5,-0.5,0,1,NaN,0.2,1,609,1,1,609,0,0,0,NaN,-0.315844223155154,-0.315844223155154,750,0,0,neutral,0,1670.19949731168,7584.3400592063
62,104,1,140,0.5,-0.5,-0.5,2,2,0.2,2,652,1,1,652,0,0,0,NaN,-0.0164871753662693,-0.0164871753662693,750,1,0,congruent,0,1571.93197370719,1723.46207307347
62,104,1,141,-0.5,-0.5,0,3,NaN,0.2,1,735,0,1,NaN,0,0,0,0.4,0.561341544784369,NaN,750,0,1,neutral,0,964.303012818484,2136.03082402717
62,104,1,142,0.5,-0.5,-0.5,1,1,0.2,1,602,1,1,602,1,0,0,NaN,-0.364576765818461,-0.364576765818461,750,1,0,congruent,1,1342.75811670049,5326.51653762485
62,104,1,143,0.5,-0.5,0.5,2,4,0.2,2,707,1,1,707,0,0,0.4,NaN,0.366411374131141,0.366411374131141,750,0,0,incongruent,0,2411.45410936962,3587.06491158024
62,104,1,144,-0.5,-0.5,0,1,NaN,0.2,1,682,1,1,682,0,0,0.4,0.4,0.192366578905046,0.192366578905046,750,0,0,neutral,0,1962.50047871457,1152.04206350951
62,104,1,145,0.5,-0.5,-0.5,2,2,0.2,2,580,1,1,580,0,0,0.4,NaN,-0.517736185617425,-0.517736185617425,750,1,0,congruent,0,1301.89674778077,854.504549096828
62,104,1,146,-0.5,-0.5,-0.5,4,4,0.2,4,445,1,1,445,0,0,0.4,0.4,-1.45757807983834,-1.45757807983834,750,1,0,congruent,0,2140.84917102518,1191.96462300308
62,104,1,148,-0.5,-0.5,0,3,NaN,0.2,3,381,1,1,381,1,0,0,0,-1.90313275561715,-1.90313275561715,750,0,0,neutral,0.1,4240.24398679792,536.418552520485
62,104,1,149,0.5,-0.5,-0.5,2,2,0.2,1,545,0,1,NaN,0,0,0.2,NaN,-0.761398898933959,NaN,750,0,1,congruent,0,10616.1073707012,1680.61629391785
62,104,1,150,0.5,0.5,0.5,4,3,0.2,4,950,1,0,950,0,0,0.2,NaN,2.05812678372879,2.05812678372879,750,0,0,incongruent,0,818.579689628758,1036.34580280726
62,104,2,151,0.5,0.5,-0.5,1,1,0,1,793,1,0,793,0,0,0.2,NaN,0.965125469708911,0.965125469708911,750,1,0,congruent,0,2384.14662569128,1411.26300522943
62,104,2,152,0.5,-0.5,0,2,NaN,0,2,540,1,1,540,0,0,0.2,NaN,-0.796207857979178,-0.796207857979178,750,0,0,neutral,0,1547.7505599959,3081.90031342492
62,104,2,153,-0.5,-0.5,-0.5,1,1,0,1,457,1,1,457,0,0,0.2,0.2,-1.37403657812982,-1.37403657812982,750,1,0,congruent,0,2322.90568492889,2085.95377558955
62,104,2,154,0.5,0.5,0.5,2,3,0,2,674,1,1,674,1,0,0,NaN,0.136672244432695,0.136672244432695,750,0,0,incongruent,1,1483.08179565495,577.529661236295
62,104,2,155,-0.5,-0.5,0.5,3,1,0.2,3,868,1,0,868,0,0,0.4,0.2,1.4872598553872,1.4872598553872,750,0,0,incongruent,0,2791.69921421302,9001.8054617396
62,104,2,156,0.5,0.5,0,1,NaN,0.2,1,709,1,1,709,1,0,0.4,NaN,0.380334957749229,0.380334957749229,750,0,0,neutral,1,3928.14853926198,3360.72918337831
62,104,2,157,-0.5,-0.5,-0.5,4,4,0.4,4,646,1,1,646,0,0,0.8,0.2,-0.0582579262205323,-0.0582579262205323,750,1,0,congruent,0,952.889713455335,1177.20571047283
62,104,2,158,0.5,0.5,-0.5,2,2,0.4,2,801,1,0,801,0,0,0.8,NaN,1.02081980418126,1.02081980418126,750,1,0,congruent,0,1449.87087567981,2804.59700959066
62,104,2,159,0.5,-0.5,0.5,4,3,0.4,4,799,1,0,799,1,0,0.8,NaN,1.00689622056317,1.00689622056317,750,0,0,incongruent,1,1991.22024451413,6747.36069686873
62,104,2,160,-0.5,-0.5,0.5,2,1,0.4,1,763,0,0,NaN,0,0,0.8,0.2,0.756271715437596,NaN,750,1,0,incongruent,0,9311.16044099076,1969.12792920507
62,104,2,161,0.5,0.5,-0.5,4,4,0.4,4,727,1,1,727,1,0,0.8,NaN,0.505647210312018,0.505647210312018,750,1,0,congruent,1,5664.71926382234,929.910233432936
62,104,2,162,-0.5,-0.5,0,2,NaN,0.6,2,619,1,1,619,0,0,0.8,0.2,-0.246226305064716,-0.246226305064716,750,0,0,neutral,0,803.693371849389,1775.82952114131
62,104,2,163,0.5,-0.5,0.5,4,1,0.6,4,719,1,1,719,0,0,0.8,NaN,0.449952875839667,0.449952875839667,750,0,0,incongruent,0,3023.94739036257,1352.27251596462
62,104,2,164,-0.5,0.5,0,3,NaN,0.6,3,487,1,1,487,1,0,0.8,0.4,-1.1651828238585,-1.1651828238585,750,0,0,neutral,0.1,3400.89883115498,10525.8153991652
62,104,2,165,0.5,0.5,-0.5,2,2,0.8,2,550,1,1,550,1,0,0.6,NaN,-0.72658993988874,-0.72658993988874,750,1,0,congruent,1,1781.47459729534,2989.90059929473
62,104,2,166,-0.5,0.5,0.5,3,1,0.8,4,912,0,0,NaN,0,0,1,0.4,1.79357869498513,NaN,750,0,1,incongruent,0,1238.07561438445,2442.81956209739
62,104,2,167,0.5,0.5,-0.5,4,4,0.6,4,753,1,0,753,0,0,0.6,NaN,0.686653797347158,0.686653797347158,750,1,0,congruent,0,1090.75950799485,2767.26587784362
62,104,2,168,-0.5,-0.5,-0.5,2,2,0.6,2,606,1,1,606,1,0,0.6,0,-0.336729598582285,-0.336729598582285,750,1,0,congruent,0.1,1351.92361627843,2447.13084637834
62,104,2,169,0.5,-0.5,0,1,NaN,0.6,1,719,1,1,719,0,0,0.8,NaN,0.449952875839667,0.449952875839667,750,0,0,neutral,0,3538.31489888587,1541.35356326756
62,104,2,170,0.5,-0.5,-0.5,2,2,0.6,2,553,1,1,553,0,0,0.6,NaN,-0.705704564461608,-0.705704564461608,750,1,0,congruent,0,2653.21002396806,2081.38887846776
62,104,2,171,0.5,-0.5,0.5,1,3,0.6,1,775,1,0,775,0,0,0.2,NaN,0.839813217146122,0.839813217146122,750,0,0,incongruent,0,8098.68791341241,1857.07844646186
62,104,2,172,0.5,-0.5,-0.5,4,4,0.6,4,673,1,1,673,1,0,0.2,NaN,0.129710452623651,0.129710452623651,750,1,0,congruent,1,1704.94777132267,756.683966187339
62,104,2,173,-0.5,0.5,-0.5,3,3,0.6,3,894,1,0,894,0,0,0.6,0.4,1.66826644242234,1.66826644242234,750,1,0,congruent,0,1158.46448540777,2613.5063328076
62,104,2,174,-0.5,0.5,-0.5,4,4,0.4,4,518,1,1,518,1,0,0.4,0.2,-0.949367277778143,-0.949367277778143,750,1,0,congruent,0.1,2181.40498071522,2087.88601446108
62,104,2,175,-0.5,0.5,-0.5,3,3,0.4,3,545,1,1,545,1,0,0.6,0.4,-0.761398898933959,-0.761398898933959,750,1,0,congruent,0.1,3507.12717342067,796.871048769344
62,104,2,176,-0.5,-0.5,0.5,4,1,0.4,4,846,1,0,846,0,0,0.8,0.2,1.33410043558823,1.33410043558823,750,0,0,incongruent,0,4046.29533753633,2116.18873042961
62,104,2,177,0.5,-0.5,-0.5,3,3,0.4,3,568,1,1,568,1,0,0.8,NaN,-0.601277687325951,-0.601277687325951,750,1,0,congruent,1,6294.76525405885,2045.78070688095
62,104,2,178,-0.5,-0.5,0,2,NaN,0.4,2,900,1,0,900,0,0,0.8,0.2,1.7100371932766,1.7100371932766,750,0,0,neutral,0,5047.90391474506,1612.4964488685
62,104,2,179,-0.5,0.5,0.5,4,3,0.4,4,818,1,0,818,0,0,0.8,0.6,1.13917026493501,1.13917026493501,750,0,0,incongruent,0,690.134378727213,3084.08569338481
62,104,2,180,0.5,0.5,0.5,3,2,0.4,3,832,1,0,832,0,0,0.6,NaN,1.23663535026162,1.23663535026162,750,0,0,incongruent,0,2573.42157706764,1629.48826527442
62,104,2,181,0.5,-0.5,-0.5,1,1,0.4,1,943,1,0,943,0,0,0.4,NaN,2.00939424106549,2.00939424106549,750,1,0,congruent,0,2730.9333613256,712.425198367242
62,104,2,182,0.5,-0.5,-0.5,4,4,0.4,4,487,1,1,487,1,0,0.4,NaN,-1.1651828238585,-1.1651828238585,750,1,0,congruent,1,2623.16422386515,1614.86816675795
62,104,2,183,-0.5,-0.5,-0.5,1,1,0.4,1,810,1,0,810,0,0,0.4,0.2,1.08347593046266,1.08347593046266,750,1,0,congruent,0,3714.86696180637,1895.06135365418
62,104,2,184,-0.5,-0.5,-0.5,3,3,0.4,3,683,1,1,683,1,0,0.4,0.2,0.199328370714089,0.199328370714089,750,1,0,congruent,0.1,3372.22922544723,1511.58764683277
62,104,2,185,0.5,-0.5,0.5,2,1,0.4,2,965,1,0,965,0,0,0.6,NaN,2.16255366086445,2.16255366086445,750,0,0,incongruent,0,4084.77597392196,732.974923614916
62,104,2,186,-0.5,-0.5,-0.5,4,4,0.4,4,537,1,1,537,0,0,0.6,0.4,-0.81709323340631,-0.81709323340631,750,1,0,congruent,0,1686.05361786712,2528.41330117557
62,104,2,188,-0.5,0.5,-0.5,1,1,0.4,1,709,1,1,709,1,0,0.6,0.4,0.380334957749229,0.380334957749229,750,1,0,congruent,0.1,2431.80544116295,3155.1888046047
62,104,2,189,0.5,0.5,0.5,3,4,0.6,3,684,1,1,684,1,0,0.8,NaN,0.206290162523133,0.206290162523133,750,0,0,incongruent,1,2101.2753512599,842.512003936377
62,104,2,190,0.5,0.5,-0.5,2,2,0.6,2,807,1,0,807,0,0,1,NaN,1.06259055503552,1.06259055503552,750,1,0,congruent,0,1038.92643132171,721.381746662005
62,104,2,191,0.5,0.5,0.5,4,3,0.4,4,870,1,0,870,0,0,1,NaN,1.50118343900529,1.50118343900529,750,0,0,incongruent,0,13528.228967148,1020.70375338401
62,104,2,192,0.5,0.5,-0.5,1,1,0.4,2,758,0,0,NaN,0,0,1,NaN,0.721462756392377,NaN,750,0,1,congruent,0,3277.8882843439,2785.26244483128
62,104,2,193,0.5,0.5,0.5,2,4,0.4,2,627,1,1,627,1,0,0.6,NaN,-0.190531970592365,-0.190531970592365,750,0,0,incongruent,1,2384.6917708858,3089.5962880808
62,104,2,194,-0.5,0.5,-0.5,3,3,0.4,3,544,1,1,544,1,0,0.8,0.6,-0.768360690743003,-0.768360690743003,750,1,0,congruent,0.1,7473.11982297377,3444.77279466478
62,104,2,195,-0.5,-0.5,0,1,NaN,0.4,1,638,1,1,638,0,0,0.6,0.2,-0.113952260692883,-0.113952260692883,750,0,0,neutral,0,1502.42685098666,1599.8499516282
62,104,2,196,-0.5,-0.5,0.5,4,1,0.4,4,731,1,1,731,1,0,0.6,0.2,0.533494377548193,0.533494377548193,750,0,0,incongruent,0.1,1150.91544500359,1275.83198488177
62,104,2,197,-0.5,0.5,0,1,NaN,0.4,1,688,1,1,688,1,0,0.8,0.8,0.234137329759309,0.234137329759309,750,0,0,neutral,0.1,1578.70087370762,4006.98655875921
62,104,2,198,0.5,0.5,-0.5,2,2,0.6,2,550,1,1,550,1,0,1,NaN,-0.72658993988874,-0.72658993988874,750,1,0,congruent,1,1313.16602588903,1460.6675275216
62,104,2,199,0.5,-0.5,-0.5,3,3,0.8,3,659,1,1,659,1,0,1,NaN,0.0322453672970375,0.0322453672970375,750,1,0,congruent,1,3264.48337645964,3911.09578524283
62,104,2,200,-0.5,0.5,-0.5,1,1,0.8,1,789,1,0,789,0,0,1.2,0.8,0.937278302472735,0.937278302472735,750,1,0,congruent,0,4525.93344799886,2423.00999291291
62,104,2,201,0.5,-0.5,-0.5,3,3,0.8,3,655,1,1,655,1,0,1.2,NaN,0.00439820006086221,0.00439820006086221,750,1,0,congruent,1,1085.41869929151,2102.2560965358
62,104,2,202,0.5,-0.5,0,2,NaN,0.8,2,610,1,1,610,1,0,1.4,NaN,-0.30888243134611,-0.30888243134611,750,0,0,neutral,1,1149.36058089658,3031.74756712314
62,104,2,204,-0.5,0.5,0,2,NaN,0.8,2,641,1,1,641,1,0,1.4,0.6,-0.0930668852657514,-0.0930668852657514,750,0,0,neutral,0.1,1591.0107408376,3362.33917748627
62,104,2,206,0.5,0.5,0.5,4,3,0.8,4,728,1,1,728,1,0,1.6,NaN,0.512609002121062,0.512609002121062,750,0,0,incongruent,1,3917.6787897867,1699.20256294839
62,104,2,207,0.5,-0.5,0.5,1,2,0.8,1,900,1,0,900,1,0,1.6,NaN,1.7100371932766,1.7100371932766,750,0,0,incongruent,1,3038.00108138964,3455.11275870733
62,104,2,208,-0.5,0.5,0.5,3,4,0.8,3,481,1,1,481,1,0,1.6,0.8,-1.20695357471276,-1.20695357471276,750,0,0,incongruent,0.1,6324.67093709434,1580.07195352823
62,104,2,209,0.5,0.5,0,4,NaN,0.8,4,343,1,1,343,1,0,1.6,NaN,-2.16768084436081,-2.16768084436081,750,0,0,neutral,1,3062.24771953143,1453.2197714546
62,104,2,210,-0.5,0.5,0.5,3,4,0.8,3,511,1,1,511,1,0,1.8,0.8,-0.998099820441449,-0.998099820441449,750,0,0,incongruent,0.1,4164.35887532033,1232.1813736626
62,104,2,211,-0.5,-0.5,-0.5,1,1,1,1,354,1,1,354,1,0,1.6,0.6,-2.09110113446133,-2.09110113446133,750,1,0,congruent,0.1,2094.95953947318,2615.03898864678
62,104,2,212,0.5,-0.5,0.5,4,3,1,4,527,1,1,527,1,0,1.4,NaN,-0.886711151496748,-0.886711151496748,750,0,0,incongruent,1,2754.73552935048,1595.33409549204
62,104,2,213,0.5,-0.5,-0.5,1,1,1,1,556,1,1,556,1,0,1.4,NaN,-0.684819189034477,-0.684819189034477,750,1,0,congruent,1,5193.77396836529,2204.14813801916
62,104,2,214,0.5,-0.5,0,2,NaN,1,2,483,1,1,483,1,0,1.6,NaN,-1.19302999109468,-1.19302999109468,750,0,0,neutral,1,3974.28611574947,790.482948029133
62,104,2,215,0.5,0.5,-0.5,1,1,1,1,540,1,1,540,1,0,1.6,NaN,-0.796207857979178,-0.796207857979178,750,1,0,congruent,1,2076.34975666368,3457.53685571853
62,104,2,216,0.5,0.5,0,2,NaN,1,4,397,0,1,NaN,0,0,1.8,NaN,-1.79174408667245,NaN,750,0,1,neutral,0,3765.78538173912,2834.39694537114
62,104,2,217,-0.5,0.5,0.5,3,2,0.8,3,731,1,1,731,1,0,1.6,0.8,0.533494377548193,0.533494377548193,750,0,0,incongruent,0.1,453.482397346034,2045.55638448013
62,104,2,218,0.5,0.5,0.5,1,4,0.8,1,719,1,1,719,1,0,1.4,NaN,0.449952875839667,0.449952875839667,750,0,0,incongruent,1,2866.30418934059,3060.57087254907
62,104,2,220,0.5,0.5,0,2,NaN,0.6,2,522,1,1,522,1,0,1,NaN,-0.921520110541967,-0.921520110541967,750,0,0,neutral,1,742.639232278278,524.565995652526
62,104,2,221,-0.5,0.5,-0.5,1,1,0.6,1,520,1,1,520,1,0,1,0.8,-0.935443694160055,-0.935443694160055,750,1,0,congruent,0.1,1113.40923924563,2974.48816123958
62,104,2,222,0.5,0.5,0,2,NaN,0.8,2,624,1,1,624,1,0,1.2,NaN,-0.211417346019497,-0.211417346019497,750,0,0,neutral,1,2121.62707715981,5972.29368387803
62,104,2,223,0.5,0.5,-0.5,3,3,0.8,2,569,0,1,NaN,0,0,1.4,NaN,-0.594315895516907,NaN,750,0,1,congruent,0,3345.03184420628,1246.87308231273
62,104,2,224,0.5,0.5,0,2,NaN,0.6,2,427,1,1,427,1,0,1,NaN,-1.58289033240113,-1.58289033240113,750,0,0,neutral,1,2422.84334924879,2080.55648867624
62,104,2,225,0.5,-0.5,-0.5,4,4,0.8,4,509,1,1,509,0,0,1.4,NaN,-1.01202340405954,-1.01202340405954,750,1,0,congruent,0,681.345624744717,1885.20725449523
62,104,2,226,0.5,0.5,0.5,2,3,0.8,2,747,1,1,747,1,0,1,NaN,0.644883046492895,0.644883046492895,750,0,0,incongruent,1,1275.44479974253,9403.56921098944
62,104,2,227,-0.5,0.5,0,3,NaN,0.8,4,646,0,1,NaN,0,0,1.2,1,-0.0582579262205323,NaN,750,0,1,neutral,0,5397.51874268397,8189.65831647269
62,104,2,228,0.5,0.5,-0.5,2,2,0.6,2,610,1,1,610,1,0,0.8,NaN,-0.30888243134611,-0.30888243134611,750,1,0,congruent,1,1262.08808437629,2152.77508540715
62,104,2,229,-0.5,-0.5,0,1,NaN,0.6,1,524,1,1,524,1,0,1.2,0.6,-0.90759652692388,-0.90759652692388,750,0,0,neutral,0.1,2085.3250128082,2101.22044594962
62,104,2,230,-0.5,0.5,-0.5,3,3,0.6,3,691,1,1,691,1,0,1,0.8,0.25502270518644,0.25502270518644,750,1,0,congruent,0.1,2609.54597642991,1231.8659303075
62,104,2,231,-0.5,0.5,0,2,NaN,0.8,2,652,1,1,652,1,0,1.2,0.8,-0.0164871753662693,-0.0164871753662693,750,0,0,neutral,0.1,694.432637835106,1998.80457120956
62,104,2,232,-0.5,0.5,0.5,4,2,0.8,4,857,1,0,857,0,0,1,0.8,1.41068014548772,1.41068014548772,750,0,0,incongruent,0,2209.98067032011,2849.98613576316
62,104,2,233,-0.5,-0.5,-0.5,1,1,0.6,1,536,1,1,536,0,0,1,0.8,-0.824055025215354,-0.824055025215354,750,1,0,congruent,0,3137.60018981859,852.035617991281
62,104,2,234,0.5,0.5,-0.5,4,4,0.6,4,653,1,1,653,1,0,0.6,NaN,-0.00952538355722545,-0.00952538355722545,750,1,0,congruent,1,793.681404223674,3608.73714187061
62,104,2,236,0.5,0.5,-0.5,4,4,0.8,4,633,1,1,633,1,0,0.8,NaN,-0.148761219738102,-0.148761219738102,750,1,0,congruent,1,2911.552260171,1867.98369791839
62,104,2,237,-0.5,0.5,0,2,NaN,0.8,2,532,1,1,532,1,0,1,0.6,-0.851902192451529,-0.851902192451529,750,0,0,neutral,0.1,4050.89217442847,2328.35536300951
62,104,2,238,-0.5,0.5,-0.5,1,1,0.8,1,498,1,1,498,1,0,1.2,0.6,-1.08860311395902,-1.08860311395902,750,1,0,congruent,0.1,3800.61959437632,2393.61646993733
62,104,2,239,0.5,0.5,0.5,2,3,0.8,2,547,1,1,547,1,0,1.4,NaN,-0.747475315315872,-0.747475315315872,750,0,0,incongruent,1,1720.78719185263,1555.20188458894
62,104,2,240,0.5,-0.5,-0.5,1,1,1,1,522,1,1,522,1,0,1.4,NaN,-0.921520110541967,-0.921520110541967,750,1,0,congruent,1,1754.61941176272,1134.07993406034
62,104,2,241,-0.5,-0.5,0.5,3,2,1,3,313,1,1,313,1,0,1.6,0.8,-2.37653459863213,-2.37653459863213,750,0,0,incongruent,0.1,3959.85342839702,268.304261985472
62,104,2,242,0.5,-0.5,-0.5,4,4,1,4,323,1,1,323,1,0,1.4,NaN,-2.30691668054169,-2.30691668054169,750,1,0,congruent,1,7506.10068106482,3083.36957327207
62,104,2,243,0.5,0.5,0,1,NaN,1,1,477,1,1,477,1,0,1.6,NaN,-1.23480074194894,-1.23480074194894,750,0,0,neutral,1,1566.70166020108,734.498195348793
62,104,2,244,-0.5,0.5,-0.5,2,2,1,2,661,1,1,661,1,0,1.8,0.8,0.0461689509151252,0.0461689509151252,750,1,0,congruent,0.1,3024.43917786678,2017.60086803607
62,104,2,245,0.5,-0.5,0.5,4,1,1,4,721,1,1,721,1,0,1.6,NaN,0.463876459457755,0.463876459457755,750,0,0,incongruent,1,1805.29714864042,1247.96283475405
62,104,2,246,-0.5,-0.5,0,1,NaN,1,1,627,1,1,627,1,0,1.6,0.8,-0.190531970592365,-0.190531970592365,750,0,0,neutral,0.1,656.034223845293,1826.41025621241
62,104,2,247,-0.5,0.5,-0.5,2,2,1,2,503,1,1,503,1,0,1.6,0.8,-1.0537941549138,-1.0537941549138,750,1,0,congruent,0.1,1673.21990055562,1190.25067189791
62,104,2,248,0.5,0.5,-0.5,1,1,1,1,651,1,1,651,1,0,1.4,NaN,-0.0234489671753131,-0.0234489671753131,750,1,0,congruent,1,1569.26512257452,1642.44266335888
62,104,2,249,-0.5,0.5,0,2,NaN,1,2,511,1,1,511,1,0,1.4,0.8,-0.998099820441449,-0.998099820441449,750,0,0,neutral,0.1,1175.94322801827,2043.9956689402
62,104,2,250,0.5,0.5,-0.5,1,1,1,1,464,1,1,464,1,0,1.4,NaN,-1.32530403546651,-1.32530403546651,750,1,0,congruent,1,5671.93865801708,1656.45847270516
62,104,2,251,-0.5,-0.5,0.5,3,2,1,3,941,1,0,941,1,0,1.4,0.8,1.9954706574474,1.9954706574474,750,0,0,incongruent,0.1,820.871899978058,499.351885244976
62,104,2,252,0.5,0.5,0.5,4,1,1,4,397,1,1,397,1,0,1.4,NaN,-1.79174408667245,-1.79174408667245,750,0,0,incongruent,1,1092.43519083634,1599.31025410631
62,104,2,253,-0.5,0.5,0.5,2,4,1,2,576,1,1,576,1,0,1.6,1,-0.5455833528536,-0.5455833528536,750,0,0,incongruent,0.1,932.538040210047,3335.87532066218
62,104,2,254,0.5,0.5,0.5,4,2,1,1,600,0,1,NaN,0,0,1.4,NaN,-0.378500349436548,NaN,750,0,1,incongruent,0,15348.0592819318,1523.8185170563
62,104,2,255,0.5,-0.5,-0.5,3,3,0.8,3,538,1,1,538,1,0,1.2,NaN,-0.810131441597266,-0.810131441597266,750,1,0,congruent,1,483.444917285693,2878.00988383701
62,104,2,256,0.5,0.5,0,2,NaN,0.8,2,441,1,1,441,1,0,1.2,NaN,-1.48542524707452,-1.48542524707452,750,0,0,neutral,1,1506.65015722344,1334.56546011204
62,104,2,257,0.5,0.5,0.5,1,3,0.8,1,610,1,1,610,1,0,1.4,NaN,-0.30888243134611,-0.30888243134611,750,0,0,incongruent,1,4601.50315856249,2940.07933361199
62,104,2,258,-0.5,0.5,0.5,4,1,0.8,4,533,1,1,533,1,0,1.4,1,-0.844940400642485,-0.844940400642485,750,0,0,incongruent,0.1,1367.43996495191,1124.57771703485
62,104,2,259,0.5,0.5,-0.5,2,2,0.8,2,576,1,1,576,1,0,1.4,NaN,-0.5455833528536,-0.5455833528536,750,1,0,congruent,1,1432.42488008526,2409.0803865076
62,104,2,260,-0.5,-0.5,0,3,NaN,0.8,3,696,1,1,696,1,0,1.8,0.8,0.289831664231659,0.289831664231659,750,0,0,neutral,0.1,1799.55944341226,3174.92804380598
62,104,2,261,-0.5,0.5,-0.5,4,4,0.8,4,470,1,1,470,1,0,1.6,1,-1.28353328461225,-1.28353328461225,750,1,0,congruent,0.1,2374.66093247042,1307.67395488018
62,104,2,262,0.5,0.5,0.5,2,3,1,2,788,1,0,788,0,0,1.4,NaN,0.930316510663692,0.930316510663692,750,0,0,incongruent,0,930.133333359953,2416.50794028701
62,104,2,263,-0.5,-0.5,0,1,NaN,0.8,1,750,1,1,750,0,0,1,1,0.665768421920026,0.665768421920026,750,0,0,neutral,0,1209.92490563061,4643.52482267868
62,104,2,264,0.5,0.5,-0.5,4,4,0.8,4,485,1,1,485,1,0,0.8,NaN,-1.17910640747659,-1.17910640747659,750,1,0,congruent,1,2138.30226740557,3296.64053490222
62,104,2,265,0.5,-0.5,0.5,3,1,0.8,3,426,1,1,426,0,0,0.8,NaN,-1.58985212421018,-1.58985212421018,750,0,0,incongruent,0,1004.40289906825,465.072055940723
62,104,2,266,0.5,-0.5,0.5,1,2,0.8,1,995,1,0,995,0,0,0.6,NaN,2.37140741513576,2.37140741513576,750,0,0,incongruent,0,1910.46350431964,1854.11061247456
62,104,2,267,0.5,0.5,-0.5,4,4,0.8,4,574,1,1,574,1,0,0.4,NaN,-0.559506936471688,-0.559506936471688,750,1,0,congruent,1,3307.42364956464,2715.34060433492
62,104,2,269,-0.5,0.5,0.5,2,4,0.8,2,783,1,0,783,0,0,1,1,0.895507551618473,0.895507551618473,750,0,0,incongruent,0,2389.19872547284,1635.07030316841
62,104,2,270,0.5,0.5,-0.5,1,1,0.6,1,672,1,1,672,1,0,0.6,NaN,0.122748660814607,0.122748660814607,750,1,0,congruent,1,1557.39923518503,3742.82237132779
62,104,2,271,-0.5,-0.5,0.5,2,4,0.8,2,491,1,1,491,1,0,1,0.8,-1.13733565662233,-1.13733565662233,750,0,0,incongruent,0.1,8066.80759966019,4552.14477832931
62,104,2,272,0.5,0.5,0,4,NaN,0.8,4,473,1,1,473,1,0,1.2,NaN,-1.26264790918512,-1.26264790918512,750,0,0,neutral,1,3821.72064804724,975.203183214132
62,104,2,273,-0.5,0.5,-0.5,3,3,0.8,3,597,1,1,597,1,0,1.2,0.8,-0.39938572486368,-0.39938572486368,750,1,0,congruent,0.1,1959.85431420839,2052.57957954899
62,104,2,274,0.5,-0.5,0,1,NaN,0.8,1,606,1,1,606,1,0,1.2,NaN,-0.336729598582285,-0.336729598582285,750,0,0,neutral,1,581.142474499519,2701.63279403041
62,104,2,275,-0.5,0.5,-0.5,3,3,0.8,3,864,1,0,864,0,0,1.6,0.8,1.45941268815102,1.45941268815102,750,1,0,congruent,0,3684.72430075535,1481.34746157222
62,104,2,276,-0.5,0.5,-0.5,4,4,0.6,4,630,1,1,630,1,0,1.2,0.6,-0.169646595165234,-0.169646595165234,750,1,0,congruent,0.1,2565.64824057472,1319.39308451834
62,104,2,278,-0.5,-0.5,0,2,NaN,0.8,2,636,1,1,636,1,0,0.8,0.8,-0.127875844310971,-0.127875844310971,750,0,0,neutral,0.1,1518.46252242656,1453.83262231364
62,104,2,279,0.5,0.5,0.5,4,3,0.8,4,717,1,1,717,1,0,0.8,NaN,0.43602929222158,0.43602929222158,750,0,0,incongruent,1,1256.71273658248,1974.48736738895
62,104,2,280,-0.5,-0.5,-0.5,1,1,0.8,1,530,1,1,530,1,0,0.8,0.8,-0.865825776069617,-0.865825776069617,750,1,0,congruent,0.1,1433.02385345403,2944.4557258224
62,104,2,281,-0.5,-0.5,0,4,NaN,0.8,4,597,1,1,597,1,0,1,0.8,-0.39938572486368,-0.39938572486368,750,0,0,neutral,0.1,4132.02623805783,6992.50783978951
62,104,2,282,0.5,0.5,0.5,2,1,0.8,2,751,1,0,751,0,0,1,NaN,0.67273021372907,0.67273021372907,750,0,0,incongruent,0,4306.76807527182,3687.27093318381
62,104,2,283,-0.5,-0.5,-0.5,3,3,0.6,3,762,1,0,762,0,0,1,0.8,0.749309923628552,0.749309923628552,750,1,0,congruent,0,1740.18245585545,1505.32434110765
62,104,2,284,-0.5,-0.5,-0.5,4,4,0.6,4,672,1,1,672,1,0,0.8,0.8,0.122748660814607,0.122748660814607,750,1,0,congruent,0.1,832.288462046559,941.705402960394
62,104,2,285,-0.5,-0.5,0,1,NaN,0.6,1,957,1,0,957,1,0,0.6,0.8,2.1068593263921,2.1068593263921,750,0,0,neutral,0.1,953.796832987865,1123.21211412395
62,104,2,286,-0.5,-0.5,0.5,3,1,0.6,3,693,1,1,693,0,0,0.6,0.8,0.268946288804528,0.268946288804528,750,0,0,incongruent,0,2319.28032011747,1258.16804759752
62,104,2,287,0.5,-0.5,0,4,NaN,0.6,4,433,1,1,433,1,0,0.4,NaN,-1.54111958154687,-1.54111958154687,750,0,0,neutral,1,3404.52318633653,1927.48289091797
62,104,2,288,-0.5,0.5,-0.5,3,3,0.6,3,603,1,1,603,1,0,0.8,0.6,-0.357614974009417,-0.357614974009417,750,1,0,congruent,0.1,2322.72509118522,1339.95031108853
62,104,2,289,0.5,-0.5,-0.5,2,2,0.6,3,594,0,1,NaN,1,0,1,NaN,-0.420271100290811,NaN,750,0,1,congruent,1,6924.15822321084,2439.91489393352
62,104,2,290,-0.5,0.5,0,1,NaN,0.6,1,827,1,0,827,0,0,1.2,0.6,1.2018263912164,1.2018263912164,750,0,0,neutral,0,5264.01010558343,2912.46576406425
62,104,2,291,0.5,0.5,0.5,3,4,0.6,3,764,1,0,764,0,0,1,NaN,0.76323350724664,0.76323350724664,750,0,0,incongruent,0,3352.31820390268,4012.29011042984
62,104,2,292,0.5,0.5,0.5,1,2,0.4,1,719,1,1,719,1,0,1,NaN,0.449952875839667,0.449952875839667,750,0,0,incongruent,1,1322.11478186544,1021.2533648713
62,104,2,293,-0.5,-0.5,-0.5,3,3,0.4,3,571,1,1,571,1,0,1,0.6,-0.58039231189882,-0.58039231189882,750,1,0,congruent,0.1,4676.43404183508,4424.3996923531
62,104,2,294,-0.5,0.5,0,2,NaN,0.4,2,754,1,0,754,0,0,1,0.6,0.693615589156201,0.693615589156201,750,0,0,neutral,0,1792.99090802724,4452.11275642777
62,104,2,295,-0.5,-0.5,-0.5,1,1,0.4,1,652,1,1,652,0,0,0.6,0.6,-0.0164871753662693,-0.0164871753662693,750,1,0,congruent,0,431.365101375327,2336.03318158066
62,104,2,296,-0.5,-0.5,0.5,3,2,0.4,3,860,1,0,860,0,0,0.6,0.6,1.43156552091485,1.43156552091485,750,0,0,incongruent,0,1461.79314937024,1722.96650886771
62,104,2,297,0.5,-0.5,-0.5,1,1,0.4,1,565,1,1,565,0,0,0.6,NaN,-0.622163062753083,-0.622163062753083,750,1,0,congruent,0,1243.28163518375,3262.07368386441
62,104,2,298,-0.5,0.5,-0.5,4,4,0.4,4,635,1,1,635,1,0,0.2,0.4,-0.134837636120014,-0.134837636120014,750,1,0,congruent,0.1,1551.70010833461,2985.98263825477
62,104,2,299,-0.5,-0.5,0,3,NaN,0.4,3,796,1,0,796,0,0,0.2,0.4,0.986010845136042,0.986010845136042,750,0,0,neutral,0,6748.74034456005,230.916916415033
62,104,2,300,0.5,0.5,-0.5,2,2,0.4,2,784,1,0,784,0,0,0.2,NaN,0.902469343427516,0.902469343427516,750,1,0,congruent,0,1440.2538940048,4494.42265858804
62,104,3,301,0.5,0.5,0.5,3,1,0.4,3,799,1,0,799,0,0,0.2,NaN,1.00689622056317,1.00689622056317,750,0,0,incongruent,0,897.874665670887,2903.76930743674
62,104,3,302,0.5,-0.5,-0.5,4,4,0.4,4,431,1,1,431,0,0,0.2,NaN,-1.55504316516496,-1.55504316516496,750,1,0,congruent,0,858.730373075168,1687.18173147688
62,104,3,303,-0.5,-0.5,-0.5,1,1,0.4,1,347,1,1,347,1,0,0.2,0.2,-2.13983367712464,-2.13983367712464,750,1,0,congruent,0.1,403.384789658368,2382.81488718444
62,104,3,304,0.5,-0.5,0.5,3,4,0.4,3,706,1,1,706,0,0,0.2,NaN,0.359449582322098,0.359449582322098,750,0,0,incongruent,0,2237.21204143725,2662.20058860619
62,104,3,305,0.5,-0.5,0,1,NaN,0.4,4,589,0,1,NaN,1,0,0.2,NaN,-0.455080059336031,NaN,750,0,1,neutral,1,11101.9393885333,1111.59802405216
62,104,3,306,-0.5,-0.5,0.5,3,4,0.4,3,578,1,1,578,0,0,0.6,0.4,-0.531659769235513,-0.531659769235513,750,0,0,incongruent,0,891.977448223693,2425.91514548592
62,104,3,308,-0.5,0.5,-0.5,2,2,0.4,2,529,1,1,529,1,0,0.8,0.6,-0.87278756787866,-0.87278756787866,750,1,0,congruent,0.1,1259.55410308341,1192.43397341408
62,104,3,309,0.5,0.5,-0.5,4,4,0.6,4,531,1,1,531,1,0,0.8,NaN,-0.858863984260573,-0.858863984260573,750,1,0,congruent,1,1217.05580496368,2243.21458612552
62,104,3,310,0.5,0.5,0,3,NaN,0.6,3,671,1,1,671,1,0,1.2,NaN,0.115786869005563,0.115786869005563,750,0,0,neutral,1,4367.98103861165,5570.32856147969
62,104,3,311,0.5,0.5,0.5,1,2,0.8,1,702,1,1,702,1,0,1.2,NaN,0.331602415085922,0.331602415085922,750,0,0,incongruent,1,4215.87416982293,1043.41580207667
62,104,3,312,-0.5,0.5,0,2,NaN,1,2,473,1,1,473,1,0,1.6,0.6,-1.26264790918512,-1.26264790918512,750,0,0,neutral,0.1,2466.56115722194,987.798316097885
62,104,3,313,-0.5,-0.5,0.5,1,4,1,4,942,0,0,NaN,1,0,1.6,0.2,2.00243244925644,NaN,750,1,0,incongruent,0.1,1012.70653435642,2217.22225910892
62,104,3,315,-0.5,0.5,0.5,3,2,1,2,792,0,0,NaN,0,0,1.6,0.8,0.958163677899867,NaN,750,1,0,incongruent,0,2712.48590925611,3308.68540916727
62,104,3,316,-0.5,0.5,0.5,2,3,0.8,2,472,1,1,472,1,0,1.2,0.8,-1.26960970099416,-1.26960970099416,750,0,0,incongruent,0.1,2334.66606866577,2049.53065800505
62,104,3,317,-0.5,0.5,0,4,NaN,0.8,4,606,1,1,606,1,0,1,0.8,-0.336729598582285,-0.336729598582285,750,0,0,neutral,0.1,1425.57578863553,4364.23555647761
62,104,3,318,-0.5,-0.5,-0.5,1,1,0.8,1,750,1,1,750,1,0,1,0.4,0.665768421920026,0.665768421920026,750,1,0,congruent,0.1,2052.89914025698,6318.42748118412
62,104,3,319,0.5,-0.5,0.5,2,3,0.8,2,443,1,1,443,1,0,1,NaN,-1.47150166345643,-1.47150166345643,750,0,0,incongruent,1,2317.86581319021,1550.92322155339
62,104,3,320,-0.5,-0.5,-0.5,4,4,0.8,4,679,1,1,679,1,0,1,0.6,0.171481203477914,0.171481203477914,750,1,0,congruent,0.1,3567.26936522518,2209.70919832252
62,104,3,321,-0.5,-0.5,0,1,NaN,0.8,1,726,1,1,726,0,0,1.2,0.8,0.498685418502974,0.498685418502974,750,0,0,neutral,0,1859.48103220498,1265.48505777213
62,104,3,322,-0.5,0.5,0.5,4,1,0.8,4,909,1,0,909,0,0,1,0.8,1.772693319558,1.772693319558,750,0,0,incongruent,0,1996.55855085486,1057.50392216138
62,104,3,323,0.5,0.5,0,1,NaN,0.6,1,729,1,1,729,1,0,0.8,NaN,0.519570793930106,0.519570793930106,750,0,0,neutral,1,3031.43917306644,3753.15196196406
62,104,3,324,-0.5,-0.5,-0.5,4,4,0.6,4,470,1,1,470,1,0,1,0.6,-1.28353328461225,-1.28353328461225,750,1,0,congruent,0.1,5472.47912927974,1252.89611064536
62,104,3,325,0.5,-0.5,-0.5,3,3,0.6,3,779,1,0,779,1,0,0.8,NaN,0.867660384382297,0.867660384382297,750,1,0,congruent,1,963.038959126404,6354.58958033299
62,104,3,326,-0.5,-0.5,0.5,1,4,0.6,4,506,0,1,NaN,0,0,1,0.8,-1.03290877948667,NaN,750,1,0,incongruent,0,2057.54466076995,3233.48182668175
62,104,3,327,-0.5,-0.5,-0.5,3,3,0.6,3,749,1,1,749,1,0,1,0.6,0.658806630110982,0.658806630110982,750,1,0,congruent,0.1,845.047530575692,1677.14102003626
62,104,3,328,0.5,0.5,-0.5,2,2,0.6,2,360,1,1,360,1,0,1.2,NaN,-2.04933038360707,-2.04933038360707,750,1,0,congruent,1,1028.31977478162,1123.3377603383
62,104,3,329,0.5,-0.5,0.5,3,1,0.8,3,784,1,0,784,1,0,1.2,NaN,0.902469343427516,0.902469343427516,750,0,0,incongruent,1,897.058836370385,2274.30520915432
62,104,3,330,-0.5,-0.5,-0.5,2,2,0.8,2,737,1,1,737,1,0,1.4,0.6,0.575265128402456,0.575265128402456,750,1,0,congruent,0.1,7821.61443105475,2233.63299252259
62,104,3,331,-0.5,0.5,0.5,1,3,0.8,4,880,0,0,NaN,0,0,1.2,0.6,1.57080135709572,NaN,750,0,1,incongruent,0,863.53519131326,2884.69560549676
62,104,3,332,-0.5,0.5,-0.5,4,4,0.6,4,633,1,1,633,1,0,1.2,0.4,-0.148761219738102,-0.148761219738102,750,1,0,congruent,0.1,1618.44499862052,2224.71025678299
62,104,3,333,0.5,0.5,0,3,NaN,0.6,2,721,0,1,NaN,0,0,1.2,NaN,0.463876459457755,NaN,750,0,1,neutral,0,15142.5568463871,3905.3196194338
62,104,3,334,-0.5,0.5,-0.5,2,2,0.6,2,626,1,1,626,1,0,0.8,0.6,-0.197493762401409,-0.197493762401409,750,1,0,congruent,0.1,2375.58933753761,7539.50002857421
62,104,3,336,0.5,0.5,-0.5,2,2,0.4,2,507,1,1,507,1,0,0.4,NaN,-1.02594698767762,-1.02594698767762,750,1,0,congruent,1,1775.43672293251,3125.09733277597
62,104,3,337,-0.5,-0.5,0.5,4,1,0.6,4,709,1,1,709,1,0,0.8,0.6,0.380334957749229,0.380334957749229,750,0,0,incongruent,0.1,886.899922123786,734.783716503404
62,104,3,338,0.5,-0.5,-0.5,3,3,0.6,3,566,1,1,566,1,0,0.8,NaN,-0.615201270944039,-0.615201270944039,750,1,0,congruent,1,2972.76807888837,2414.13603236967
62,104,3,339,0.5,-0.5,0.5,2,1,0.6,2,707,1,1,707,1,0,1.2,NaN,0.366411374131141,0.366411374131141,750,0,0,incongruent,1,1133.36423883918,1799.85370565509
62,104,3,340,0.5,-0.5,-0.5,4,4,0.6,4,610,1,1,610,0,0,1.4,NaN,-0.30888243134611,-0.30888243134611,750,1,0,congruent,0,2468.59145174344,2856.05978131649
62,104,3,341,0.5,-0.5,-0.5,3,3,0.6,2,449,0,1,NaN,1,0,1.4,NaN,-1.42973091260217,NaN,750,0,1,congruent,1,3045.60340412513,1052.86431821199
62,104,3,342,0.5,0.5,-0.5,2,2,0.6,2,603,1,1,603,1,0,1.4,NaN,-0.357614974009417,-0.357614974009417,750,1,0,congruent,1,3255.48301977824,1182.77109404023
62,104,3,344,0.5,0.5,-0.5,2,2,0.6,2,588,1,1,588,1,0,1.2,NaN,-0.462041851145074,-0.462041851145074,750,1,0,congruent,1,6739.31772980738,3535.13940085962
62,104,3,345,0.5,0.5,-0.5,3,3,0.6,2,537,0,1,NaN,0,0,1.2,NaN,-0.81709323340631,NaN,750,0,1,congruent,0,3091.77818724155,5206.28516611877
62,104,3,346,0.5,0.5,0.5,1,2,0.6,2,764,0,0,NaN,0,0,1.2,NaN,0.76323350724664,NaN,750,1,0,incongruent,0,4976.57205142412,4209.28867897392
62,104,3,347,-0.5,0.5,0,2,NaN,0.4,2,510,1,1,510,1,0,0.8,0.4,-1.00506161225049,-1.00506161225049,750,0,0,neutral,0.1,407.335248070996,854.467850049766
62,104,3,348,-0.5,-0.5,-0.5,1,1,0.4,1,746,1,1,746,1,0,0.6,0.8,0.637921254683851,0.637921254683851,750,1,0,congruent,0.1,3636.84187731607,2565.4247745374
62,104,3,349,0.5,-0.5,-0.5,2,2,0.4,2,610,1,1,610,1,0,0.8,NaN,-0.30888243134611,-0.30888243134611,750,1,0,congruent,1,420.036914977326,7403.53991680214
62,104,3,350,-0.5,0.5,0,3,NaN,0.4,3,844,1,0,844,0,0,0.8,0.6,1.32017685197015,1.32017685197015,750,0,0,neutral,0,1727.35276439501,3108.18484169631
62,104,3,351,0.5,-0.5,-0.5,4,4,0.4,4,373,1,1,373,0,0,0.8,NaN,-1.9588270900895,-1.9588270900895,750,1,0,congruent,0,751.31359445747,1551.56205028833
62,104,3,352,0.5,-0.5,0.5,3,1,0.4,3,634,1,1,634,0,0,0.8,NaN,-0.141799427929058,-0.141799427929058,750,0,0,incongruent,0,2934.22208656535,8408.62058856513
62,104,3,353,0.5,-0.5,0.5,4,3,0.4,4,683,1,1,683,0,0,0.6,NaN,0.199328370714089,0.199328370714089,750,0,0,incongruent,0,923.076407460017,1519.30315441865
62,104,3,354,-0.5,0.5,0.5,2,4,0.4,2,838,1,0,838,0,0,0.4,0.6,1.27840610111588,1.27840610111588,750,0,0,incongruent,0,975.700061079244,2492.78483609102
62,104,3,355,0.5,0.5,0.5,3,1,0.2,3,681,1,1,681,1,0,0,NaN,0.185404787096002,0.185404787096002,750,0,0,incongruent,1,5858.51821311017,9259.88286716278
62,104,3,356,0.5,-0.5,0,2,NaN,0.4,2,530,1,1,530,1,0,0.4,NaN,-0.865825776069617,-0.865825776069617,750,0,0,neutral,1,1375.41488805996,2097.80585140784
62,104,3,357,0.5,0.5,-0.5,4,4,0.4,4,456,1,1,456,1,0,0.8,NaN,-1.38099836993886,-1.38099836993886,750,1,0,congruent,1,1986.41403304119,3231.88224960179
62,104,3,358,0.5,0.5,-0.5,3,3,0.6,3,557,1,1,557,1,0,1.2,NaN,-0.677857397225433,-0.677857397225433,750,1,0,congruent,1,2639.70263505264,3778.51971808629
62,104,3,359,0.5,0.5,0.5,1,4,0.6,2,738,0,1,NaN,0,0,1.6,NaN,0.5822269202115,NaN,750,0,1,incongruent,0,4392.01270691839,3347.91771004346
62,104,3,360,0.5,-0.5,0,4,NaN,0.6,4,827,1,0,827,1,0,1.6,NaN,1.2018263912164,1.2018263912164,750,0,0,neutral,1,9956.09915521442,3070.17823345635
62,104,3,361,0.5,-0.5,-0.5,2,2,0.6,2,626,1,1,626,0,0,1.6,NaN,-0.197493762401409,-0.197493762401409,750,1,0,congruent,0,1688.93447336701,2431.79800472521
62,104,3,362,0.5,0.5,0,3,NaN,0.6,3,651,1,1,651,1,0,1.2,NaN,-0.0234489671753131,-0.0234489671753131,750,0,0,neutral,1,1147.36297552628,2457.27725496008
62,104,3,363,0.5,-0.5,-0.5,1,1,0.8,4,936,0,0,NaN,1,0,1.2,NaN,1.96066169840218,NaN,750,0,1,congruent,1,7385.23650769239,7957.35055026006
62,104,3,364,-0.5,0.5,-0.5,3,3,0.8,3,590,1,1,590,1,0,1.2,0.4,-0.448118267526987,-0.448118267526987,750,1,0,congruent,0.1,2732.26459938508,1613.88336733843
62,104,3,365,-0.5,0.5,0.5,2,4,0.8,2,662,1,1,662,1,0,1.4,0.4,0.053130742724169,0.053130742724169,750,0,0,incongruent,0.1,1693.06430883873,1222.95866591627
62,104,3,366,-0.5,-0.5,0.5,4,2,0.8,4,451,1,1,451,1,0,1.2,0.8,-1.41580732898408,-1.41580732898408,750,0,0,incongruent,0.1,3535.80384661956,4464.65131303039
62,104,3,367,0.5,0.5,0,1,NaN,0.8,1,304,1,1,304,1,0,1.4,NaN,-2.43919072491352,-2.43919072491352,750,0,0,neutral,1,2901.19657137249,852.828553912453
62,104,3,368,-0.5,0.5,-0.5,2,2,0.8,2,611,1,1,611,1,0,1.4,0.6,-0.301920639537066,-0.301920639537066,750,1,0,congruent,0.1,1829.10853534049,1168.75551643819
62,104,3,369,-0.5,-0.5,-0.5,4,4,1,4,544,1,1,544,1,0,1.2,1,-0.768360690743003,-0.768360690743003,750,1,0,congruent,0.1,307.511269853523,5172.03708218264
62,104,3,370,0.5,0.5,0,2,NaN,1,2,622,1,1,622,1,0,1.2,NaN,-0.225340929637584,-0.225340929637584,750,0,0,neutral,1,894.880473489791,1146.83580033483
62,104,3,371,-0.5,0.5,-0.5,3,3,1,4,715,0,1,NaN,0,0,1.4,0.6,0.422105708603492,NaN,750,0,1,congruent,0,3623.20597026166,4072.83975812097
62,104,3,372,-0.5,0.5,0.5,4,1,0.8,4,703,1,1,703,1,0,1.2,0.6,0.338564206894966,0.338564206894966,750,0,0,incongruent,0.1,945.460620885243,1767.48910753355
62,104,3,373,0.5,-0.5,0.5,3,2,0.8,3,831,1,0,831,1,0,1,NaN,1.22967355845258,1.22967355845258,750,0,0,incongruent,1,1277.94590829204,2886.28068269431
62,104,3,374,0.5,0.5,0,4,NaN,0.8,4,679,1,1,679,1,0,1.2,NaN,0.171481203477914,0.171481203477914,750,0,0,neutral,1,1273.36991742466,2460.52979253249
62,104,3,375,0.5,0.5,-0.5,3,3,0.8,3,520,1,1,520,1,0,1.4,NaN,-0.935443694160055,-0.935443694160055,750,1,0,congruent,1,4352.14936982174,3607.64676591539
62,104,3,376,-0.5,-0.5,0,4,NaN,0.8,4,652,1,1,652,1,0,1.4,1,-0.0164871753662693,-0.0164871753662693,750,0,0,neutral,0.1,1071.97321916368,1395.05350304146
62,104,3,377,-0.5,0.5,-0.5,1,1,0.8,1,660,1,1,660,1,0,1.6,0.8,0.0392071591060814,0.0392071591060814,750,1,0,congruent,0.1,5586.87938616809,730.813662762469
62,104,3,378,0.5,0.5,0.5,4,3,0.8,4,607,1,1,607,1,0,1.6,NaN,-0.329767806773242,-0.329767806773242,750,0,0,incongruent,1,2459.73146356576,6054.34754884326
62,104,3,379,0.5,0.5,0,2,NaN,1,1,673,0,1,NaN,0,0,1.6,NaN,0.129710452623651,NaN,750,0,1,neutral,0,10238.26663717,1735.23379450331
62,104,3,381,-0.5,0.5,0,2,NaN,0.6,2,648,1,1,648,1,0,0.8,0.8,-0.0443343426024446,-0.0443343426024446,750,0,0,neutral,0.1,2321.75570401208,837.562731843341
62,104,3,382,-0.5,0.5,0.5,1,4,0.6,3,796,0,0,NaN,0,0,0.8,0.8,0.986010845136042,NaN,750,0,1,incongruent,0,3637.6020405258,1447.73177942766
62,104,3,384,0.5,0.5,0,1,NaN,0.4,1,690,1,1,690,1,0,0.4,NaN,0.248060913377396,0.248060913377396,750,0,0,neutral,1,1394.98074817975,5690.22692441011
62,104,3,385,-0.5,0.5,0.5,4,1,0.6,4,599,1,1,599,1,0,0.8,0.8,-0.385462141245592,-0.385462141245592,750,0,0,incongruent,0.1,1790.78613649311,3599.10510778532
62,104,3,386,0.5,-0.5,0,3,NaN,0.8,3,763,1,0,763,1,0,1,NaN,0.756271715437596,0.756271715437596,750,0,0,neutral,1,1516.90656519562,2086.02645996241
62,104,3,387,-0.5,-0.5,0.5,2,4,0.8,2,755,1,0,755,1,0,1.2,1,0.700577380965245,0.700577380965245,750,0,0,incongruent,0.1,3027.91055511593,4355.55150323455
62,104,3,388,0.5,0.5,-0.5,3,3,0.8,3,799,1,0,799,0,0,1.4,NaN,1.00689622056317,1.00689622056317,750,1,0,congruent,0,872.744245012547,4123.84369298756
62,104,3,389,0.5,0.5,0.5,1,4,0.6,4,647,0,1,NaN,0,0,1.2,NaN,-0.0512961344114884,NaN,750,1,0,incongruent,0,870.876701306836,3073.8968784632
62,104,3,390,0.5,0.5,-0.5,2,2,0.6,2,695,1,1,695,1,0,0.8,NaN,0.282869872422615,0.282869872422615,750,1,0,congruent,1,2970.74090582163,2731.68693426488
62,104,3,391,-0.5,0.5,0.5,1,4,0.6,1,848,1,0,848,0,0,1,0.8,1.34802401920632,1.34802401920632,750,0,0,incongruent,0,512.273164910799,5783.2751809617
62,104,3,392,0.5,0.5,0,2,NaN,0.4,2,502,1,1,502,1,0,0.6,NaN,-1.06075594672284,-1.06075594672284,750,0,0,neutral,1,2179.37544014845,4082.81198290653
62,104,3,393,-0.5,-0.5,-0.5,1,1,0.4,1,782,1,0,782,1,0,0.8,1,0.888545759809429,0.888545759809429,750,1,0,congruent,0.1,2021.57096686864,2465.65398224562
62,104,3,394,0.5,-0.5,0,4,NaN,0.4,2,877,0,0,NaN,0,0,1,NaN,1.54991598166859,NaN,750,0,1,neutral,0,1836.0183565221,535.673766677898
62,104,3,395,0.5,0.5,0.5,2,3,0.4,2,527,1,1,527,1,0,1,NaN,-0.886711151496748,-0.886711151496748,750,0,0,incongruent,1,2398.75190967158,681.738041717723
62,104,3,396,-0.5,0.5,-0.5,4,4,0.6,4,556,1,1,556,1,0,1,0.6,-0.684819189034477,-0.684819189034477,750,1,0,congruent,0.1,4824.37523244364,2305.33669960979
62,104,3,397,-0.5,-0.5,-0.5,2,2,0.8,2,499,1,1,499,1,0,1.2,1,-1.08164132214998,-1.08164132214998,750,1,0,congruent,0.1,2123.92198596587,4357.35738655729
62,104,3,398,-0.5,-0.5,0,1,NaN,0.8,1,650,1,1,650,1,0,1,1,-0.0304107589843569,-0.0304107589843569,750,0,0,neutral,0.1,3540.06059499049,4047.00431041179
62,104,3,399,0.5,-0.5,-0.5,3,3,0.8,3,737,1,1,737,1,0,1,NaN,0.575265128402456,0.575265128402456,750,1,0,congruent,1,3066.70211148488,2385.70496550759
62,104,3,400,0.5,-0.5,0,4,NaN,0.8,4,565,1,1,565,1,0,1.4,NaN,-0.622163062753083,-0.622163062753083,750,0,0,neutral,1,1213.47966906106,1518.35984105125
62,104,3,401,-0.5,-0.5,0.5,1,2,0.8,1,797,1,0,797,1,0,1.4,1,0.992972636945086,0.992972636945086,750,0,0,incongruent,0.1,6068.89942827942,4588.31623668851
62,104,3,402,-0.5,0.5,-0.5,3,3,0.8,2,652,0,1,NaN,0,0,1.4,0.6,-0.0164871753662693,NaN,750,0,1,congruent,0,3828.94993759349,2499.53063426977
62,104,3,403,-0.5,0.5,0.5,1,2,0.6,1,853,1,0,853,0,0,1.2,0.6,1.38283297825154,1.38283297825154,750,0,0,incongruent,0,864.143199969179,8423.07338945905
62,104,3,404,-0.5,0.5,0,4,NaN,0.6,4,595,1,1,595,1,0,1,0.4,-0.413309308481768,-0.413309308481768,750,0,0,neutral,0.1,943.190443077472,838.229535415495
62,104,3,405,0.5,0.5,-0.5,3,3,0.6,3,672,1,1,672,1,0,0.8,NaN,0.122748660814607,0.122748660814607,750,1,0,congruent,1,3006.8016215289,4130.14940952853
62,104,3,406,-0.5,-0.5,0.5,1,2,0.6,1,564,1,1,564,1,0,0.8,1,-0.629124854562126,-0.629124854562126,750,0,0,incongruent,0.1,1890.43059209099,4399.9850832028
62,104,3,407,-0.5,0.5,0,3,NaN,0.6,3,878,1,0,878,0,0,0.8,0.4,1.55687777347764,1.55687777347764,750,0,0,neutral,0,3511.39995493007,9426.23385992822
62,104,3,408,0.5,0.5,0.5,2,3,0.4,1,874,0,0,NaN,0,0,0.8,NaN,1.52903060624146,NaN,750,0,1,incongruent,0,1878.11492864796,1815.72125332591
62,104,3,409,0.5,-0.5,-0.5,4,4,0.4,4,541,1,1,541,0,0,0.8,NaN,-0.789246066170134,-0.789246066170134,750,1,0,congruent,0,3835.13523449688,848.520790954146
62,104,3,410,-0.5,-0.5,0.5,2,1,0.4,3,732,0,1,NaN,1,0,0.6,1,0.540456169357237,NaN,750,0,1,incongruent,0.1,2182.04876474871,628.743918993888
62,104,3,411,0.5,0.5,0.5,4,3,0.4,4,743,1,1,743,1,0,0.4,NaN,0.617035879256719,0.617035879256719,750,0,0,incongruent,1,923.916571285462,1930.97438404369
62,104,3,412,-0.5,0.5,0,3,NaN,0.6,3,839,1,0,839,0,0,0.6,0.4,1.28536789292493,1.28536789292493,750,0,0,neutral,0,1444.41774892768,7130.30286802839
62,104,3,413,-0.5,0.5,0.5,4,3,0.4,4,838,1,0,838,0,0,0.6,0.2,1.27840610111588,1.27840610111588,750,0,0,incongruent,0,738.042392990114,978.790369043259
62,104,3,414,-0.5,-0.5,0.5,2,1,0.2,2,767,1,0,767,0,0,0.6,1,0.784118882673771,0.784118882673771,750,0,0,incongruent,0,2074.84160294201,2485.48312441279
62,104,3,415,0.5,0.5,0,1,NaN,0.2,1,634,1,1,634,1,0,0.6,NaN,-0.141799427929058,-0.141799427929058,750,0,0,neutral,1,773.58857623023,3164.26491375128
62,104,3,416,-0.5,-0.5,0.5,4,1,0.4,4,493,1,1,493,0,0,0.8,0.8,-1.12341207300424,-1.12341207300424,750,0,0,incongruent,0,2781.98638943689,5365.01536864829
62,104,3,417,0.5,0.5,-0.5,2,2,0.4,2,597,1,1,597,1,0,0.4,NaN,-0.39938572486368,-0.39938572486368,750,1,0,congruent,1,2435.78861900831,1043.09299002014
62,104,3,418,0.5,0.5,0.5,1,4,0.6,1,739,1,1,739,1,0,0.8,NaN,0.589188712020544,0.589188712020544,750,0,0,incongruent,1,996.243205287953,2456.95863309019
62,104,3,419,-0.5,-0.5,-0.5,3,3,0.6,3,675,1,1,675,0,0,1.2,0.6,0.143634036241739,0.143634036241739,750,1,0,congruent,0,2331.20706585269,410.709062531167
62,104,3,420,0.5,0.5,-0.5,2,2,0.6,2,556,1,1,556,1,0,1.2,NaN,-0.684819189034477,-0.684819189034477,750,1,0,congruent,1,2262.83082503152,1765.42838247449
62,104,3,421,-0.5,-0.5,0,4,NaN,0.8,4,917,1,0,917,1,0,1.2,0.4,1.82838765403035,1.82838765403035,750,0,0,neutral,0.1,2433.75664293607,1975.20073699745
62,104,3,422,0.5,0.5,-0.5,2,2,0.8,2,978,1,0,978,0,0,1.4,NaN,2.25305695438202,2.25305695438202,750,1,0,congruent,0,2160.61941987893,3464.50249413811
62,104,3,423,0.5,-0.5,0,3,NaN,0.8,3,853,1,0,853,0,0,1,NaN,1.38283297825154,1.38283297825154,750,0,0,neutral,0,2945.76551137045,7327.8371501986
62,104,3,424,-0.5,-0.5,0.5,2,3,0.8,2,707,1,1,707,1,0,0.6,0.4,0.366411374131141,0.366411374131141,750,0,0,incongruent,0.1,2806.70100419452,1796.50096998062
62,104,3,425,-0.5,0.5,0,4,NaN,0.8,4,625,1,1,625,1,0,0.8,0.2,-0.204455554210453,-0.204455554210453,750,0,0,neutral,0.1,3237.68276425191,1409.29170793832
62,104,3,426,-0.5,0.5,-0.5,1,1,0.8,1,764,1,0,764,0,0,0.6,0.4,0.76323350724664,0.76323350724664,750,1,0,congruent,0,1366.619534848,2049.70349035046
62,104,3,427,0.5,0.5,-0.5,2,2,0.6,2,667,1,1,667,1,0,0.4,NaN,0.0879397017693882,0.0879397017693882,750,1,0,congruent,1,2595.77414839691,3388.7964226817
62,104,3,428,0.5,-0.5,0,1,NaN,0.6,1,827,1,0,827,0,0,0.8,NaN,1.2018263912164,1.2018263912164,750,0,0,neutral,0,1688.77518075508,1608.32107666268
62,104,3,429,-0.5,0.5,-0.5,4,4,0.6,4,571,1,1,571,1,0,0.8,0.2,-0.58039231189882,-0.58039231189882,750,1,0,congruent,0.1,480.365841703016,420.035556537477
62,104,3,430,-0.5,-0.5,0.5,2,1,0.6,3,972,0,0,NaN,1,0,0.8,0.4,2.21128620352776,NaN,750,0,1,incongruent,0.1,3206.31544111966,2366.32465700814
62,104,3,431,0.5,0.5,0.5,1,2,0.6,1,991,1,0,991,0,0,0.8,NaN,2.34356024789959,2.34356024789959,750,0,0,incongruent,0,2008.03098599109,2525.51370848038
62,104,3,432,0.5,0.5,-0.5,3,3,0.6,3,871,1,0,871,0,0,0.8,NaN,1.50814523081433,1.50814523081433,750,1,0,congruent,0,2494.94927587232,5571.63546595963
62,104,3,433,0.5,0.5,0.5,4,2,0.4,4,665,1,1,665,1,0,0.4,NaN,0.0740161181513005,0.0740161181513005,750,0,0,incongruent,1,431.881137232812,1736.94527131898
62,104,3,434,0.5,-0.5,-0.5,1,1,0.6,1,424,1,1,424,0,0,0.8,NaN,-1.60377570782826,-1.60377570782826,750,1,0,congruent,0,2376.52517192926,3226.28664149825
62,104,3,435,-0.5,-0.5,-0.5,4,4,0.6,3,997,0,0,NaN,0,0,0.6,0.6,2.38533099875385,NaN,750,0,1,congruent,0,5022.17091425374,1346.6563469426
62,104,3,436,0.5,-0.5,0,3,NaN,0.6,4,950,0,0,NaN,1,0,0.4,NaN,2.05812678372879,NaN,750,0,1,neutral,1,2312.0614141317,1491.32549452251
62,104,3,437,0.5,-0.5,-0.5,1,1,0.6,1,845,1,0,845,1,0,0.8,NaN,1.32713864377919,1.32713864377919,750,1,0,congruent,1,1317.01541890422,1258.37403454108
62,104,3,438,-0.5,-0.5,0,3,NaN,0.6,3,884,1,0,884,0,0,1.2,0.6,1.5986485243319,1.5986485243319,750,0,0,neutral,0,1901.38238959515,3691.55845751482
62,104,3,439,0.5,0.5,0.5,4,2,0.6,4,960,1,0,960,0,0,0.8,NaN,2.12774470181923,2.12774470181923,750,0,0,incongruent,0,1512.48319838641,1370.87559002363
62,104,3,440,0.5,-0.5,-0.5,1,1,0.4,1,653,1,1,653,1,0,0.8,NaN,-0.00952538355722545,-0.00952538355722545,750,1,0,congruent,1,1709.77287622645,951.058767777931
62,104,3,441,-0.5,0.5,0,4,NaN,0.4,4,516,1,1,516,1,0,1.2,0.4,-0.96329086139623,-0.96329086139623,750,0,0,neutral,0.1,2277.83356372157,2901.99006810439
62,104,3,442,-0.5,0.5,-0.5,2,2,0.4,2,533,1,1,533,1,0,1,0.6,-0.844940400642485,-0.844940400642485,750,1,0,congruent,0.1,2731.07755525038,878.386875596846
62,104,3,443,0.5,-0.5,0.5,3,1,0.6,3,289,1,1,289,1,0,0.8,NaN,-2.54361760204918,-2.54361760204918,750,0,0,incongruent,1,1681.73637906359,603.267335423609
62,104,3,444,0.5,0.5,0.5,4,2,0.6,4,419,1,1,419,1,0,1.2,NaN,-1.63858466687348,-1.63858466687348,750,0,0,incongruent,1,2127.72552271727,878.620297709514
62,104,3,445,-0.5,0.5,-0.5,1,1,0.8,1,845,1,0,845,0,0,1.6,0.8,1.32713864377919,1.32713864377919,750,1,0,congruent,0,3227.60702713789,6516.68459515528
62,104,3,446,0.5,0.5,0.5,2,3,0.6,2,647,1,1,647,1,0,1.2,NaN,-0.0512961344114884,-0.0512961344114884,750,0,0,incongruent,1,1878.25015758809,939.910903272865
62,104,3,447,-0.5,-0.5,-0.5,4,4,0.8,4,463,1,1,463,1,0,1.4,0.6,-1.33226582727555,-1.33226582727555,750,1,0,congruent,0.1,2536.44234655242,1147.53362126843
62,104,3,448,0.5,-0.5,-0.5,1,1,0.8,1,728,1,1,728,1,0,1.4,NaN,0.512609002121062,0.512609002121062,750,1,0,congruent,1,862.896715251367,3938.57401520399
62,104,3,449,0.5,-0.5,-0.5,4,4,0.8,3,456,0,1,NaN,1,0,1.4,NaN,-1.38099836993886,NaN,750,0,1,congruent,1,1159.02320644804,3056.76780150768
62,104,3,450,0.5,0.5,-0.5,2,2,0.8,2,612,1,1,612,1,0,1.4,NaN,-0.294958847728022,-0.294958847728022,750,1,0,congruent,1,1421.39513359155,742.655816729107
62,104,4,451,0.5,0.5,-0.5,1,1,0.8,1,686,1,1,686,1,0,1.8,NaN,0.220213746141221,0.220213746141221,750,1,0,congruent,1,1324.63123433888,4815.39856290927
62,104,4,452,0.5,0.5,0.5,2,4,0.8,2,716,1,1,716,1,0,1.8,NaN,0.429067500412536,0.429067500412536,750,0,0,incongruent,1,1295.81758063064,4986.72255911739
62,104,4,453,0.5,0.5,0,1,NaN,0.8,1,663,1,1,663,1,0,2,NaN,0.0600925345332129,0.0600925345332129,750,0,0,neutral,1,3407.90851368002,2686.38327010641
62,104,4,454,-0.5,0.5,-0.5,3,3,1,3,739,1,1,739,1,0,2,0.6,0.589188712020544,0.589188712020544,750,1,0,congruent,0.1,1357.7689664915,4199.03802766792
62,104,4,455,-0.5,-0.5,0,4,NaN,1,4,504,1,1,504,1,0,1.8,0.6,-1.04683236310476,-1.04683236310476,750,0,0,neutral,0.1,5742.8313017753,862.062659589858
62,104,4,456,0.5,-0.5,0.5,1,4,1,1,672,1,1,672,1,0,1.6,NaN,0.122748660814607,0.122748660814607,750,0,0,incongruent,1,1143.68889973421,1790.13765774008
62,104,4,457,-0.5,0.5,0.5,4,2,1,4,660,1,1,660,1,0,1.6,0.8,0.0392071591060814,0.0392071591060814,750,0,0,incongruent,0.1,1065.24110654893,3404.25882508443
62,104,4,458,-0.5,0.5,-0.5,1,1,1,1,534,1,1,534,1,0,1.4,0.8,-0.837978608833441,-0.837978608833441,750,1,0,congruent,0.1,633.411232908374,2492.22652716054
62,104,4,459,0.5,-0.5,0,2,NaN,1,2,607,1,1,607,1,0,1.2,NaN,-0.329767806773242,-0.329767806773242,750,0,0,neutral,1,3417.62299871497,2202.45711012235
62,104,4,460,0.5,0.5,-0.5,3,3,1,3,546,1,1,546,1,0,1.4,NaN,-0.754437107124915,-0.754437107124915,750,1,0,congruent,1,1312.96279819001,1669.48114225715
62,104,4,461,0.5,0.5,0.5,4,1,1,4,713,1,1,713,1,0,1.6,NaN,0.408182124985404,0.408182124985404,750,0,0,incongruent,1,1636.65099369275,1533.05028727548
62,104,4,462,-0.5,-0.5,-0.5,2,2,1,2,620,1,1,620,1,0,1.6,0.6,-0.239264513255672,-0.239264513255672,750,1,0,congruent,0.1,4197.59844470822,1692.51133809888
62,104,4,463,-0.5,0.5,-0.5,4,4,1,4,553,1,1,553,1,0,1.6,0.8,-0.705704564461608,-0.705704564461608,750,1,0,congruent,0.1,1777.69106531143,2545.45673622464
62,104,4,464,0.5,-0.5,0.5,1,2,1,1,879,1,0,879,1,0,1.6,NaN,1.56383956528668,1.56383956528668,750,0,0,incongruent,1,909.50810329563,2264.87881307568
62,104,4,465,-0.5,-0.5,0,2,NaN,1,3,694,0,1,NaN,1,0,1.6,0.6,0.275908080613572,NaN,750,0,1,neutral,0.1,2838.2942310527,3431.92056076272
62,104,4,466,-0.5,-0.5,-0.5,3,3,1,3,818,1,0,818,1,0,1.4,0.8,1.13917026493501,1.13917026493501,750,1,0,congruent,0.1,2063.3598183624,2746.31472650169
62,104,4,467,-0.5,-0.5,0.5,1,2,1,1,829,1,0,829,1,0,1.2,1,1.21574997483449,1.21574997483449,750,0,0,incongruent,0.1,5131.26505397448,1203.02711924613
62,104,4,468,-0.5,-0.5,0,4,NaN,1,4,990,1,0,990,1,0,1.2,1,2.33659845609055,2.33659845609055,750,0,0,neutral,0.1,2711.36203432382,1126.93718430967
62,104,4,469,0.5,-0.5,-0.5,2,2,1,2,511,1,1,511,1,0,1.2,NaN,-0.998099820441449,-0.998099820441449,750,1,0,congruent,1,1781.12165687388,1686.61496284027
62,104,4,470,-0.5,0.5,0,3,NaN,1,3,866,1,0,866,0,0,1.2,0.8,1.47333627176911,1.47333627176911,750,0,0,neutral,0,1954.47033339258,892.418255220187
62,104,4,471,-0.5,-0.5,-0.5,1,1,0.8,1,708,1,1,708,1,0,1,1,0.373373165940185,0.373373165940185,750,1,0,congruent,0.1,3890.80497160312,4887.04044268748
62,104,4,472,-0.5,-0.5,-0.5,2,2,0.8,2,674,1,1,674,1,0,1,1,0.136672244432695,0.136672244432695,750,1,0,congruent,0.1,1675.02047981945,1003.15265458921
62,104,4,473,0.5,0.5,0.5,3,4,0.8,1,914,0,0,NaN,0,0,1,NaN,1.80750227860321,NaN,750,0,1,incongruent,0,3782.13562076013,2399.71912568858
62,104,4,474,-0.5,0.5,0,2,NaN,0.6,2,722,1,1,722,1,0,0.8,0.8,0.470838251266799,0.470838251266799,750,0,0,neutral,0.1,2290.38943521175,1544.80840844575
62,104,4,475,-0.5,0.5,0.5,1,3,0.6,1,639,1,1,639,1,0,0.6,0.8,-0.106990468883839,-0.106990468883839,750,0,0,incongruent,0.1,1938.08854810906,2165.30186998474
62,104,4,476,-0.5,-0.5,-0.5,2,2,0.6,2,636,1,1,636,0,0,0.8,1,-0.127875844310971,-0.127875844310971,750,1,0,congruent,0,4563.81844107725,4526.78069634399
62,104,4,477,-0.5,0.5,0,1,NaN,0.6,1,909,1,0,909,0,0,0.6,0.8,1.772693319558,1.772693319558,750,0,0,neutral,0,1606.88610387222,4674.3985000799
62,104,4,478,-0.5,-0.5,0.5,3,2,0.4,3,856,1,0,856,1,0,0.4,0.8,1.40371835367867,1.40371835367867,750,0,0,incongruent,0.1,5469.87832279327,2405.99121878033
62,104,4,479,0.5,0.5,-0.5,1,1,0.4,1,617,1,1,617,1,0,0.6,NaN,-0.260149888682803,-0.260149888682803,750,1,0,congruent,1,625.559712236547,1161.29155507901
62,104,4,480,0.5,-0.5,-0.5,2,2,0.6,2,819,1,0,819,0,0,0.8,NaN,1.14613205674405,1.14613205674405,750,1,0,congruent,0,1478.7485613636,2366.13929893465
62,104,4,481,-0.5,-0.5,-0.5,4,4,0.6,4,658,1,1,658,0,0,0.6,0.8,0.0252835754879937,0.0252835754879937,750,1,0,congruent,0,1239.4478736649,1563.55021834958
62,104,4,482,-0.5,-0.5,-0.5,3,3,0.6,3,751,1,0,751,1,0,0.6,0.6,0.67273021372907,0.67273021372907,750,1,0,congruent,0.1,1354.9290893042,2904.14958728678
62,104,4,483,-0.5,-0.5,0.5,2,4,0.6,2,646,1,1,646,1,0,0.8,0.6,-0.0582579262205323,-0.0582579262205323,750,0,0,incongruent,0.1,2596.38399215511,1562.71436549272
62,104,4,484,-0.5,-0.5,0,1,NaN,0.6,1,738,1,1,738,1,0,0.8,0.6,0.5822269202115,0.5822269202115,750,0,0,neutral,0.1,700.306395988715,291.418915632485
62,104,4,486,-0.5,-0.5,0.5,2,1,0.6,2,869,1,0,869,1,0,0.6,0.8,1.49422164719624,1.49422164719624,750,0,0,incongruent,0.1,3830.13943735133,2797.70506341597
62,104,4,487,-0.5,0.5,0,4,NaN,0.6,4,614,1,1,614,1,0,0.8,0.4,-0.281035264109935,-0.281035264109935,750,0,0,neutral,0.1,551.722994087191,2346.3245018091
62,104,4,488,0.5,0.5,0.5,2,1,0.6,2,381,1,1,381,1,0,0.8,NaN,-1.90313275561715,-1.90313275561715,750,0,0,incongruent,1,2938.80810610257,957.872884656588
62,104,4,489,-0.5,-0.5,0,1,NaN,0.6,1,611,1,1,611,1,0,1,0.8,-0.301920639537066,-0.301920639537066,750,0,0,neutral,0.1,2532.77841166233,811.098363482578
62,104,4,490,-0.5,-0.5,0.5,3,2,0.6,4,791,0,0,NaN,1,0,1,1,0.951201886090823,NaN,750,0,1,incongruent,0.1,5679.59604461562,2922.54547488637
62,104,4,491,0.5,0.5,-0.5,1,1,0.6,1,576,1,1,576,1,0,1.2,NaN,-0.5455833528536,-0.5455833528536,750,1,0,congruent,1,3600.39089040826,5063.68814433645
62,104,4,492,0.5,0.5,-0.5,2,2,0.8,2,513,1,1,513,1,0,1.4,NaN,-0.984176236823362,-0.984176236823362,750,1,0,congruent,1,1718.12690814014,2849.4905067579
62,104,4,494,-0.5,-0.5,0.5,2,4,0.8,2,681,1,1,681,1,0,1.6,1,0.185404787096002,0.185404787096002,750,0,0,incongruent,0.1,587.124628268814,2955.16236050203
62,104,4,495,0.5,-0.5,0,1,NaN,0.8,1,623,1,1,623,1,0,1.6,NaN,-0.21837913782854,-0.21837913782854,750,0,0,neutral,1,1668.6445905435,3212.49593191062
62,104,4,496,0.5,-0.5,-0.5,2,2,0.8,2,593,1,1,593,1,0,1.8,NaN,-0.427232892099855,-0.427232892099855,750,1,0,congruent,1,3388.91582147297,2033.70437743353
62,104,4,497,0.5,0.5,0,4,NaN,0.8,4,474,1,1,474,1,0,1.8,NaN,-1.25568611737607,-1.25568611737607,750,0,0,neutral,1,1493.85522845345,1611.63230815855
62,104,4,498,0.5,0.5,-0.5,3,3,1,3,319,1,1,319,1,0,1.8,NaN,-2.33476384777786,-2.33476384777786,750,1,0,congruent,1,3996.15540810867,488.643182493124
62,104,4,499,0.5,-0.5,-0.5,1,1,1,1,571,1,1,571,1,0,1.8,NaN,-0.58039231189882,-0.58039231189882,750,1,0,congruent,1,834.477528111409,2814.50088019958
62,104,4,500,-0.5,0.5,0.5,3,2,1,3,439,1,1,439,1,0,2,0.6,-1.49934883069261,-1.49934883069261,750,0,0,incongruent,0.1,2762.22779370032,2367.45516941355
62,104,4,501,0.5,0.5,0,1,NaN,1,1,638,1,1,638,1,0,1.8,NaN,-0.113952260692883,-0.113952260692883,750,0,0,neutral,1,716.531928969652,2288.08902319605
62,104,4,502,0.5,-0.5,-0.5,2,2,1,2,391,1,1,391,1,0,1.8,NaN,-1.83351483752671,-1.83351483752671,750,1,0,congruent,1,3236.74098515877,4809.26002220604
62,104,4,503,0.5,0.5,0.5,1,4,1,1,675,1,1,675,1,0,1.8,NaN,0.143634036241739,0.143634036241739,750,0,0,incongruent,1,10904.0102972455,1271.19802377997
62,104,4,504,0.5,0.5,0.5,4,2,1,2,603,0,1,NaN,0,0,1.8,NaN,-0.357614974009417,NaN,750,1,0,incongruent,0,7874.99169497772,1699.56213156816
62,104,4,505,-0.5,-0.5,-0.5,1,1,0.8,1,704,1,1,704,1,0,1.4,1,0.34552599870401,0.34552599870401,750,1,0,congruent,0.1,4826.98155398596,5476.44850681509
62,104,4,506,0.5,-0.5,0,3,NaN,0.8,3,493,1,1,493,1,0,1.4,NaN,-1.12341207300424,-1.12341207300424,750,0,0,neutral,1,1555.89373291833,1794.73679293749
62,104,4,507,-0.5,0.5,0.5,1,4,0.8,1,832,1,0,832,0,0,1.4,0.6,1.23663535026162,1.23663535026162,750,0,0,incongruent,0,1838.14059075066,3391.04081376717
62,104,4,508,0.5,0.5,0.5,4,1,0.6,4,477,1,1,477,1,0,1,NaN,-1.23480074194894,-1.23480074194894,750,0,0,incongruent,1,2370.39373957488,2017.24175468351
62,104,4,509,-0.5,0.5,0.5,1,3,0.6,1,684,1,1,684,1,0,1,0.4,0.206290162523133,0.206290162523133,750,0,0,incongruent,0.1,934.837817716592,2382.27147924726
62,104,4,510,-0.5,0.5,0.5,3,2,0.6,4,710,0,1,NaN,0,0,1.2,0.6,0.387296749558273,NaN,750,0,1,incongruent,0,11686.4027645355,6119.62841704648
62,104,4,511,-0.5,0.5,0.5,2,3,0.4,2,783,1,0,783,0,0,1,0.6,0.895507551618473,0.895507551618473,750,0,0,incongruent,0,2544.02894894188,4567.82042599735
62,104,4,512,-0.5,-0.5,-0.5,4,4,0.4,4,623,1,1,623,1,0,0.6,1,-0.21837913782854,-0.21837913782854,750,1,0,congruent,0.1,4520.251791839,877.75193220787
62,104,4,513,0.5,-0.5,0,2,NaN,0.4,2,659,1,1,659,1,0,0.8,NaN,0.0322453672970375,0.0322453672970375,750,0,0,neutral,1,4514.44991182019,1951.55149998293
62,104,4,514,0.5,-0.5,-0.5,4,4,0.4,4,551,1,1,551,1,0,0.8,NaN,-0.719628148079696,-0.719628148079696,750,1,0,congruent,1,1697.21612729413,2330.37016031697
62,104,4,515,0.5,-0.5,-0.5,1,1,0.4,1,679,1,1,679,0,0,1,NaN,0.171481203477914,0.171481203477914,750,1,0,congruent,0,4943.13786351898,6673.25969116394
62,104,4,516,-0.5,0.5,0,3,NaN,0.4,2,650,0,1,NaN,0,0,1,0.4,-0.0304107589843569,NaN,750,0,1,neutral,0,2217.54165801403,1620.77185119715
62,104,4,517,-0.5,-0.5,-0.5,4,4,0.4,4,887,1,0,887,0,0,1,1,1.61953389975903,1.61953389975903,750,1,0,congruent,0,1307.27612114347,2275.67412176224
62,104,4,518,0.5,0.5,0.5,1,3,0.4,1,590,1,1,590,1,0,0.8,NaN,-0.448118267526987,-0.448118267526987,750,0,0,incongruent,1,1833.75740416242,2095.09544640143
62,104,4,519,0.5,0.5,0,4,NaN,0.4,4,694,1,1,694,1,0,0.8,NaN,0.275908080613572,0.275908080613572,750,0,0,neutral,1,1240.24833287447,765.105183825181
62,104,4,520,0.5,0.5,-0.5,1,1,0.4,1,687,1,1,687,1,0,0.8,NaN,0.227175537950265,0.227175537950265,750,1,0,congruent,1,2992.89834483819,886.620537813922
62,104,4,521,0.5,0.5,0,3,NaN,0.6,3,855,1,0,855,0,0,1.2,NaN,1.39675656186963,1.39675656186963,750,0,0,neutral,0,2411.34749254718,1651.44172214336
62,104,4,522,0.5,0.5,-0.5,2,2,0.6,2,506,1,1,506,1,0,1.2,NaN,-1.03290877948667,-1.03290877948667,750,1,0,congruent,1,2070.44564491273,533.086839129229
62,104,4,523,0.5,0.5,-0.5,1,1,0.8,1,434,1,1,434,1,0,1.6,NaN,-1.53415778973782,-1.53415778973782,750,1,0,congruent,1,3268.06721780687,3072.8191483915
62,104,4,524,0.5,-0.5,0.5,3,2,0.8,3,689,1,1,689,1,0,1.6,NaN,0.241099121568352,0.241099121568352,750,0,0,incongruent,1,3302.49485279458,3430.14590277381
62,104,4,525,0.5,-0.5,-0.5,1,1,0.8,1,618,1,1,618,1,0,1.6,NaN,-0.25318809687376,-0.25318809687376,750,1,0,congruent,1,1935.69323211529,3245.31675114294
62,104,4,526,0.5,-0.5,0,2,NaN,0.8,2,699,1,1,699,1,0,1.6,NaN,0.310717039658791,0.310717039658791,750,0,0,neutral,1,2948.01156127165,408.184183658213
62,104,4,527,-0.5,0.5,0.5,1,2,0.8,1,777,1,0,777,0,0,2,0.2,0.85373680076421,0.85373680076421,750,0,0,incongruent,0,495.733989065343,1866.22313145563
62,104,4,528,0.5,0.5,0.5,3,4,0.6,3,745,1,1,745,1,0,1.6,NaN,0.630959462874807,0.630959462874807,750,0,0,incongruent,1,2679.5594873737,930.304744980671
62,104,4,529,-0.5,-0.5,-0.5,1,1,0.6,1,547,1,1,547,0,0,1.6,0.8,-0.747475315315872,-0.747475315315872,750,1,0,congruent,0,807.960227730495,1523.85176458382
62,104,4,530,0.5,0.5,0,3,NaN,0.6,3,516,1,1,516,1,0,1.2,NaN,-0.96329086139623,-0.96329086139623,750,0,0,neutral,1,818.576223755554,3940.08880033911
62,104,4,531,-0.5,0.5,-0.5,2,2,0.8,2,703,1,1,703,1,0,1.2,0.2,0.338564206894966,0.338564206894966,750,1,0,congruent,0.1,598.141146727197,2635.08743817889
62,104,4,532,-0.5,0.5,0,3,NaN,0.8,3,655,1,1,655,1,0,1,0.2,0.00439820006086221,0.00439820006086221,750,0,0,neutral,0.1,2389.63423683242,7872.41072963193
62,104,4,533,-0.5,0.5,0.5,4,3,0.8,4,835,1,0,835,0,0,1.2,0.4,1.25752072568875,1.25752072568875,750,0,0,incongruent,0,3457.7175416625,817.262217283273
62,104,4,537,0.5,0.5,-0.5,3,3,0.6,3,719,1,1,719,1,0,0.4,NaN,0.449952875839667,0.449952875839667,750,1,0,congruent,1,4406.47401093272,1177.65680597344
62,104,4,538,0.5,0.5,-0.5,4,4,0.6,4,684,1,1,684,1,0,0.6,NaN,0.206290162523133,0.206290162523133,750,1,0,congruent,1,8179.21759223318,3239.10784524543
62,104,4,539,-0.5,0.5,0,1,NaN,0.6,1,981,1,0,981,0,0,1,0.4,2.27394232980915,2.27394232980915,750,0,0,neutral,0,2504.06439635849,3595.46042952249
62,104,4,540,-0.5,0.5,-0.5,4,4,0.4,4,513,1,1,513,1,0,1,0.4,-0.984176236823362,-0.984176236823362,750,1,0,congruent,0.1,1481.24934311217,1001.04869055064
62,104,4,541,-0.5,0.5,-0.5,2,2,0.6,1,650,0,1,NaN,0,0,1.2,0.4,-0.0304107589843569,NaN,750,0,1,congruent,0,1725.15065804065,4037.74087848305
62,104,4,542,0.5,0.5,0,1,NaN,0.6,1,617,1,1,617,1,0,1,NaN,-0.260149888682803,-0.260149888682803,750,0,0,neutral,1,4113.66207076295,2803.52864015545
62,104,4,543,0.5,0.5,0.5,2,1,0.6,2,651,1,1,651,1,0,1,NaN,-0.0234489671753131,-0.0234489671753131,750,0,0,incongruent,1,2904.64008712391,2652.84507887469
62,104,4,544,-0.5,0.5,0,1,NaN,0.6,1,653,1,1,653,1,0,1,0.2,-0.00952538355722545,-0.00952538355722545,750,0,0,neutral,0.1,4985.97952824752,5475.11506046725
62,104,4,545,-0.5,-0.5,-0.5,3,3,0.8,3,562,1,1,562,1,0,1.2,0.4,-0.643048438180214,-0.643048438180214,750,1,0,congruent,0.1,1291.96157879534,1122.65446969595
62,104,4,546,-0.5,-0.5,0,4,NaN,0.8,4,566,1,1,566,1,0,1.2,0.4,-0.615201270944039,-0.615201270944039,750,0,0,neutral,0.1,2829.09091499666,1575.645057646
62,104,4,547,-0.5,0.5,-0.5,1,1,0.8,1,566,1,1,566,1,0,1.4,0.4,-0.615201270944039,-0.615201270944039,750,1,0,congruent,0.1,2874.8897925145,2337.51582886146
62,104,4,548,-0.5,-0.5,-0.5,4,4,0.8,4,551,1,1,551,1,0,1.2,0.6,-0.719628148079696,-0.719628148079696,750,1,0,congruent,0.1,3939.06734425915,1579.88297713365
62,104,4,549,-0.5,-0.5,0,1,NaN,0.8,1,554,1,1,554,0,0,1,0.8,-0.698742772652565,-0.698742772652565,750,0,0,neutral,0,1297.4016124523,3018.84764410882
62,104,4,550,0.5,0.5,-0.5,3,3,0.8,3,526,1,1,526,1,0,0.8,NaN,-0.893672943305792,-0.893672943305792,750,1,0,congruent,1,6621.34711049919,1788.33372149854
62,104,4,551,-0.5,-0.5,0,4,NaN,1,4,668,1,1,668,1,0,1,0.8,0.094901493578432,0.094901493578432,750,0,0,neutral,0.1,2003.89076605145,1583.38226681283
62,104,4,552,0.5,-0.5,-0.5,2,2,1,2,616,1,1,616,1,0,1,NaN,-0.267111680491847,-0.267111680491847,750,1,0,congruent,1,6478.53757864276,2265.4906420917
62,104,4,553,-0.5,-0.5,0,3,NaN,1,4,685,0,1,NaN,1,0,1.2,0.8,0.213251954332177,NaN,750,0,1,neutral,0.1,2583.13360400092,596.17231898857
62,104,4,554,0.5,0.5,-0.5,4,4,1,4,463,1,1,463,1,0,1.2,NaN,-1.33226582727555,-1.33226582727555,750,1,0,congruent,1,1291.77981397092,2071.50874059325
62,104,4,555,0.5,0.5,0.5,1,2,1,1,758,1,0,758,0,0,1.6,NaN,0.721462756392377,0.721462756392377,750,0,0,incongruent,0,2654.56875184755,2283.74967487089
62,104,4,556,-0.5,0.5,0.5,2,3,0.8,2,594,1,1,594,1,0,1.2,0.6,-0.420271100290811,-0.420271100290811,750,0,0,incongruent,0.1,663.353945473444,1864.26506977324
62,104,4,557,0.5,0.5,0.5,4,1,0.8,4,582,1,1,582,1,0,1.2,NaN,-0.503812601999337,-0.503812601999337,750,0,0,incongruent,1,1623.29631013376,2900.94289817988
62,104,4,558,0.5,-0.5,-0.5,2,2,0.8,2,482,1,1,482,1,0,1.2,NaN,-1.19999178290372,-1.19999178290372,750,1,0,congruent,1,2005.53700756111,1497.98562375645
62,104,4,559,0.5,0.5,-0.5,1,1,0.8,1,513,1,1,513,1,0,1.4,NaN,-0.984176236823362,-0.984176236823362,750,1,0,congruent,1,4506.50042188323,5064.71137243048
62,104,4,560,0.5,0.5,0.5,4,2,0.8,4,578,1,1,578,1,0,1.4,NaN,-0.531659769235513,-0.531659769235513,750,0,0,incongruent,1,3264.02260519805,2191.19812842836
62,104,4,561,0.5,-0.5,0.5,1,3,0.8,3,746,0,1,NaN,1,0,1.8,NaN,0.637921254683851,NaN,750,1,0,incongruent,1,1501.41345713525,4342.94623926931
62,104,4,562,0.5,-0.5,0.5,3,1,0.8,3,866,1,0,866,1,0,2,NaN,1.47333627176911,1.47333627176911,750,0,0,incongruent,1,2138.73834471923,4131.07166986104
62,104,4,563,0.5,0.5,0,4,NaN,0.8,4,504,1,1,504,1,0,2,NaN,-1.04683236310476,-1.04683236310476,750,0,0,neutral,1,967.04191778271,3393.13472528343
62,104,4,564,0.5,-0.5,-0.5,3,3,1,3,605,1,1,605,1,0,2,NaN,-0.343691390391329,-0.343691390391329,750,1,0,congruent,1,3983.47925030269,2616.9603614772
62,104,4,565,0.5,-0.5,0,4,NaN,1,4,508,1,1,508,1,0,2,NaN,-1.01898519586858,-1.01898519586858,750,0,0,neutral,1,1204.98530825536,1353.45356667035
62,104,4,566,-0.5,0.5,-0.5,3,3,1,3,616,1,1,616,1,0,2,0.8,-0.267111680491847,-0.267111680491847,750,1,0,congruent,0.1,973.00822901944,1689.11593251158
62,104,4,567,0.5,-0.5,0.5,2,1,1,1,618,0,1,NaN,1,0,1.8,NaN,-0.25318809687376,NaN,750,1,0,incongruent,1,1075.28498859375,332.275857048898
62,104,4,568,0.5,0.5,-0.5,4,4,1,4,422,1,1,422,1,0,1.8,NaN,-1.61769929144635,-1.61769929144635,750,1,0,congruent,1,1190.84225770071,4914.12527060023
62,104,4,569,-0.5,-0.5,-0.5,2,2,1,2,522,1,1,522,1,0,1.8,0.8,-0.921520110541967,-0.921520110541967,750,1,0,congruent,0.1,2305.0954242775,3596.9442364674
62,104,4,570,0.5,0.5,0.5,1,4,1,4,404,0,1,NaN,0,0,1.6,NaN,-1.74301154400914,NaN,750,1,0,incongruent,0,3288.20325548503,4756.83551107656
62,104,4,571,-0.5,0.5,0.5,3,1,0.8,3,855,1,0,855,0,0,1.2,0.8,1.39675656186963,1.39675656186963,750,0,0,incongruent,0,1732.39203439558,123.901554111411
62,104,4,572,0.5,-0.5,0,1,NaN,0.6,3,570,0,1,NaN,0,0,1,NaN,-0.587354103707863,NaN,750,0,1,neutral,0,1284.80831339345,832.603373613884
62,104,4,573,0.5,0.5,-0.5,4,4,0.6,4,336,1,1,336,1,0,0.6,NaN,-2.21641338702412,-2.21641338702412,750,1,0,congruent,1,1724.99219988804,2156.6396993008
62,104,4,574,0.5,-0.5,0,2,NaN,0.6,2,568,1,1,568,0,0,0.6,NaN,-0.601277687325951,-0.601277687325951,750,0,0,neutral,0,698.245028618869,2586.009396863
62,104,4,575,0.5,-0.5,-0.5,1,1,0.6,1,618,1,1,618,1,0,0.4,NaN,-0.25318809687376,-0.25318809687376,750,1,0,congruent,1,5894.18693047757,3977.60502478675
62,104,4,576,-0.5,-0.5,-0.5,3,3,0.6,3,622,1,1,622,0,0,0.8,0.8,-0.225340929637584,-0.225340929637584,750,1,0,congruent,0,1170.86749199405,4708.43233315342
62,104,4,577,-0.5,-0.5,-0.5,1,1,0.6,1,626,1,1,626,1,0,0.8,0.6,-0.197493762401409,-0.197493762401409,750,1,0,congruent,0.1,3205.96968647022,1896.9225982769
62,104,4,578,-0.5,-0.5,0.5,4,2,0.6,2,709,0,1,NaN,0,0,1,0.8,0.380334957749229,NaN,750,1,0,incongruent,0,1598.00784934554,3147.30586125443
62,104,4,579,-0.5,-0.5,0.5,2,1,0.6,2,545,1,1,545,1,0,0.6,0.6,-0.761398898933959,-0.761398898933959,750,0,0,incongruent,0.1,1598.85456408244,2125.32271540756
62,104,4,580,-0.5,-0.5,-0.5,3,3,0.6,4,394,0,1,NaN,1,0,0.8,0.6,-1.81262946209958,NaN,750,0,1,congruent,0.1,4923.19650065747,2287.66157983697
62,104,4,581,0.5,0.5,-0.5,1,1,0.6,2,417,0,1,NaN,0,0,0.6,NaN,-1.65250825049157,NaN,750,0,1,congruent,0,8028.63707885039,892.698104292638
62,104,4,582,-0.5,-0.5,0.5,3,2,0.4,2,581,0,1,NaN,0,0,0.6,0.6,-0.510774393808381,NaN,750,1,0,incongruent,0,4071.40044777835,2000.58851719389
62,104,4,583,-0.5,-0.5,0,2,NaN,0.4,2,448,1,1,448,1,0,0.4,0.6,-1.43669270441121,-1.43669270441121,750,0,0,neutral,0.1,1269.72957318933,3200.27520375818
62,104,4,584,0.5,0.5,-0.5,3,3,0.4,3,557,1,1,557,1,0,0.6,NaN,-0.677857397225433,-0.677857397225433,750,1,0,congruent,1,293.676987778534,1666.80743892042
62,104,4,585,-0.5,0.5,0.5,2,4,0.4,2,605,1,1,605,1,0,0.8,0.8,-0.343691390391329,-0.343691390391329,750,0,0,incongruent,0.1,3792.30158814427,5244.62599033944
62,104,4,586,-0.5,-0.5,-0.5,1,1,0.6,1,779,1,0,779,1,0,0.8,0.6,0.867660384382297,0.867660384382297,750,1,0,congruent,0.1,3539.72701513892,1810.45072190893
62,104,4,587,-0.5,0.5,0.5,2,4,0.6,2,502,1,1,502,1,0,1,0.8,-1.06075594672284,-1.06075594672284,750,0,0,incongruent,0.1,1475.46330315937,2131.19551294285
62,104,4,588,0.5,0.5,0,3,NaN,0.8,4,615,0,1,NaN,0,0,1.2,NaN,-0.274073472300891,NaN,750,0,1,neutral,0,3142.08958688723,2334.22505857202
62,104,4,589,-0.5,0.5,0.5,1,3,0.6,3,812,0,0,NaN,0,0,1,0.8,1.09739951408074,NaN,750,1,0,incongruent,0,1908.61637539046,6729.54769767815
62,104,4,590,0.5,0.5,0,4,NaN,0.6,4,579,1,1,579,1,0,0.6,NaN,-0.524697977426469,-0.524697977426469,750,0,0,neutral,1,606.895629891014,1150.5167395472
62,104,4,591,0.5,0.5,-0.5,3,3,0.6,3,606,1,1,606,1,0,0.8,NaN,-0.336729598582285,-0.336729598582285,750,1,0,congruent,1,387.344773296424,2651.88218488181
62,104,4,592,0.5,-0.5,0,4,NaN,0.6,4,675,1,1,675,0,0,1,NaN,0.143634036241739,0.143634036241739,750,0,0,neutral,0,921.659001410379,1473.56828891271
62,104,4,593,-0.5,0.5,0.5,1,2,0.6,3,986,0,0,NaN,0,0,0.8,0.6,2.30875128885437,NaN,750,0,1,incongruent,0,5091.47673519121,8929.76718636118
62,104,4,594,-0.5,0.5,-0.5,4,4,0.4,4,386,1,1,386,1,0,0.8,0.4,-1.86832379657193,-1.86832379657193,750,1,0,congruent,0.1,2019.08739517054,1228.17010274716
62,104,4,595,-0.5,-0.5,-0.5,2,2,0.6,2,353,1,1,353,0,0,1,0.8,-2.09806292627037,-2.09806292627037,750,1,0,congruent,0,1624.52766732605,2111.56030876558
62,104,4,596,-0.5,-0.5,-0.5,4,4,0.6,4,536,1,1,536,0,0,0.6,0.6,-0.824055025215354,-0.824055025215354,750,1,0,congruent,0,3136.42631886303,2480.99597982157
62,104,4,597,-0.5,-0.5,-0.5,2,2,0.6,2,584,1,1,584,1,0,0.2,0.4,-0.48988901838125,-0.48988901838125,750,1,0,congruent,0.1,2372.59975522689,3297.38876755219
62,104,4,598,0.5,0.5,0,3,NaN,0.6,3,518,1,1,518,1,0,0.4,NaN,-0.949367277778143,-0.949367277778143,750,0,0,neutral,1,1684.47913959002,2396.92221855281
62,104,4,599,0.5,0.5,0.5,2,1,0.8,2,547,1,1,547,1,0,0.8,NaN,-0.747475315315872,-0.747475315315872,750,0,0,incongruent,1,5209.28877158698,4371.30533229277
62,104,4,600,-0.5,0.5,0.5,3,2,0.8,2,800,0,0,NaN,0,0,1,0.6,1.01385801237222,NaN,750,1,0,incongruent,0,5950.43890345971,1221.78615142377
