subid,vers,block,trial,rewlvl,efflvl,congruency,targetresp,distractorresp,rollingefflvl,resp,rt,acc,fast,accrt,isrewarded,ismiss,runavgrrgen,runavgrrcond,zrt,acczrt,rtthreshold,isdisterror,isranderror,congruence,feedback,fcz_resp_theta,fcz_resp_theta_baseline
63,104,1,1,-0.5,-0.5,-0.5,3,3,0.2,3,831,1,0,831,0,0,0,0,0.791290678256796,0.791290678256796,750,1,0,congruent,0,1190.30493311609,8058.59460499958
63,104,1,2,-0.5,-0.5,-0.5,1,1,0.2,1,894,1,0,894,1,0,0,0,1.24127877353026,1.24127877353026,750,1,0,congruent,0.1,1125.46050279727,2555.28759148094
63,104,1,3,-0.5,-0.5,0.5,4,3,0.2,2,762,0,0,NaN,0,0,0.2,0.2,0.298446573909671,NaN,750,0,1,incongruent,0,1226.20420084561,2640.965209336
63,104,1,4,0.5,-0.5,-0.5,2,2,0.2,3,696,0,1,NaN,0,0,0.2,NaN,-0.172969525900623,NaN,750,0,1,congruent,0,4379.40059311606,1706.89350954593
63,104,1,5,-0.5,0.5,-0.5,3,3,0.2,3,694,1,1,694,1,0,0.2,0,-0.187254862258511,-0.187254862258511,750,1,0,congruent,0.1,583.435899399756,1686.10776483836
63,104,1,6,0.5,0.5,-0.5,2,2,0.3,2,668,1,1,668,1,0,0.4,NaN,-0.372964234911051,-0.372964234911051,750,1,0,congruent,1,1664.4435736195,1998.30593242697
63,104,1,9,0.5,0.5,-0.5,3,3,0.5,3,780,1,0,780,0,0,0.6,NaN,0.42701460113066,0.42701460113066,750,1,0,congruent,0,646.952985976562,3594.80113688673
63,104,1,10,-0.5,0.5,-0.5,1,1,0.5,2,687,0,1,NaN,0,0,0.6,0.2,-0.237253539511117,NaN,750,0,1,congruent,0,3943.36826932728,1239.37449608708
63,104,1,11,0.5,-0.5,0.5,4,2,0.4,2,652,0,1,NaN,1,0,0.4,NaN,-0.487246925774152,NaN,750,1,0,incongruent,1,5907.66864224207,1598.53314202919
63,104,1,13,-0.5,0.5,0,2,NaN,0.2,2,868,1,0,868,0,0,0.4,0.2,1.05556940087772,1.05556940087772,750,0,0,neutral,0,1440.67643703112,4555.53131758094
63,104,1,14,-0.5,0.5,-0.5,3,3,0,2,633,0,1,NaN,0,0,0.4,0.2,-0.622957621174085,NaN,750,0,1,congruent,0,7510.5894479596,3161.46789213965
63,104,1,15,-0.5,-0.5,0.5,1,2,0,2,580,0,1,NaN,0,0,0.4,0.2,-1.00151903465811,NaN,750,1,0,incongruent,0,1286.18792231475,1105.67418835748
63,104,1,16,0.5,-0.5,-0.5,3,3,0,3,853,1,0,853,0,0,0.4,NaN,0.948429378193561,0.948429378193561,750,1,0,congruent,0,2634.64659775392,701.014008222971
63,104,1,17,-0.5,-0.5,0.5,1,4,0,1,799,1,0,799,0,0,0,0.2,0.562725296530593,0.562725296530593,750,0,0,incongruent,0,502.587601592556,1202.40382719877
63,104,1,18,-0.5,-0.5,0.5,4,3,0,3,925,0,0,NaN,0,0,0,0.2,1.46270148707752,NaN,750,1,0,incongruent,0,1949.02473795655,3060.07706540346
63,104,1,19,-0.5,-0.5,-0.5,2,2,0,2,524,1,1,524,0,0,0,0,-1.40150845267896,-1.40150845267896,750,1,0,congruent,0,1251.57572136417,915.907333820942
63,104,1,20,-0.5,0.5,-0.5,3,3,0,3,468,1,1,468,1,0,0,0.2,-1.80149787069982,-1.80149787069982,750,1,0,congruent,0.1,864.187436215282,1016.60481377952
63,104,1,21,-0.5,-0.5,0,4,NaN,0.2,2,791,0,0,NaN,0,0,0.2,0,0.505583951099042,NaN,750,0,1,neutral,0,1437.1774730182,2521.51194311904
63,104,1,22,0.5,-0.5,0.5,2,3,0.2,2,683,1,1,683,0,0,0.2,NaN,-0.265824212226893,-0.265824212226893,750,0,0,incongruent,0,3564.18992268859,3446.58451289664
63,104,1,23,-0.5,0.5,0.5,4,1,0.2,1,889,0,0,NaN,0,0,0.2,0.2,1.20556543263554,NaN,750,1,0,incongruent,0,2663.26633733699,2067.54231716181
63,104,1,24,-0.5,-0.5,0,1,NaN,0.2,1,739,1,1,739,0,0,0.2,0,0.134165205793963,0.134165205793963,750,0,0,neutral,0,967.247492101485,2133.46436319362
63,104,1,26,0.5,0.5,0.5,2,3,0.2,3,736,0,1,NaN,0,0,0,NaN,0.112737201257131,NaN,750,1,0,incongruent,0,2456.69221195684,2215.66488788226
63,104,1,27,0.5,-0.5,-0.5,1,1,0.2,2,751,0,0,NaN,0,0,0,NaN,0.219877223941289,NaN,750,0,1,congruent,0,2355.47601615678,2195.59627321368
63,104,1,28,-0.5,0.5,0.5,3,2,0.2,2,754,0,0,NaN,0,0,0,0.2,0.24130522847812,NaN,750,1,0,incongruent,0,1685.75475641033,1036.32978293247
63,104,1,29,-0.5,0.5,0,1,NaN,0.2,1,895,1,0,895,0,0,0,0.2,1.2484214417092,1.2484214417092,750,0,0,neutral,0,2143.40227718432,2661.22129487878
63,104,1,30,0.5,0.5,-0.5,2,2,0.2,2,513,1,1,513,1,0,0,NaN,-1.48007780264735,-1.48007780264735,750,1,0,congruent,1,924.581273004604,10365.7376252873
63,104,1,31,0.5,-0.5,-0.5,4,4,0.2,4,845,1,0,845,0,0,0.4,NaN,0.89128803276201,0.89128803276201,750,1,0,congruent,0,4947.98398064855,3109.89554627947
63,104,1,32,-0.5,-0.5,-0.5,2,2,0.2,2,644,1,1,644,1,0,0.4,0,-0.544388271205703,-0.544388271205703,750,1,0,congruent,0.1,926.59998908193,1004.10593148764
63,104,1,33,-0.5,-0.5,0,3,NaN,0.2,3,490,1,1,490,1,0,0.6,0.2,-1.64435917076305,-1.64435917076305,750,0,0,neutral,0.1,1309.11625048964,2550.52842742776
63,104,1,34,0.5,-0.5,-0.5,2,2,0.2,2,577,1,1,577,0,0,0.8,NaN,-1.02294703919494,-1.02294703919494,750,1,0,congruent,0,1291.77989507506,1470.61236906281
63,104,1,35,-0.5,0.5,-0.5,4,4,0.2,4,804,1,0,804,0,0,0.8,0.2,0.598438637425312,0.598438637425312,750,1,0,congruent,0,2050.35845814019,1517.78313413628
63,104,1,36,0.5,0.5,-0.5,1,1,0.2,1,761,1,0,761,0,0,0.4,NaN,0.291303905730727,0.291303905730727,750,1,0,congruent,0,4129.8102673656,7044.93555241468
63,104,1,37,0.5,0.5,-0.5,2,2,0.2,2,535,1,1,535,1,0,0.4,NaN,-1.32293910271058,-1.32293910271058,750,1,0,congruent,1,1038.13746153924,1372.68153813282
63,104,1,38,0.5,-0.5,0,3,NaN,0.4,3,643,1,1,643,1,0,0.6,NaN,-0.551530939384647,-0.551530939384647,750,0,0,neutral,1,748.885965059003,1668.68551875502
63,104,1,39,-0.5,0.5,-0.5,4,4,0.4,2,704,0,1,NaN,0,0,0.8,0.2,-0.115828180469072,NaN,750,0,1,congruent,0,1416.52707869278,7278.89596157763
63,104,1,40,0.5,-0.5,-0.5,3,3,0.4,3,573,1,1,573,1,0,0.8,NaN,-1.05151771191072,-1.05151771191072,750,1,0,congruent,1,906.049392994345,2427.99515930472
63,104,1,41,-0.5,-0.5,-0.5,1,1,0.4,1,490,1,1,490,1,0,1.2,0.4,-1.64435917076305,-1.64435917076305,750,1,0,congruent,0.1,592.382386927245,1230.07942230665
63,104,1,42,-0.5,0.5,0.5,3,2,0.4,2,604,0,1,NaN,0,0,1.4,0,-0.830094998363457,NaN,750,1,0,incongruent,0,1443.07676587193,1343.31652496373
63,104,1,43,-0.5,-0.5,0,1,NaN,0.2,3,687,0,1,NaN,1,0,1,0.6,-0.237253539511117,NaN,750,0,1,neutral,0.1,2572.77146558611,1594.51899784552
63,104,1,44,-0.5,0.5,0.5,2,1,0.2,2,697,1,1,697,1,0,0.8,0,-0.165826857721679,-0.165826857721679,750,0,0,incongruent,0.1,823.802927240813,2124.46690019138
63,104,1,45,0.5,-0.5,0.5,4,2,0.4,2,649,0,1,NaN,0,0,1,NaN,-0.508674930310984,NaN,750,1,0,incongruent,0,4143.50574129143,3474.44039765859
63,104,1,47,-0.5,0.5,0.5,4,2,0.4,3,718,0,1,NaN,0,0,0.4,0.2,-0.0158308259638582,NaN,750,0,1,incongruent,0,990.075815546029,4525.39461231069
63,104,1,48,-0.5,-0.5,0,1,NaN,0.2,2,826,0,0,NaN,1,0,0.4,0.8,0.755577337362077,NaN,750,0,1,neutral,0.1,3004.92560804185,4116.67270106181
63,104,1,51,0.5,0.5,-0.5,3,3,0.2,2,555,0,1,NaN,0,0,0.6,NaN,-1.18008573913171,NaN,750,0,1,congruent,0,4189.34182996787,2871.06463211806
63,104,1,52,0.5,-0.5,0.5,1,4,0.2,4,857,0,0,NaN,0,0,0.6,NaN,0.977000050909336,NaN,750,1,0,incongruent,0,2345.11687103273,1704.15925638174
63,104,1,53,0.5,0.5,0.5,4,1,0.2,1,853,0,0,NaN,0,0,0.6,NaN,0.948429378193561,NaN,750,1,0,incongruent,0,416.074229177869,2337.22329113352
63,104,1,55,-0.5,-0.5,-0.5,2,2,0.2,2,692,1,1,692,1,0,0.6,0.8,-0.201540198616398,-0.201540198616398,750,1,0,congruent,0.1,2398.16260987878,2328.40003486192
63,104,1,56,0.5,0.5,0.5,1,4,0.2,1,829,1,0,829,0,0,0.4,NaN,0.777005341898909,0.777005341898909,750,0,0,incongruent,0,2096.37499360509,5854.41901718021
63,104,1,57,0.5,0.5,0.5,4,1,0,1,999,0,0,NaN,0,0,0.4,NaN,1.99125893231936,NaN,750,1,0,incongruent,0,934.390731752709,1476.13969899868
63,104,1,58,-0.5,-0.5,-0.5,3,3,0,2,629,0,1,NaN,0,0,0.4,0.8,-0.65152829388986,NaN,750,0,1,congruent,0,12480.5943075712,3466.96267328011
63,104,1,61,-0.5,0.5,-0.5,3,3,0,3,679,1,1,679,1,0,0,0.2,-0.294394884942668,-0.294394884942668,750,1,0,congruent,0.1,676.040610743479,476.780956281514
63,104,1,63,-0.5,-0.5,0,3,NaN,0.2,3,706,1,1,706,1,0,0.2,0.6,-0.101542844111184,-0.101542844111184,750,0,0,neutral,0.1,900.740624219297,1550.60190096703
63,104,1,64,-0.5,0.5,-0.5,2,2,0.2,2,598,1,1,598,1,0,0.4,0.4,-0.87295100743712,-0.87295100743712,750,1,0,congruent,0.1,1447.18725181614,3635.33303571288
63,104,1,65,-0.5,0.5,0.5,1,3,0.4,3,894,0,0,NaN,0,0,0.6,0.6,1.24127877353026,NaN,750,1,0,incongruent,0,2371.87415464672,1589.12638987633
63,104,1,66,-0.5,-0.5,0.5,2,1,0.4,2,914,1,0,914,0,0,0.6,0.6,1.38413213710914,1.38413213710914,750,0,0,incongruent,0,3619.14801052729,2375.51584221464
63,104,1,67,0.5,-0.5,0.5,4,3,0.4,3,837,0,0,NaN,1,0,0.4,NaN,0.834146687330459,NaN,750,1,0,incongruent,1,1161.09137094824,3305.63719323213
63,104,1,68,-0.5,0.5,0,3,NaN,0.4,3,849,1,0,849,0,0,0.8,0.4,0.919858705477785,0.919858705477785,750,0,0,neutral,0,1684.61507365712,3691.64541398453
63,104,1,69,-0.5,-0.5,0.5,2,3,0.4,3,636,0,1,NaN,0,0,0.6,0.6,-0.601529616637254,NaN,750,1,0,incongruent,0,543.464238868793,1023.17338573521
63,104,1,70,0.5,0.5,-0.5,1,1,0.4,2,836,0,0,NaN,0,0,0.4,NaN,0.827004019151515,NaN,750,0,1,congruent,0,8546.77782417762,1849.38545575827
63,104,1,71,-0.5,-0.5,-0.5,3,3,0.2,3,598,1,1,598,0,0,0.4,0.4,-0.87295100743712,-0.87295100743712,750,1,0,congruent,0,1442.740904656,818.322705986741
63,104,1,72,-0.5,0.5,0,1,NaN,0.2,1,998,1,0,998,0,0,0.4,0.4,1.98411626414042,1.98411626414042,750,0,0,neutral,0,2532.4890590942,2325.00206336996
63,104,1,73,0.5,-0.5,-0.5,2,2,0.2,3,892,0,0,NaN,0,0,0,NaN,1.22699343717237,NaN,750,0,1,congruent,0,4632.41734519448,2774.6661430411
63,104,1,74,0.5,-0.5,0,1,NaN,0.2,3,812,0,0,NaN,0,0,0,NaN,0.655579982856863,NaN,750,0,1,neutral,0,2245.02679404365,4437.2152200116
63,104,1,75,-0.5,0.5,-0.5,3,3,0.2,3,725,1,1,725,1,0,0,0.2,0.0341678512887487,0.0341678512887487,750,1,0,congruent,0.1,2101.07464173311,1115.00697659557
63,104,1,76,-0.5,0.5,0,2,NaN,0.2,2,978,1,0,978,0,0,0.2,0.4,1.84126290056154,1.84126290056154,750,0,0,neutral,0,2873.47665247505,4404.34746372215
63,104,1,77,-0.5,-0.5,-0.5,4,4,0.2,1,867,0,0,NaN,0,0,0.2,0.2,1.04842673269877,NaN,750,0,1,congruent,0,853.810129212405,1924.38859421985
63,104,1,78,-0.5,0.5,-0.5,1,1,0.2,3,830,0,0,NaN,0,0,0.2,0.2,0.784148010077852,NaN,750,0,1,congruent,0,1105.90234371258,2273.24983301167
63,104,1,79,0.5,-0.5,0.5,4,3,0.2,3,825,0,0,NaN,0,0,0.2,NaN,0.748434669183133,NaN,750,1,0,incongruent,0,1822.75879401804,3402.17627121116
63,104,1,80,-0.5,-0.5,-0.5,2,2,0.2,2,705,1,1,705,0,0,0.2,0.2,-0.108685512290128,-0.108685512290128,750,1,0,congruent,0,4173.26420283624,5293.92591434318
63,104,1,81,0.5,-0.5,0,4,NaN,0.2,1,849,0,0,NaN,0,0,0,NaN,0.919858705477785,NaN,750,0,1,neutral,0,2180.21378406913,2220.45472092938
63,104,1,82,-0.5,-0.5,-0.5,3,3,0.2,3,905,1,0,905,0,0,0,0,1.31984812349864,1.31984812349864,750,1,0,congruent,0,2740.73715458852,3030.52654475021
63,104,1,83,-0.5,-0.5,0,2,NaN,0.2,2,664,1,1,664,0,0,0,0,-0.401534907626826,-0.401534907626826,750,0,0,neutral,0,827.824030507258,968.887964230789
63,104,1,84,-0.5,-0.5,-0.5,4,4,0.2,1,815,0,0,NaN,1,0,0,0,0.677007987393695,NaN,750,0,1,congruent,0.1,2571.54440526692,2292.87050539166
63,104,1,85,0.5,0.5,-0.5,3,3,0.2,3,739,1,1,739,1,0,0.2,NaN,0.134165205793963,0.134165205793963,750,1,0,congruent,1,3882.02865405147,1737.10814193674
63,104,1,86,0.5,-0.5,0,2,NaN,0.4,2,580,1,1,580,1,0,0.6,NaN,-1.00151903465811,-1.00151903465811,750,0,0,neutral,1,3076.2536057376,1567.58102504854
63,104,1,87,0.5,-0.5,-0.5,1,1,0.4,1,645,1,1,645,1,0,1,NaN,-0.537245603026759,-0.537245603026759,750,1,0,congruent,1,4033.1891810285,3297.07855040623
63,104,1,88,0.5,-0.5,-0.5,3,3,0.4,2,728,0,1,NaN,0,0,1.4,NaN,0.0555958558255802,NaN,750,0,1,congruent,0,1161.93966634054,2204.39646791055
63,104,1,89,0.5,0.5,-0.5,1,1,0.4,1,760,1,0,760,0,0,1.4,NaN,0.284161237551783,0.284161237551783,750,1,0,congruent,0,2322.94000620573,2878.15006203894
63,104,1,90,-0.5,-0.5,0.5,3,2,0.4,2,841,0,0,NaN,1,0,1.2,0.2,0.862717360046235,NaN,750,1,0,incongruent,0.1,4327.66061502316,1018.20478121087
63,104,1,93,0.5,0.5,-0.5,3,3,0.2,2,764,0,0,NaN,0,0,0.2,NaN,0.312731910267559,NaN,750,0,1,congruent,0,817.515493052072,2262.35341267522
63,104,1,94,-0.5,0.5,-0.5,2,2,0.2,2,755,1,0,755,0,0,0.2,0.2,0.248447896657064,0.248447896657064,750,1,0,congruent,0,2631.93761047452,1385.98999030529
63,104,1,95,-0.5,0.5,-0.5,1,1,0,3,804,0,0,NaN,0,0,0.2,0.2,0.598438637425312,NaN,750,0,1,congruent,0,2553.16863502028,1276.26634413705
63,104,1,96,-0.5,-0.5,-0.5,4,4,0,1,737,0,1,NaN,0,0,0,0.4,0.119879869436075,NaN,750,0,1,congruent,0,6188.43106652474,3217.14102032843
63,104,1,97,0.5,0.5,0,2,NaN,0,2,687,1,1,687,1,0,0,NaN,-0.237253539511117,-0.237253539511117,750,0,0,neutral,1,2752.99614684979,2046.85399593112
63,104,1,98,0.5,0.5,0.5,4,1,0.2,4,834,1,0,834,0,0,0.4,NaN,0.812718682793628,0.812718682793628,750,0,0,incongruent,0,2322.81675245464,4496.70437542326
63,104,1,99,-0.5,0.5,0.5,2,3,0.2,2,773,1,0,773,0,0,0.4,0.2,0.377015923878053,0.377015923878053,750,0,0,incongruent,0,6072.40412942419,4011.12241317304
63,104,1,101,0.5,0.5,0,3,NaN,0.2,2,612,0,1,NaN,0,0,0.4,NaN,-0.772953652931906,NaN,750,0,1,neutral,0,919.146801493301,3373.97494140578
63,104,1,103,-0.5,0.5,0,3,NaN,0.2,2,569,0,1,NaN,0,0,0,0,-1.08008838462649,NaN,750,0,1,neutral,0,6878.76505771969,947.312492436986
63,104,1,104,0.5,0.5,0.5,2,4,0,1,945,0,0,NaN,0,0,0,NaN,1.60555485065639,NaN,750,0,1,incongruent,0,1239.9364395536,703.314412711531
63,104,1,105,-0.5,0.5,-0.5,3,3,0,2,595,0,1,NaN,0,0,0,0,-0.894379011973951,NaN,750,0,1,congruent,0,6167.15979231733,2209.77921092271
63,104,1,106,0.5,-0.5,0,1,NaN,0,4,742,0,1,NaN,0,0,0,NaN,0.155593210330794,NaN,750,0,1,neutral,0,2286.45392141588,4823.36893787378
63,104,1,107,-0.5,-0.5,-0.5,2,2,0,2,616,1,1,616,0,0,0,0.4,-0.74438298021613,-0.74438298021613,750,1,0,congruent,0,1495.5159848547,2205.6205247817
63,104,1,108,0.5,0.5,0,3,NaN,0,3,468,1,1,468,1,0,0,NaN,-1.80149787069982,-1.80149787069982,750,0,0,neutral,1,1007.68784935252,458.289251693819
63,104,1,109,0.5,0.5,-0.5,4,4,0.2,1,738,0,1,NaN,0,0,0.4,NaN,0.127022537615019,NaN,750,0,1,congruent,0,2842.96717606182,4344.23574756547
63,104,1,110,0.5,-0.5,0.5,1,2,0.2,2,755,0,0,NaN,1,0,0.4,NaN,0.248447896657064,NaN,750,1,0,incongruent,1,1273.83235190461,2143.33704601877
63,104,1,111,0.5,0.5,0,2,NaN,0.2,2,621,1,1,621,1,0,0.8,NaN,-0.708669639321411,-0.708669639321411,750,0,0,neutral,1,4795.42700074573,2461.41966718305
63,104,1,112,0.5,0.5,0.5,1,2,0.4,2,675,0,1,NaN,0,0,1.2,NaN,-0.322965557658444,NaN,750,1,0,incongruent,0,2244.1423526489,1255.36816336051
63,104,1,114,-0.5,-0.5,0.5,1,2,0.4,2,704,0,1,NaN,1,0,0.8,0.4,-0.115828180469072,NaN,750,1,0,incongruent,0.1,1827.51133585651,1590.36791692911
63,104,1,115,-0.5,-0.5,0,2,NaN,0.4,2,651,1,1,651,0,0,1,0.4,-0.494389593953096,-0.494389593953096,750,0,0,neutral,0,751.25027768808,1900.8313651526
63,104,1,116,0.5,0.5,-0.5,1,1,0.4,3,726,0,1,NaN,0,0,0.6,NaN,0.0413105194676925,NaN,750,0,1,congruent,0,847.683414214568,1427.20622981115
63,104,1,118,-0.5,0.5,-0.5,1,1,0.4,4,835,0,0,NaN,0,0,0.2,0,0.819861350972572,NaN,750,0,1,congruent,0,4781.99509594577,2233.19646521399
63,104,1,119,0.5,-0.5,0,2,NaN,0.2,2,646,1,1,646,0,0,0.2,NaN,-0.530102934847815,-0.530102934847815,750,0,0,neutral,0,1975.26848649207,1822.01388403119
63,104,1,121,-0.5,-0.5,-0.5,3,3,0.2,3,870,1,0,870,0,0,0,0.2,1.06985473723561,1.06985473723561,750,1,0,congruent,0,2192.38454309755,2452.32862697933
63,104,1,123,0.5,-0.5,0.5,4,2,0.2,2,745,0,1,NaN,0,0,0,NaN,0.177021214867626,NaN,750,1,0,incongruent,0,2593.45152587974,1095.30542625771
63,104,1,124,-0.5,-0.5,-0.5,1,1,0.2,4,705,0,1,NaN,0,0,0,0.2,-0.108685512290128,NaN,750,0,1,congruent,0,1854.40628254468,376.29274332781
63,104,1,125,0.5,-0.5,0,2,NaN,0.2,2,555,1,1,555,0,0,0,NaN,-1.18008573913171,-1.18008573913171,750,0,0,neutral,0,3554.89794004283,1349.83149572511
63,104,1,126,0.5,-0.5,-0.5,3,3,0.2,3,550,1,1,550,0,0,0,NaN,-1.21579908002642,-1.21579908002642,750,1,0,congruent,0,2993.56900081425,1498.16925457401
63,104,1,127,0.5,-0.5,0,1,NaN,0.2,4,891,0,0,NaN,0,0,0,NaN,1.21985076899343,NaN,750,0,1,neutral,0,5894.24326030653,2741.03956971842
63,104,1,128,0.5,-0.5,-0.5,3,3,0.2,3,777,1,0,777,0,0,0,NaN,0.405586596593829,0.405586596593829,750,1,0,congruent,0,746.063047760471,1742.72958363769
63,104,1,129,-0.5,0.5,0.5,4,2,0.2,2,666,0,1,NaN,0,0,0,0,-0.387249571268938,NaN,750,1,0,incongruent,0,1486.44252334721,1406.52794738612
63,104,1,130,0.5,-0.5,0,1,NaN,0,3,801,0,0,NaN,0,0,0,NaN,0.577010632888481,NaN,750,0,1,neutral,0,2573.09819402672,2816.10673135768
63,104,1,131,-0.5,-0.5,0.5,2,3,0,1,800,0,0,NaN,0,0,0,0.2,0.569867964709537,NaN,750,0,1,incongruent,0,5382.63684018567,1666.19429043509
63,104,1,132,-0.5,0.5,0.5,4,2,0,2,582,0,1,NaN,0,0,0,0,-0.987233698300221,NaN,750,1,0,incongruent,0,2988.37428623812,2571.48807016967
63,104,1,134,-0.5,0.5,0,3,NaN,0,1,623,0,1,NaN,0,0,0,0,-0.694384302963523,NaN,750,0,1,neutral,0,5693.34975395969,1595.15991903045
63,104,1,135,0.5,0.5,0.5,4,1,0,3,792,0,0,NaN,0,0,0,NaN,0.512726619277986,NaN,750,0,1,incongruent,0,2912.05723509599,2155.59250603482
63,104,1,136,-0.5,-0.5,-0.5,2,2,0,2,547,1,1,547,0,0,0,0,-1.23722708456326,-1.23722708456326,750,1,0,congruent,0,3137.52921421525,2208.21665616207
63,104,1,137,-0.5,0.5,-0.5,4,4,0,1,936,0,0,NaN,0,0,0,0,1.5412708370459,NaN,750,0,1,congruent,0,3434.93975409509,4356.28613988277
63,104,1,139,-0.5,-0.5,-0.5,3,3,0,2,554,0,1,NaN,0,0,0,0,-1.18722840731065,NaN,750,0,1,congruent,0,7035.41411081108,816.351551399915
63,104,1,141,0.5,-0.5,0.5,3,1,0,1,957,0,0,NaN,0,0,0,NaN,1.69126686880372,NaN,750,1,0,incongruent,0,2860.05534321054,4339.54763877825
63,104,1,142,-0.5,-0.5,0.5,1,3,0,1,977,1,0,977,0,0,0,0,1.8341202323826,1.8341202323826,750,0,0,incongruent,0,5365.49940039519,3051.34471903063
63,104,1,143,-0.5,-0.5,-0.5,2,2,0,2,597,1,1,597,0,0,0,0,-0.880093675616063,-0.880093675616063,750,1,0,congruent,0,806.744809113159,1920.70112851729
63,104,1,144,0.5,-0.5,0,4,NaN,0,2,653,0,1,NaN,0,0,0,NaN,-0.480104257595208,NaN,750,0,1,neutral,0,3773.29573531079,920.442475650812
63,104,1,146,-0.5,-0.5,0,1,NaN,0,1,991,1,0,991,0,0,0,0,1.93411758688781,1.93411758688781,750,0,0,neutral,0,2047.55849938646,8387.03894906655
63,104,1,147,0.5,0.5,-0.5,4,4,0,1,796,0,0,NaN,0,0,0,NaN,0.541297291993762,NaN,750,0,1,congruent,0,2306.10780612855,1763.98693132876
63,104,1,149,-0.5,0.5,0,4,NaN,0,4,876,1,0,876,0,0,0,0,1.11271074630927,1.11271074630927,750,0,0,neutral,0,1878.20250122253,2091.14745656353
63,104,1,150,0.5,0.5,-0.5,1,1,0,1,935,1,0,935,0,0,0,NaN,1.53412816886696,1.53412816886696,750,1,0,congruent,0,2653.3580647677,934.299977651169
63,104,2,151,0.5,-0.5,0,3,NaN,0,2,750,0,1,NaN,0,0,0,NaN,0.212734555762345,NaN,750,0,1,neutral,0,1397.02842930046,1094.86830616694
63,104,2,152,0.5,-0.5,-0.5,1,1,0,1,990,1,0,990,0,0,0,NaN,1.92697491870887,1.92697491870887,750,1,0,congruent,0,251.213753628067,1636.58451406703
63,104,2,153,0.5,0.5,0,3,NaN,0,2,587,0,1,NaN,0,0,0,NaN,-0.951520357405502,NaN,750,0,1,neutral,0,7284.85723409149,844.310035066905
63,104,2,154,0.5,0.5,-0.5,2,2,0,2,606,1,1,606,1,0,0,NaN,-0.815809662005569,-0.815809662005569,750,1,0,congruent,1,3508.16283087801,1971.31449428801
63,104,2,155,-0.5,-0.5,-0.5,3,3,0.2,3,619,1,1,619,0,0,0.4,0,-0.722954975679299,-0.722954975679299,750,1,0,congruent,0,1007.73993810344,2679.14164923097
63,104,2,156,-0.5,-0.5,0,1,NaN,0.2,1,851,1,0,851,0,0,0.4,0,0.934144041835673,0.934144041835673,750,0,0,neutral,0,831.773357835855,1870.25275722047
63,104,2,157,0.5,-0.5,-0.5,3,3,0.2,3,708,1,1,708,0,0,0.4,NaN,-0.0872575077532967,-0.0872575077532967,750,1,0,congruent,0,500.434315750965,2577.95728364996
63,104,2,158,-0.5,-0.5,0.5,1,2,0.2,2,647,0,1,NaN,0,0,0.4,0,-0.522960266668871,NaN,750,1,0,incongruent,0,6485.39616742925,2199.24812764946
63,104,2,159,0.5,-0.5,0.5,4,3,0.2,3,731,0,1,NaN,0,0,0.4,NaN,0.0770238603624117,NaN,750,1,0,incongruent,0,1420.41988854227,2314.80323594523
63,104,2,160,0.5,-0.5,0,3,NaN,0.2,3,586,1,1,586,0,0,0,NaN,-0.958663025584446,-0.958663025584446,750,0,0,neutral,0,2794.59703265368,1011.55199599469
63,104,2,161,0.5,0.5,-0.5,4,4,0.2,1,846,0,0,NaN,0,0,0,NaN,0.898430700940954,NaN,750,0,1,congruent,0,3638.80063485957,1293.08829618611
63,104,2,162,0.5,0.5,-0.5,1,1,0.2,1,872,1,0,872,0,0,0,NaN,1.08414007359349,1.08414007359349,750,1,0,congruent,0,5357.04851539078,1917.02011983078
63,104,2,163,-0.5,0.5,0,2,NaN,0.2,2,633,1,1,633,1,0,0,0,-0.622957621174085,-0.622957621174085,750,0,0,neutral,0.1,1127.29130618738,491.764953923345
63,104,2,164,-0.5,0.5,-0.5,1,1,0.4,4,849,0,0,NaN,0,0,0.2,0.2,0.919858705477785,NaN,750,0,1,congruent,0,1426.973905347,1155.721966041
63,104,2,165,-0.5,0.5,-0.5,2,2,0.4,2,647,1,1,647,1,0,0.2,0.2,-0.522960266668871,-0.522960266668871,750,1,0,congruent,0.1,2080.62325960116,3296.81959841289
63,104,2,166,-0.5,0.5,-0.5,4,4,0.4,1,792,0,0,NaN,0,0,0.4,0.4,0.512726619277986,NaN,750,0,1,congruent,0,1543.69417469588,1998.26874930952
63,104,2,167,0.5,0.5,-0.5,3,3,0.4,3,896,1,0,896,0,0,0.4,NaN,1.25556410988815,1.25556410988815,750,1,0,congruent,0,4090.6070664655,1363.35184848467
63,104,2,168,0.5,0.5,0.5,4,2,0.4,2,933,0,0,NaN,0,0,0.4,NaN,1.51984283250907,NaN,750,1,0,incongruent,0,1576.45217051473,5628.13619149395
63,104,2,169,0.5,0.5,-0.5,3,3,0.2,3,632,1,1,632,1,0,0.2,NaN,-0.630100289353029,-0.630100289353029,750,1,0,congruent,1,2829.6858432643,891.556373027195
63,104,2,170,-0.5,0.5,0,2,NaN,0.4,2,575,1,1,575,1,0,0.6,0.4,-1.03723237555283,-1.03723237555283,750,0,0,neutral,0.1,2574.27341763845,379.347059121759
63,104,2,171,-0.5,-0.5,-0.5,1,1,0.4,1,778,1,0,778,0,0,0.6,0,0.412729264772772,0.412729264772772,750,1,0,congruent,0,897.819139279629,2740.36144527369
63,104,2,172,0.5,-0.5,-0.5,2,2,0.4,3,650,0,1,NaN,0,0,0.6,NaN,-0.50153226213204,NaN,750,0,1,congruent,0,6524.80331504526,2098.99569232746
63,104,2,173,-0.5,0.5,0.5,4,1,0.4,1,999,0,0,NaN,0,0,0.6,0.6,1.99125893231936,NaN,750,1,0,incongruent,0,2942.7955611238,2160.46629558221
63,104,2,174,-0.5,-0.5,0,3,NaN,0.4,3,774,1,0,774,1,0,0.6,0,0.384158592056997,0.384158592056997,750,0,0,neutral,0.1,4366.83535794986,2701.90427148053
63,104,2,175,-0.5,-0.5,-0.5,2,2,0.4,2,535,1,1,535,1,0,0.4,0.2,-1.32293910271058,-1.32293910271058,750,1,0,congruent,0.1,1218.98213004414,1079.75378502266
63,104,2,177,-0.5,-0.5,-0.5,3,3,0.4,3,802,1,0,802,0,0,0.4,0.4,0.584153301067425,0.584153301067425,750,1,0,congruent,0,1417.53407331441,2639.71629055761
63,104,2,178,-0.5,-0.5,0,1,NaN,0.4,1,872,1,0,872,1,0,0.4,0.4,1.08414007359349,1.08414007359349,750,0,0,neutral,0.1,2830.22791911729,2241.88909642593
63,104,2,179,0.5,0.5,-0.5,2,2,0.4,2,495,1,1,495,1,0,0.6,NaN,-1.60864582986834,-1.60864582986834,750,1,0,congruent,1,2220.94866643694,3243.07556446398
63,104,2,180,0.5,0.5,-0.5,3,3,0.6,3,511,1,1,511,1,0,0.8,NaN,-1.49436313900523,-1.49436313900523,750,1,0,congruent,1,920.565855555381,1767.83286549679
63,104,2,181,-0.5,0.5,-0.5,1,1,0.6,1,522,1,1,522,1,0,1,0.4,-1.41579378903685,-1.41579378903685,750,1,0,congruent,0.1,735.05346393811,728.114785738788
63,104,2,182,-0.5,0.5,0.5,3,4,0.6,4,774,0,0,NaN,0,0,1.2,0.6,0.384158592056997,NaN,750,1,0,incongruent,0,1655.81686498462,6308.16736702733
63,104,2,184,0.5,0.5,-0.5,4,4,0.6,4,827,1,0,827,0,0,1,NaN,0.762720005541021,0.762720005541021,750,1,0,congruent,0,655.601217865956,1944.38563075438
63,104,2,185,-0.5,0.5,0,1,NaN,0.4,3,735,0,1,NaN,0,0,0.6,0.4,0.105594533078187,NaN,750,0,1,neutral,0,9197.57852951086,1984.19348507056
63,104,2,186,-0.5,-0.5,-0.5,3,3,0.2,3,867,1,0,867,0,0,0.2,0.6,1.04842673269877,1.04842673269877,750,1,0,congruent,0,4429.85278149098,7009.21577306411
63,104,2,187,-0.5,0.5,0.5,2,1,0.2,1,776,0,0,NaN,0,0,0,0.4,0.398443928414885,NaN,750,1,0,incongruent,0,1402.95923758104,3416.1471654886
63,104,2,188,-0.5,-0.5,0,3,NaN,0,3,749,1,1,749,0,0,0,0.6,0.205591887583401,0.205591887583401,750,0,0,neutral,0,1763.35751545044,1100.88743935088
63,104,2,189,0.5,0.5,-0.5,2,2,0,2,681,1,1,681,1,0,0,NaN,-0.28010954858478,-0.28010954858478,750,1,0,congruent,1,1572.85284842081,1914.0074088424
63,104,2,190,-0.5,-0.5,0,3,NaN,0.2,3,770,1,0,770,0,0,0.4,0.4,0.355587919341222,0.355587919341222,750,0,0,neutral,0,3873.097653031,4313.89316792194
63,104,2,191,-0.5,-0.5,-0.5,1,1,0.2,1,791,1,0,791,0,0,0.4,0.2,0.505583951099042,0.505583951099042,750,1,0,congruent,0,663.844359757932,4396.01406541886
63,104,2,192,0.5,0.5,-0.5,2,2,0.2,2,670,1,1,670,1,0,0.4,NaN,-0.358678898553163,-0.358678898553163,750,1,0,congruent,1,1715.9434214709,2004.87945939898
63,104,2,194,0.5,-0.5,0.5,4,3,0.4,2,707,0,1,NaN,1,0,0.8,NaN,-0.0944001759322405,NaN,750,0,1,incongruent,1,799.458587516658,3223.20436194177
63,104,2,195,0.5,-0.5,0.5,2,4,0.4,1,793,0,0,NaN,0,0,0.8,NaN,0.51986928745693,NaN,750,0,1,incongruent,0,2723.34690845878,4396.1883317145
63,104,2,196,0.5,0.5,0,3,NaN,0.4,3,807,1,0,807,0,0,0.8,NaN,0.619866641962144,0.619866641962144,750,0,0,neutral,0,2675.5049718393,3267.02679786727
63,104,2,197,0.5,-0.5,-0.5,1,1,0.4,1,987,1,0,987,1,0,0.8,NaN,1.90554691417204,1.90554691417204,750,1,0,congruent,1,2063.67198960387,1226.13152579831
63,104,2,199,0.5,-0.5,0.5,1,2,0.4,2,836,0,0,NaN,0,0,0.8,NaN,0.827004019151515,NaN,750,1,0,incongruent,0,2341.18505873997,2507.71257140304
63,104,2,200,0.5,0.5,-0.5,3,3,0.4,3,655,1,1,655,1,0,0.4,NaN,-0.46581892123732,-0.46581892123732,750,1,0,congruent,1,1436.96339431587,1900.56874736275
63,104,2,201,-0.5,-0.5,0.5,4,2,0.6,1,782,0,0,NaN,0,0,0.8,0,0.441299937488548,NaN,750,0,1,incongruent,0,1720.95023131624,6039.75666243792
63,104,2,202,0.5,0.5,0,2,NaN,0.6,2,793,1,0,793,0,0,0.8,NaN,0.51986928745693,0.51986928745693,750,0,0,neutral,0,4904.75653905503,3573.02095480342
63,104,2,203,-0.5,0.5,-0.5,4,4,0.4,1,946,0,0,NaN,0,0,0.4,0.2,1.61269751883534,NaN,750,0,1,congruent,0,1575.24715476558,492.655461388328
63,104,2,204,-0.5,0.5,-0.5,2,2,0.2,2,537,1,1,537,1,0,0.4,0,-1.30865376635269,-1.30865376635269,750,1,0,congruent,0.1,2161.57710736743,1546.0322899717
63,104,2,205,0.5,-0.5,0.5,4,3,0.4,1,898,0,0,NaN,0,0,0.6,NaN,1.26984944624603,NaN,750,0,1,incongruent,0,995.127881724943,942.798370319887
63,104,2,206,-0.5,0.5,0,3,NaN,0.4,3,536,1,1,536,1,0,0.2,0.2,-1.31579643453164,-1.31579643453164,750,0,0,neutral,0.1,1315.09236178423,1847.02310262217
63,104,2,207,0.5,0.5,0.5,2,4,0.6,1,856,0,0,NaN,0,0,0.4,NaN,0.969857382730392,NaN,750,0,1,incongruent,0,2844.68645781922,2504.9968932193
63,104,2,208,-0.5,0.5,-0.5,1,1,0.4,1,863,1,0,863,0,0,0.4,0.4,1.019856059983,1.019856059983,750,1,0,congruent,0,3009.48884016561,1393.01869736585
63,104,2,209,-0.5,-0.5,-0.5,3,3,0.4,3,598,1,1,598,1,0,0.4,0,-0.87295100743712,-0.87295100743712,750,1,0,congruent,0.1,850.7186788562,2192.09102018362
63,104,2,211,-0.5,-0.5,0,4,NaN,0.4,1,739,0,1,NaN,0,0,0.4,0.2,0.134165205793963,NaN,750,0,1,neutral,0,1593.38917450985,1367.3526736029
63,104,2,212,0.5,-0.5,-0.5,1,1,0.4,1,790,1,0,790,1,0,0.2,NaN,0.498441282920099,0.498441282920099,750,1,0,congruent,1,314.515506177623,1127.00301356072
63,104,2,213,-0.5,-0.5,0.5,3,2,0.4,2,582,0,1,NaN,0,0,0.6,0.2,-0.987233698300221,NaN,750,1,0,incongruent,0,5509.70207272956,3077.74580027491
63,104,2,214,0.5,-0.5,-0.5,1,1,0.4,1,737,1,1,737,0,0,0.6,NaN,0.119879869436075,0.119879869436075,750,1,0,congruent,0,1171.82629492326,2602.40854604538
63,104,2,215,-0.5,-0.5,0,2,NaN,0.4,2,472,1,1,472,1,0,0.4,0.2,-1.77292719798404,-1.77292719798404,750,0,0,neutral,0.1,1117.95283920717,994.435813944183
63,104,2,216,-0.5,-0.5,-0.5,3,3,0.4,4,692,0,1,NaN,0,0,0.6,0.4,-0.201540198616398,NaN,750,0,1,congruent,0,3004.57701698699,3509.23207677546
63,104,2,217,0.5,0.5,0,4,NaN,0.4,2,700,0,1,NaN,0,0,0.6,NaN,-0.144398853184847,NaN,750,0,1,neutral,0,2195.89454107654,3204.82586345337
63,104,2,218,-0.5,-0.5,-0.5,1,1,0.2,1,836,1,0,836,1,0,0.2,0.4,0.827004019151515,0.827004019151515,750,1,0,congruent,0.1,1495.01032203352,988.118928756102
63,104,2,219,-0.5,-0.5,0,3,NaN,0.2,3,598,1,1,598,0,0,0.4,0.4,-0.87295100743712,-0.87295100743712,750,0,0,neutral,0,1247.55507600819,5743.60090620621
63,104,2,220,-0.5,0.5,0.5,2,3,0.2,1,562,0,1,NaN,0,0,0.4,0.4,-1.1300870618791,NaN,750,0,1,incongruent,0,774.901152730036,1480.0185137239
63,104,2,221,0.5,-0.5,-0.5,4,4,0,1,755,0,0,NaN,0,0,0.2,NaN,0.248447896657064,NaN,750,0,1,congruent,0,1845.48000728808,873.773105769389
63,104,2,222,-0.5,0.5,0,2,NaN,0,2,572,1,1,572,1,0,0.2,0.4,-1.05866038008966,-1.05866038008966,750,0,0,neutral,0.1,502.423274125696,2512.09015734244
63,104,2,223,0.5,-0.5,-0.5,3,3,0.2,3,648,1,1,648,0,0,0.4,NaN,-0.515817598489927,-0.515817598489927,750,1,0,congruent,0,1686.97437986594,992.430959595681
63,104,2,224,0.5,0.5,0,4,NaN,0.2,2,566,0,1,NaN,0,0,0.2,NaN,-1.10151638916332,NaN,750,0,1,neutral,0,9243.57281139426,2729.13074930636
63,104,2,225,0.5,0.5,0.5,1,2,0.2,2,889,0,0,NaN,0,0,0.2,NaN,1.20556543263554,NaN,750,1,0,incongruent,0,2399.13751734788,2117.13597694129
63,104,2,226,0.5,-0.5,0,4,NaN,0.2,2,631,0,1,NaN,0,0,0.2,NaN,-0.637242957531973,NaN,750,0,1,neutral,0,606.23850528565,2593.46332464244
63,104,2,227,0.5,0.5,0.5,2,4,0.2,4,610,0,1,NaN,0,0,0.2,NaN,-0.787238989289794,NaN,750,1,0,incongruent,0,923.328744501298,2085.20076646323
63,104,2,228,0.5,0.5,-0.5,3,3,0.2,3,596,1,1,596,1,0,0,NaN,-0.887236343795007,-0.887236343795007,750,1,0,congruent,1,3905.21401785598,3558.74417129857
63,104,2,229,0.5,0.5,0.5,2,4,0.4,2,707,1,1,707,1,0,0.4,NaN,-0.0944001759322405,-0.0944001759322405,750,0,0,incongruent,1,2833.96752843661,1000.21745046341
63,104,2,231,-0.5,-0.5,-0.5,2,2,0.4,2,631,1,1,631,1,0,1.2,0.4,-0.637242957531973,-0.637242957531973,750,1,0,congruent,0.1,838.589153439149,1974.75226242842
63,104,2,232,-0.5,0.5,0,1,NaN,0.4,1,655,1,1,655,1,0,1.4,0.4,-0.46581892123732,-0.46581892123732,750,0,0,neutral,0.1,3449.64242833556,2298.7733532566
63,104,2,233,0.5,0.5,-0.5,2,2,0.6,2,752,1,0,752,0,0,1.6,NaN,0.227019892120232,0.227019892120232,750,1,0,congruent,0,982.379178354809,3181.3260411737
63,104,2,234,0.5,-0.5,0.5,1,4,0.6,1,716,1,1,716,1,0,1.2,NaN,-0.0301161623217459,-0.0301161623217459,750,0,0,incongruent,1,2660.21449202845,1349.92620429177
63,104,2,235,-0.5,0.5,0,2,NaN,0.6,2,566,1,1,566,1,0,1.2,0.4,-1.10151638916332,-1.10151638916332,750,0,0,neutral,0.1,2066.20744720498,1728.4525319935
63,104,2,236,-0.5,-0.5,-0.5,3,3,0.8,3,414,1,1,414,1,0,1,0.6,-2.18720195236279,-2.18720195236279,750,1,0,congruent,0.1,2077.62748422378,4677.78846722191
63,104,2,237,0.5,0.5,0.5,4,2,0.8,4,317,1,1,317,1,0,1,NaN,-2.88004076572034,-2.88004076572034,750,0,0,incongruent,1,4101.36544931925,2291.4165469086
63,104,2,238,-0.5,0.5,-0.5,1,1,0.8,2,725,0,1,NaN,0,0,1.2,0.6,0.0341678512887487,NaN,750,0,1,congruent,0,4473.97476082555,4718.28587393555
63,104,2,239,-0.5,0.5,-0.5,3,3,0.6,3,583,1,1,583,1,0,1.2,0.6,-0.980091030121277,-0.980091030121277,750,1,0,congruent,0.1,1569.93524999771,2454.66382940265
63,104,2,240,0.5,0.5,0,2,NaN,0.6,2,749,1,1,749,1,0,1,NaN,0.205591887583401,0.205591887583401,750,0,0,neutral,1,1850.42456013435,781.884598466528
63,104,2,241,0.5,0.5,-0.5,3,3,0.8,3,460,1,1,460,1,0,1.2,NaN,-1.85863921613137,-1.85863921613137,750,1,0,congruent,1,2042.18183120018,476.07714638139
63,104,2,242,0.5,0.5,0,2,NaN,0.8,2,643,1,1,643,1,0,1.4,NaN,-0.551530939384647,-0.551530939384647,750,0,0,neutral,1,82.5050756437277,2844.33510408956
63,104,2,243,0.5,-0.5,-0.5,3,3,0.8,3,607,1,1,607,1,0,1.4,NaN,-0.808666993826625,-0.808666993826625,750,1,0,congruent,1,1763.88839704758,1238.91996880643
63,104,2,244,-0.5,0.5,-0.5,4,4,0.8,1,773,0,0,NaN,0,0,1.8,0.8,0.377015923878053,NaN,750,0,1,congruent,0,2286.14670139423,819.243581362324
63,104,2,245,-0.5,-0.5,0.5,3,1,0.8,3,830,1,0,830,0,0,1.6,0.6,0.784148010077852,0.784148010077852,750,0,0,incongruent,0,4472.01157819546,2157.867131828
63,104,2,246,0.5,0.5,0,1,NaN,0.8,1,819,1,0,819,0,0,1.2,NaN,0.70557866010947,0.70557866010947,750,0,0,neutral,0,6783.93658439521,2165.67681995441
63,104,2,247,-0.5,0.5,-0.5,2,2,0.6,2,620,1,1,620,1,0,0.8,0.6,-0.715812307500355,-0.715812307500355,750,1,0,congruent,0.1,1591.49564576858,542.588574356442
63,104,2,248,0.5,-0.5,0.5,3,4,0.6,3,697,1,1,697,1,0,0.6,NaN,-0.165826857721679,-0.165826857721679,750,0,0,incongruent,1,2425.35460234868,1160.80957570327
63,104,2,249,-0.5,0.5,0.5,4,3,0.6,3,862,0,0,NaN,0,0,0.6,0.6,1.01271339180406,NaN,750,1,0,incongruent,0,2482.66404204767,2776.52324811687
63,104,2,251,0.5,0.5,-0.5,4,4,0.2,1,667,0,1,NaN,0,0,0.6,NaN,-0.380106903089994,NaN,750,0,1,congruent,0,1425.67530100945,1919.07211666709
63,104,2,252,0.5,0.5,-0.5,2,2,0.2,2,772,1,0,772,0,0,0.6,NaN,0.369873255699109,0.369873255699109,750,1,0,congruent,0,2196.06172982227,2171.45418565179
63,104,2,253,0.5,0.5,0,3,NaN,0.2,2,607,0,1,NaN,0,0,0.4,NaN,-0.808666993826625,NaN,750,0,1,neutral,0,6276.19752990461,1116.09138400315
63,104,2,254,-0.5,0.5,-0.5,1,1,0,1,826,1,0,826,0,0,0,0.4,0.755577337362077,0.755577337362077,750,1,0,congruent,0,3643.09838109967,1354.27903468555
63,104,2,255,-0.5,0.5,0,3,NaN,0,3,663,1,1,663,1,0,0,0.2,-0.40867757580577,-0.40867757580577,750,0,0,neutral,0.1,623.587272041944,3391.92033816334
63,104,2,256,-0.5,0.5,-0.5,4,4,0.2,1,747,0,1,NaN,0,0,0.2,0.4,0.191306551225513,NaN,750,0,1,congruent,0,2042.3451197267,3462.0304252384
63,104,2,257,0.5,0.5,-0.5,2,2,0.2,2,698,1,1,698,1,0,0.2,NaN,-0.158684189542735,-0.158684189542735,750,1,0,congruent,1,4413.30515404514,2694.7096404128
63,104,2,258,-0.5,-0.5,0,4,NaN,0.4,4,939,1,0,939,1,0,0.6,0.6,1.56269884158273,1.56269884158273,750,0,0,neutral,0.1,7412.4270654189,1260.69280908909
63,104,2,261,0.5,0.5,0.5,4,1,0.4,1,783,0,0,NaN,0,0,0.6,NaN,0.448442605667492,NaN,750,1,0,incongruent,0,2177.58190405998,1803.47559159703
63,104,2,262,-0.5,-0.5,-0.5,3,3,0.4,3,541,1,1,541,0,0,0.6,0.6,-1.28008309363692,-1.28008309363692,750,1,0,congruent,0,1897.7545639883,2333.22716386226
63,104,2,264,-0.5,0.5,-0.5,4,4,0.4,3,852,0,0,NaN,0,0,0.4,0.2,0.941286710014617,NaN,750,0,1,congruent,0,2707.50227847321,4895.6520821306
63,104,2,265,0.5,0.5,0.5,1,2,0.2,2,801,0,0,NaN,0,0,0.4,NaN,0.577010632888481,NaN,750,1,0,incongruent,0,1611.42282430831,1981.85724756526
63,104,2,266,0.5,0.5,0,4,NaN,0.2,4,898,1,0,898,0,0,0.4,NaN,1.26984944624603,1.26984944624603,750,0,0,neutral,0,1615.11083091879,5793.0620890018
63,104,2,268,0.5,0.5,-0.5,4,4,0,4,921,1,0,921,0,0,0.4,NaN,1.43413081436174,1.43413081436174,750,1,0,congruent,0,1734.09671316751,3279.01795695648
63,104,2,269,-0.5,-0.5,-0.5,2,2,0,2,596,1,1,596,0,0,0,0.4,-0.887236343795007,-0.887236343795007,750,1,0,congruent,0,560.170289643088,1151.34800559314
63,104,2,270,0.5,0.5,-0.5,3,3,0,3,739,1,1,739,1,0,0,NaN,0.134165205793963,0.134165205793963,750,1,0,congruent,1,909.703762771242,3114.43265047089
63,104,2,271,-0.5,0.5,-0.5,4,4,0.2,1,744,0,1,NaN,0,0,0.4,0.2,0.169878546688682,NaN,750,0,1,congruent,0,3135.413958693,2028.40626868182
63,104,2,272,0.5,-0.5,0.5,1,2,0.2,2,690,0,1,NaN,0,0,0.4,NaN,-0.215825534974286,NaN,750,1,0,incongruent,0,810.122358532974,2628.64805594114
63,104,2,273,0.5,-0.5,-0.5,4,4,0.2,1,939,0,0,NaN,0,0,0.4,NaN,1.56269884158273,NaN,750,0,1,congruent,0,2564.49400434706,1092.23039271702
63,104,2,274,0.5,0.5,0,2,NaN,0.2,2,624,1,1,624,1,0,0.4,NaN,-0.68724163478458,-0.68724163478458,750,0,0,neutral,1,2191.03709108546,1320.39956534337
63,104,2,275,0.5,0.5,-0.5,4,4,0.4,1,777,0,0,NaN,0,0,0.8,NaN,0.405586596593829,NaN,750,0,1,congruent,0,1101.31754390026,3172.15579931844
63,104,2,276,-0.5,-0.5,0.5,3,1,0.4,3,636,1,1,636,1,0,0.4,0.2,-0.601529616637254,-0.601529616637254,750,0,0,incongruent,0.1,1144.1481179574,1083.55890973015
63,104,2,277,-0.5,-0.5,0,1,NaN,0.4,1,854,1,0,854,0,0,0.6,0.4,0.955572046372505,0.955572046372505,750,0,0,neutral,0,2540.23574538851,1591.72599371507
63,104,2,278,0.5,0.5,-0.5,4,4,0.4,4,902,1,0,902,0,0,0.6,NaN,1.29842011896181,1.29842011896181,750,1,0,congruent,0,398.998113614066,1090.43228118671
63,104,2,279,-0.5,-0.5,0,1,NaN,0.4,1,864,1,0,864,1,0,0.6,0.2,1.02699872816194,1.02699872816194,750,0,0,neutral,0.1,7137.41344441708,3350.10889549842
63,104,2,280,-0.5,-0.5,-0.5,3,3,0.4,3,711,1,1,711,0,0,0.4,0.4,-0.0658295032164652,-0.0658295032164652,750,1,0,congruent,0,651.96263249729,4267.73461504144
63,104,2,281,0.5,-0.5,0.5,2,1,0.4,1,650,0,1,NaN,0,0,0.4,NaN,-0.50153226213204,NaN,750,1,0,incongruent,0,2733.89186179826,2378.47954992254
63,104,2,282,-0.5,0.5,-0.5,3,3,0.4,3,704,1,1,704,1,0,0.2,0.2,-0.115828180469072,-0.115828180469072,750,1,0,congruent,0.1,791.767626112631,969.33790174534
63,104,2,283,-0.5,-0.5,0.5,1,2,0.4,1,845,1,0,845,0,0,0.4,0.4,0.89128803276201,0.89128803276201,750,0,0,incongruent,0,932.567691396311,4861.48096168516
63,104,2,284,0.5,-0.5,0,4,NaN,0.4,3,750,0,1,NaN,0,0,0.4,NaN,0.212734555762345,NaN,750,0,1,neutral,0,1482.20605367828,944.271803778957
63,104,2,285,0.5,0.5,-0.5,1,1,0.4,1,797,1,0,797,0,0,0.2,NaN,0.548439960172705,0.548439960172705,750,1,0,congruent,0,3133.31594921977,3269.14512368558
63,104,2,286,-0.5,-0.5,0.5,3,2,0.4,2,745,0,1,NaN,1,0,0.2,0.4,0.177021214867626,NaN,750,1,0,incongruent,0.1,1977.43648012238,1435.94860346185
63,104,2,287,0.5,-0.5,0,2,NaN,0.4,2,587,1,1,587,1,0,0.4,NaN,-0.951520357405502,-0.951520357405502,750,0,0,neutral,1,1176.16371654318,1930.10513517078
63,104,2,288,0.5,-0.5,0.5,4,1,0.4,1,613,0,1,NaN,0,0,0.6,NaN,-0.765810984752962,NaN,750,1,0,incongruent,0,1640.26847572048,6325.3433277883
63,104,2,289,-0.5,0.5,-0.5,3,3,0.4,3,824,1,0,824,0,0,0.6,0.4,0.741292001004189,0.741292001004189,750,1,0,congruent,0,1470.79577977184,2422.65030552931
63,104,2,290,-0.5,0.5,0,4,NaN,0.2,4,870,1,0,870,0,0,0.6,0.2,1.06985473723561,1.06985473723561,750,0,0,neutral,0,3432.19624529344,1858.48783809751
63,104,2,291,-0.5,0.5,-0.5,1,1,0.2,1,860,1,0,860,0,0,0.6,0.2,0.998428055446168,0.998428055446168,750,1,0,congruent,0,3568.45032745885,4159.06127825558
63,104,2,292,0.5,0.5,0.5,4,2,0.2,4,870,1,0,870,0,0,0.4,NaN,1.06985473723561,1.06985473723561,750,0,0,incongruent,0,1379.39904983921,2984.39079892051
63,104,2,295,-0.5,-0.5,-0.5,1,1,0,1,617,1,1,617,0,0,0,0.4,-0.737240312037187,-0.737240312037187,750,1,0,congruent,0,2665.8256184294,656.635366105457
63,104,2,296,-0.5,-0.5,-0.5,2,2,0,2,574,1,1,574,0,0,0,0.2,-1.04437504373177,-1.04437504373177,750,1,0,congruent,0,876.445197427002,1516.49048352107
63,104,2,298,0.5,-0.5,0,2,NaN,0,2,682,1,1,682,0,0,0,NaN,-0.272966880405837,-0.272966880405837,750,0,0,neutral,0,891.969309501614,3102.25434944843
63,104,2,299,-0.5,-0.5,-0.5,3,3,0,3,758,1,0,758,0,0,0,0.2,0.269875901193896,0.269875901193896,750,1,0,congruent,0,2327.52789699075,1499.89965842743
63,104,2,300,-0.5,0.5,0.5,4,2,0,2,732,0,1,NaN,0,0,0,0.2,0.0841665285413556,NaN,750,1,0,incongruent,0,2257.32932695215,3567.08179257294
63,104,3,301,0.5,0.5,0,2,NaN,0,2,601,1,1,601,1,0,0,NaN,-0.851523002900288,-0.851523002900288,750,0,0,neutral,1,1337.21462632248,1044.24692893285
63,104,3,303,0.5,-0.5,0,2,NaN,0.2,2,566,1,1,566,1,0,0.4,NaN,-1.10151638916332,-1.10151638916332,750,0,0,neutral,1,6045.20478626872,846.98850005645
63,104,3,304,0.5,0.5,0.5,4,1,0.2,3,757,0,0,NaN,0,0,0.8,NaN,0.262733233014952,NaN,750,0,1,incongruent,0,901.872016798298,5191.20553316264
63,104,3,305,-0.5,-0.5,0.5,1,4,0.2,1,789,1,0,789,0,0,0.8,0,0.491298614741155,0.491298614741155,750,0,0,incongruent,0,4226.0644996587,1734.34768543894
63,104,3,306,0.5,-0.5,-0.5,3,3,0.2,3,630,1,1,630,0,0,0.8,NaN,-0.644385625710917,-0.644385625710917,750,1,0,congruent,0,1032.3000876476,4702.58012535686
63,104,3,307,-0.5,0.5,0.5,4,2,0.2,2,433,0,1,NaN,0,0,0.4,0,-2.05149125696285,NaN,750,1,0,incongruent,0,1391.78895706506,1848.05552087243
63,104,3,308,-0.5,-0.5,0.5,2,3,0.2,2,845,1,0,845,0,0,0.4,0,0.89128803276201,0.89128803276201,750,0,0,incongruent,0,1580.98376371571,1485.51023663922
63,104,3,309,0.5,-0.5,-0.5,1,1,0.2,3,723,0,1,NaN,0,0,0,NaN,0.019882514930861,NaN,750,0,1,congruent,0,1804.0588089063,2614.76886773887
63,104,3,310,-0.5,0.5,-0.5,2,2,0.2,2,504,1,1,504,1,0,0,0,-1.54436181625784,-1.54436181625784,750,1,0,congruent,0.1,2775.8103069441,2301.45175085701
63,104,3,311,0.5,0.5,0.5,4,1,0.4,1,803,0,0,NaN,0,0,0.2,NaN,0.591295969246369,NaN,750,1,0,incongruent,0,2787.4118984591,3940.38105006478
63,104,3,312,0.5,0.5,-0.5,3,3,0.2,2,557,0,1,NaN,0,0,0.2,NaN,-1.16580040277382,NaN,750,0,1,congruent,0,1503.86708782015,1597.68035638371
63,104,3,314,0.5,0.5,-0.5,3,3,0.2,3,638,1,1,638,1,0,0.2,NaN,-0.587244280279366,-0.587244280279366,750,1,0,congruent,1,2398.24208166711,930.241593142136
63,104,3,315,0.5,0.5,-0.5,1,1,0.4,1,740,1,1,740,1,0,0.6,NaN,0.141307873972906,0.141307873972906,750,1,0,congruent,1,6243.34278059021,3460.57244269969
63,104,3,317,0.5,0.5,0,4,NaN,0.4,2,623,0,1,NaN,0,0,0.8,NaN,-0.694384302963523,NaN,750,0,1,neutral,0,1850.16455532657,1657.36487273382
63,104,3,319,-0.5,-0.5,-0.5,2,2,0.4,2,630,1,1,630,1,0,0.8,0,-0.644385625710917,-0.644385625710917,750,1,0,congruent,0.1,3023.82991998129,3534.70854971402
63,104,3,322,0.5,0.5,0.5,1,2,0.2,2,622,0,1,NaN,0,0,0.4,NaN,-0.701526971142467,NaN,750,1,0,incongruent,0,4991.39471843428,2475.76207649759
63,104,3,323,-0.5,-0.5,0,4,NaN,0,1,589,0,1,NaN,0,0,0.4,0.4,-0.937235021047614,NaN,750,0,1,neutral,0,5428.23730726711,1568.89124926653
63,104,3,324,0.5,-0.5,0.5,3,1,0,2,772,0,0,NaN,0,0,0.4,NaN,0.369873255699109,NaN,750,0,1,incongruent,0,164.886910960523,670.262402535784
63,104,3,325,-0.5,-0.5,0,1,NaN,0,4,780,0,0,NaN,0,0,0.2,0.4,0.42701460113066,NaN,750,0,1,neutral,0,3279.80796561192,529.108768242314
63,104,3,326,0.5,0.5,0.5,3,1,0,1,750,0,1,NaN,0,0,0.2,NaN,0.212734555762345,NaN,750,1,0,incongruent,0,5138.00349410963,2268.91739185301
63,104,3,327,0.5,0.5,0,2,NaN,0,2,655,1,1,655,1,0,0,NaN,-0.46581892123732,-0.46581892123732,750,0,0,neutral,1,1306.32880304571,3468.18074705343
63,104,3,328,0.5,-0.5,-0.5,4,4,0.2,3,710,0,1,NaN,0,0,0.4,NaN,-0.072972171395409,NaN,750,0,1,congruent,0,1784.10084838975,1034.58335266407
63,104,3,330,-0.5,0.5,-0.5,4,4,0.2,1,807,0,0,NaN,0,0,0.4,0.2,0.619866641962144,NaN,750,0,1,congruent,0,3239.6479003649,2295.03442260941
63,104,3,331,0.5,0.5,-0.5,3,3,0.2,3,753,1,0,753,0,0,0.4,NaN,0.234162560299176,0.234162560299176,750,1,0,congruent,0,1258.6635118959,4618.08162371903
63,104,3,332,0.5,0.5,0.5,2,4,0.2,1,881,0,0,NaN,0,0,0.4,NaN,1.14842408720399,NaN,750,0,1,incongruent,0,2312.94090994545,1105.75292818801
63,104,3,333,-0.5,-0.5,-0.5,3,3,0.2,2,398,0,1,NaN,0,0,0,0.4,-2.30148464322589,NaN,750,0,1,congruent,0,4261.99386865532,3006.96338262051
63,104,3,334,-0.5,0.5,0.5,2,4,0.2,3,615,0,1,NaN,0,0,0,0.2,-0.751525648395074,NaN,750,0,1,incongruent,0,1201.91467572549,5451.13159464783
63,104,3,337,-0.5,-0.5,0,1,NaN,0.2,1,919,1,0,919,0,0,0.2,0.2,1.41984547800385,1.41984547800385,750,0,0,neutral,0,3250.28006126864,2799.51986039594
63,104,3,338,0.5,0.5,0.5,2,1,0.2,3,789,0,0,NaN,0,0,0.2,NaN,0.491298614741155,NaN,750,0,1,incongruent,0,1103.38448213483,1595.7876187517
63,104,3,339,0.5,0.5,0.5,4,3,0,3,715,0,1,NaN,0,0,0.2,NaN,-0.0372588305006898,NaN,750,1,0,incongruent,0,1537.8346266203,3744.05157693673
63,104,3,340,-0.5,-0.5,-0.5,2,2,0,2,566,1,1,566,0,0,0.2,0.2,-1.10151638916332,-1.10151638916332,750,1,0,congruent,0,2015.26693393512,1345.37333297041
63,104,3,342,0.5,0.5,0.5,4,2,0,2,585,0,1,NaN,0,0,0,NaN,-0.96580569376339,NaN,750,1,0,incongruent,0,3091.66269062966,4358.56186656533
63,104,3,343,-0.5,-0.5,0,2,NaN,0,2,609,1,1,609,0,0,0,0.2,-0.794381657468737,-0.794381657468737,750,0,0,neutral,0,672.538666343986,4799.40057538701
63,104,3,346,-0.5,-0.5,0,4,NaN,0,1,898,0,0,NaN,0,0,0,0,1.26984944624603,NaN,750,0,1,neutral,0,3698.22487135926,2463.8998042362
63,104,3,347,0.5,-0.5,-0.5,2,2,0,2,691,1,1,691,0,0,0,NaN,-0.208682866795342,-0.208682866795342,750,1,0,congruent,0,230.02360131852,2699.20524503815
63,104,3,348,-0.5,0.5,0.5,3,1,0,3,700,1,1,700,1,0,0,0.2,-0.144398853184847,-0.144398853184847,750,0,0,incongruent,0.1,2567.71058578089,1494.28616843466
63,104,3,350,-0.5,0.5,0.5,2,3,0.2,2,762,1,0,762,0,0,0.2,0.2,0.298446573909671,0.298446573909671,750,0,0,incongruent,0,3851.4419990718,2652.54273256347
63,104,3,351,0.5,0.5,0,1,NaN,0.2,1,848,1,0,848,0,0,0.2,NaN,0.912716037298842,0.912716037298842,750,0,0,neutral,0,6753.00502552964,4285.68698511796
63,104,3,352,-0.5,-0.5,-0.5,3,3,0.2,3,760,1,0,760,1,0,0.2,0,0.284161237551783,0.284161237551783,750,1,0,congruent,0.1,2595.40020817131,4280.68697053068
63,104,3,353,0.5,0.5,0,2,NaN,0.2,2,650,1,1,650,1,0,0.4,NaN,-0.50153226213204,-0.50153226213204,750,0,0,neutral,1,2227.61739991165,2266.27796209311
63,104,3,354,0.5,0.5,-0.5,1,1,0.4,1,874,1,0,874,0,0,0.6,NaN,1.09842540995138,1.09842540995138,750,1,0,congruent,0,1944.96225032409,2151.15133317485
63,104,3,355,0.5,0.5,0.5,2,3,0.4,3,862,0,0,NaN,0,0,0.6,NaN,1.01271339180406,NaN,750,1,0,incongruent,0,1969.70592426729,4161.07631249094
63,104,3,357,0.5,0.5,-0.5,2,2,0.2,2,685,1,1,685,1,0,0.6,NaN,-0.251538875869005,-0.251538875869005,750,1,0,congruent,1,1671.74275175009,4192.98421233118
63,104,3,358,-0.5,-0.5,0.5,3,4,0.4,3,626,1,1,626,0,0,0.8,0.2,-0.672956298426692,-0.672956298426692,750,0,0,incongruent,0,4573.56103774218,1339.69785408147
63,104,3,359,0.5,-0.5,0,2,NaN,0.4,2,714,1,1,714,1,0,0.4,NaN,-0.0444014986796336,-0.0444014986796336,750,0,0,neutral,1,503.99315894498,462.735679932096
63,104,3,360,-0.5,0.5,0.5,3,4,0.4,3,782,1,0,782,0,0,0.8,0.2,0.441299937488548,0.441299937488548,750,0,0,incongruent,0,1121.76672150863,1823.23658948784
63,104,3,361,-0.5,0.5,0,4,NaN,0.2,1,927,0,0,NaN,0,0,0.8,0.2,1.47698682343541,NaN,750,0,1,neutral,0,936.786913855448,2076.18381543332
63,104,3,362,-0.5,0.5,0.5,1,4,0.2,4,811,0,0,NaN,0,0,0.8,0.2,0.648437314677919,NaN,750,1,0,incongruent,0,2259.15268217953,6853.46448354954
63,104,3,363,-0.5,0.5,0,4,NaN,0.2,1,899,0,0,NaN,0,0,0.4,0.2,1.27699211442498,NaN,750,0,1,neutral,0,3417.82846558699,3878.7506834989
63,104,3,364,0.5,0.5,0.5,2,4,0.2,1,815,0,0,NaN,0,0,0.4,NaN,0.677007987393695,NaN,750,0,1,incongruent,0,1957.36376897903,1168.94988333381
63,104,3,365,-0.5,-0.5,-0.5,3,3,0,3,843,1,0,843,0,0,0,0.2,0.877002696404122,0.877002696404122,750,1,0,congruent,0,3300.19468987315,2976.06083596599
63,104,3,366,0.5,-0.5,0,1,NaN,0,1,830,1,0,830,0,0,0,NaN,0.784148010077852,0.784148010077852,750,0,0,neutral,0,8349.11627225506,1486.8244499941
63,104,3,367,-0.5,-0.5,0.5,2,4,0,4,796,0,0,NaN,0,0,0,0.2,0.541297291993762,NaN,750,1,0,incongruent,0,705.435768478644,451.259885064065
63,104,3,368,0.5,0.5,-0.5,3,3,0,3,653,1,1,653,1,0,0,NaN,-0.480104257595208,-0.480104257595208,750,1,0,congruent,1,1674.90199053429,1799.70583099372
63,104,3,369,-0.5,-0.5,0,4,NaN,0.2,1,763,0,0,NaN,0,0,0.4,0.2,0.305589242088615,NaN,750,0,1,neutral,0,1157.91552252929,2449.78915154
63,104,3,370,-0.5,-0.5,0.5,1,3,0.2,1,733,1,1,733,0,0,0.4,0.2,0.0913091967202994,0.0913091967202994,750,0,0,incongruent,0,3700.32694927488,2808.18113917904
63,104,3,373,0.5,0.5,-0.5,3,3,0.2,3,683,1,1,683,1,0,0.4,NaN,-0.265824212226893,-0.265824212226893,750,1,0,congruent,1,1087.41186159218,720.787842877643
63,104,3,374,0.5,0.5,0,4,NaN,0.4,2,795,0,0,NaN,0,0,0.4,NaN,0.534154623814818,NaN,750,0,1,neutral,0,2405.66666126311,3290.88880037981
63,104,3,375,0.5,-0.5,0.5,3,4,0.4,4,675,0,1,NaN,0,0,0.4,NaN,-0.322965557658444,NaN,750,1,0,incongruent,0,3942.27982821744,1553.03734262711
63,104,3,376,-0.5,0.5,0,4,NaN,0.4,2,796,0,0,NaN,0,0,0.4,0,0.541297291993762,NaN,750,0,1,neutral,0,1333.48627126424,3367.45509336473
63,104,3,377,0.5,-0.5,0.5,2,3,0.4,3,689,0,1,NaN,1,0,0.4,NaN,-0.22296820315323,NaN,750,1,0,incongruent,1,863.578611961373,1825.45936523327
63,104,3,378,-0.5,0.5,0.5,3,1,0.4,3,952,1,0,952,0,0,0.8,0,1.655553527909,1.655553527909,750,0,0,incongruent,0,1387.50753012214,1239.12106977761
63,104,3,379,-0.5,-0.5,0.5,1,4,0.4,4,818,0,0,NaN,0,0,0.4,0,0.698435991930526,NaN,750,1,0,incongruent,0,937.512066935803,1653.19485430836
63,104,3,380,0.5,-0.5,0.5,2,3,0.4,2,656,1,1,656,1,0,0.4,NaN,-0.458676253058377,-0.458676253058377,750,0,0,incongruent,1,4779.35333714007,4135.92435156538
63,104,3,381,0.5,-0.5,0,1,NaN,0.4,2,894,0,0,NaN,1,0,0.8,NaN,1.24127877353026,NaN,750,0,1,neutral,1,5478.45836612578,1220.06339016198
63,104,3,382,0.5,-0.5,0.5,2,3,0.4,3,747,0,1,NaN,0,0,1.2,NaN,0.191306551225513,NaN,750,1,0,incongruent,0,4668.73145533891,3849.24340949454
63,104,3,383,0.5,-0.5,-0.5,1,1,0.4,1,810,1,0,810,1,0,0.8,NaN,0.641294646498975,0.641294646498975,750,1,0,congruent,1,2683.75443599691,1424.58525099458
63,104,3,384,0.5,-0.5,0,2,NaN,0.4,2,661,1,1,661,0,0,1.2,NaN,-0.422962912163657,-0.422962912163657,750,0,0,neutral,0,708.047140377782,2471.15971175986
63,104,3,386,0.5,0.5,0.5,3,4,0.4,1,772,0,0,NaN,0,0,1,NaN,0.369873255699109,NaN,750,0,1,incongruent,0,5156.94124186924,4030.29297013136
63,104,3,387,-0.5,0.5,-0.5,2,2,0.2,2,578,1,1,578,1,0,0.6,0,-1.015804371016,-1.015804371016,750,1,0,congruent,0.1,1321.78703826302,2607.43988846185
63,104,3,388,-0.5,-0.5,-0.5,3,3,0.2,3,904,1,0,904,1,0,0.8,0.2,1.3127054553197,1.3127054553197,750,1,0,congruent,0.1,1835.03561226093,3670.87788244903
63,104,3,389,-0.5,0.5,0,1,NaN,0.2,1,828,1,0,828,0,0,0.6,0.2,0.769862673719965,0.769862673719965,750,0,0,neutral,0,1966.45301414837,4307.35828012288
63,104,3,390,-0.5,0.5,0.5,4,3,0.2,3,975,0,0,NaN,0,0,0.6,0.2,1.81983489602471,NaN,750,1,0,incongruent,0,1020.16015701732,1215.78342998524
63,104,3,392,0.5,-0.5,-0.5,3,3,0.2,3,609,1,1,609,1,0,0.4,NaN,-0.794381657468737,-0.794381657468737,750,1,0,congruent,1,938.878366845404,4267.24655210773
63,104,3,393,0.5,-0.5,-0.5,1,1,0.2,2,768,0,0,NaN,0,0,0.6,NaN,0.341302582983334,NaN,750,0,1,congruent,0,342.823255535839,2314.4201618
63,104,3,394,0.5,-0.5,-0.5,2,2,0.2,2,476,1,1,476,0,0,0.4,NaN,-1.74435652526827,-1.74435652526827,750,1,0,congruent,0,1589.3457923495,2484.2765888115
63,104,3,395,0.5,-0.5,-0.5,3,3,0.2,3,918,1,0,918,0,0,0.4,NaN,1.41270280982491,1.41270280982491,750,1,0,congruent,0,3525.63948808776,2595.15403995672
63,104,3,396,-0.5,-0.5,0,2,NaN,0.2,2,626,1,1,626,0,0,0.4,0.4,-0.672956298426692,-0.672956298426692,750,0,0,neutral,0,5304.75358173724,1087.67197802118
63,104,3,397,0.5,-0.5,-0.5,1,1,0.2,1,821,1,0,821,1,0,0.4,NaN,0.719863996467358,0.719863996467358,750,1,0,congruent,1,941.022729614489,1742.9095525746
63,104,3,398,-0.5,-0.5,-0.5,4,4,0.2,4,784,1,0,784,0,0,0.4,0.4,0.455585273846436,0.455585273846436,750,1,0,congruent,0,9285.89461975562,1483.39982445436
63,104,3,399,0.5,0.5,0,1,NaN,0.2,1,834,1,0,834,0,0,0.4,NaN,0.812718682793628,0.812718682793628,750,0,0,neutral,0,557.784022346271,3515.3365444653
63,104,3,401,-0.5,0.5,0.5,4,1,0.2,3,597,0,1,NaN,0,0,0.6,0.2,-0.880093675616063,NaN,750,0,1,incongruent,0,4221.73681255593,5057.94160333734
63,104,3,402,-0.5,-0.5,0.5,3,2,0,2,675,0,1,NaN,0,0,0.6,0.6,-0.322965557658444,NaN,750,1,0,incongruent,0,809.224025516061,3024.76865983369
63,104,3,404,-0.5,0.5,0,3,NaN,0,3,823,1,0,823,0,0,0.2,0.2,0.734149332825246,0.734149332825246,750,0,0,neutral,0,3537.15213909825,2773.25776065125
63,104,3,405,0.5,0.5,0.5,2,4,0,2,882,1,0,882,0,0,0.2,NaN,1.15556675538293,1.15556675538293,750,0,0,incongruent,0,475.771942230657,1346.66572599928
63,104,3,406,-0.5,-0.5,0.5,4,1,0,4,608,1,1,608,0,0,0,0.4,-0.801524325647681,-0.801524325647681,750,0,0,incongruent,0,1659.61126367053,1997.21897418481
63,104,3,407,-0.5,0.5,0,2,NaN,0,2,902,1,0,902,0,0,0,0,1.29842011896181,1.29842011896181,750,0,0,neutral,0,1311.05833303369,3205.52293232967
63,104,3,408,-0.5,0.5,0.5,4,1,0,3,749,0,1,NaN,0,0,0,0,0.205591887583401,NaN,750,0,1,incongruent,0,1514.50299642078,2385.05489379369
63,104,3,409,0.5,-0.5,0,3,NaN,0,3,730,1,1,730,0,0,0,NaN,0.0698811921834679,0.0698811921834679,750,0,0,neutral,0,2574.19492853286,3903.04784924652
63,104,3,410,0.5,-0.5,-0.5,4,4,0,1,742,0,1,NaN,0,0,0,NaN,0.155593210330794,NaN,750,0,1,congruent,0,609.625009330841,1474.42131739994
63,104,3,411,0.5,-0.5,0,3,NaN,0,3,600,1,1,600,0,0,0,NaN,-0.858665671079232,-0.858665671079232,750,0,0,neutral,0,1309.67565402692,3240.60552507902
63,104,3,412,-0.5,-0.5,-0.5,4,4,0,4,692,1,1,692,0,0,0,0.2,-0.201540198616398,-0.201540198616398,750,1,0,congruent,0,564.599147984083,1249.53230322351
63,104,3,413,-0.5,0.5,0.5,1,2,0,2,594,0,1,NaN,0,0,0,0,-0.901521680152895,NaN,750,1,0,incongruent,0,1905.06636909323,2324.97802739451
63,104,3,414,-0.5,0.5,-0.5,3,3,0,3,684,1,1,684,1,0,0,0,-0.258681544047949,-0.258681544047949,750,1,0,congruent,0.1,1872.42017946278,5432.98867055616
63,104,3,416,-0.5,0.5,-0.5,3,3,0.2,3,624,1,1,624,1,0,0.2,0.2,-0.68724163478458,-0.68724163478458,750,1,0,congruent,0.1,2084.94426503188,1551.8403239659
63,104,3,417,0.5,-0.5,-0.5,1,1,0.4,1,837,1,0,837,1,0,0.4,NaN,0.834146687330459,0.834146687330459,750,1,0,congruent,1,2304.25638995685,1537.72098266506
63,104,3,418,-0.5,0.5,0,2,NaN,0.4,2,668,1,1,668,1,0,0.8,0.4,-0.372964234911051,-0.372964234911051,750,0,0,neutral,0.1,1125.17834503456,950.109792579373
63,104,3,419,-0.5,-0.5,-0.5,3,3,0.6,3,568,1,1,568,1,0,1,0.2,-1.08723105280543,-1.08723105280543,750,1,0,congruent,0.1,2105.01641880683,1720.44886024687
63,104,3,420,-0.5,-0.5,0,2,NaN,0.6,4,270,0,1,NaN,1,0,1,0.4,-3.2157461701307,NaN,750,0,1,neutral,0.1,3939.98781296928,719.341013989148
63,104,3,421,-0.5,-0.5,0.5,1,3,0.6,3,931,0,0,NaN,1,0,1.2,0.4,1.50555749615118,NaN,750,1,0,incongruent,0.1,2265.87411254926,1268.53742891194
63,104,3,422,-0.5,-0.5,-0.5,4,4,0.6,4,699,1,1,699,0,0,1.2,0.6,-0.151541521363791,-0.151541521363791,750,1,0,congruent,0,13002.8828082086,5411.75699465669
63,104,3,424,0.5,0.5,-0.5,4,4,0.8,3,818,0,0,NaN,0,0,0.8,NaN,0.698435991930526,NaN,750,0,1,congruent,0,1155.00189424119,2409.81557667209
63,104,3,425,-0.5,-0.5,0.5,1,2,0.8,2,801,0,0,NaN,1,0,0.6,0.6,0.577010632888481,NaN,750,1,0,incongruent,0.1,1856.95816053674,3081.62507042928
63,104,3,426,0.5,-0.5,0.5,4,1,0.8,4,769,1,0,769,1,0,0.6,NaN,0.348445251162278,0.348445251162278,750,0,0,incongruent,1,1206.25266870716,1963.16875768543
63,104,3,427,0.5,0.5,-0.5,3,3,0.8,3,597,1,1,597,1,0,0.8,NaN,-0.880093675616063,-0.880093675616063,750,1,0,congruent,1,1409.31207335047,1464.37665632923
63,104,3,428,-0.5,-0.5,0,2,NaN,0.8,2,580,1,1,580,0,0,1.2,0.8,-1.00151903465811,-1.00151903465811,750,0,0,neutral,0,2723.39894625446,2415.46053493211
63,104,3,429,0.5,-0.5,-0.5,4,4,0.8,4,805,1,0,805,0,0,1,NaN,0.605581305604256,0.605581305604256,750,1,0,congruent,0,1580.06311869742,3727.93585689631
63,104,3,431,-0.5,-0.5,-0.5,4,4,0.6,4,639,1,1,639,1,0,0.8,0.6,-0.580101612100422,-0.580101612100422,750,1,0,congruent,0.1,502.992729681005,852.381780760084
63,104,3,433,0.5,0.5,-0.5,3,3,0.6,3,530,1,1,530,1,0,0.6,NaN,-1.3586524436053,-1.3586524436053,750,1,0,congruent,1,3544.03424595879,516.663665039508
63,104,3,434,0.5,-0.5,-0.5,2,2,0.6,2,303,1,1,303,1,0,1,NaN,-2.98003812022555,-2.98003812022555,750,1,0,congruent,1,3538.29356532804,551.252807313907
63,104,3,435,0.5,0.5,-0.5,4,4,0.6,1,764,0,0,NaN,0,0,1.4,NaN,0.312731910267559,NaN,750,0,1,congruent,0,4043.06757169747,2262.85789629263
63,104,3,436,-0.5,-0.5,-0.5,3,3,0.4,2,649,0,1,NaN,0,0,1.4,0.6,-0.508674930310984,NaN,750,0,1,congruent,0,2090.46539203695,1325.93248422277
63,104,3,437,0.5,-0.5,0.5,4,1,0.4,1,760,0,0,NaN,1,0,1.2,NaN,0.284161237551783,NaN,750,1,0,incongruent,1,3819.51205236662,1028.00046209289
63,104,3,438,0.5,0.5,0,2,NaN,0.4,2,620,1,1,620,1,0,1.2,NaN,-0.715812307500355,-0.715812307500355,750,0,0,neutral,1,1025.4295672724,1695.86904209898
63,104,3,439,0.5,0.5,-0.5,4,4,0.6,3,640,0,1,NaN,0,0,1.2,NaN,-0.572958943921478,NaN,750,0,1,congruent,0,4398.89803834489,1959.05974107365
63,104,3,440,-0.5,-0.5,-0.5,1,1,0.4,1,933,1,0,933,0,0,0.8,0.4,1.51984283250907,1.51984283250907,750,1,0,congruent,0,7798.42076579922,2005.85992148391
63,104,3,442,-0.5,-0.5,0,1,NaN,0.4,1,839,1,0,839,0,0,0.8,0.4,0.848432023688347,0.848432023688347,750,0,0,neutral,0,477.249810816633,2665.44725935735
63,104,3,443,0.5,-0.5,0.5,3,1,0.4,4,140,0,1,NaN,0,0,0.4,NaN,-4.1442930333934,NaN,750,0,1,incongruent,0,6329.26408908571,1511.90071696913
63,104,3,444,0.5,0.5,0.5,2,3,0.4,2,755,1,0,755,0,0,0,NaN,0.248447896657064,0.248447896657064,750,0,0,incongruent,0,6057.15905580158,6484.34698452577
63,104,3,445,-0.5,-0.5,-0.5,1,1,0.2,1,983,1,0,983,0,0,0,0.2,1.87697624145626,1.87697624145626,750,1,0,congruent,0,1057.45133300466,927.159958879529
63,104,3,446,-0.5,0.5,0.5,4,2,0.2,4,714,1,1,714,1,0,0,0.6,-0.0444014986796336,-0.0444014986796336,750,0,0,incongruent,0.1,2231.64644084471,2156.34507552646
63,104,3,447,-0.5,-0.5,0.5,1,4,0.4,3,402,0,1,NaN,1,0,0.2,0.2,-2.27291397051011,NaN,750,0,1,incongruent,0.1,2571.7578562094,992.720418920928
63,104,3,448,-0.5,-0.5,0.5,2,1,0.4,2,485,1,1,485,1,0,0.4,0.2,-1.68007251165777,-1.68007251165777,750,0,0,incongruent,0.1,2806.66834702989,1241.79219218942
63,104,3,449,-0.5,-0.5,0,3,NaN,0.4,2,861,0,0,NaN,0,0,0.6,0.4,1.00557072362511,NaN,750,0,1,neutral,0,3148.17925595376,7647.09319696134
63,104,3,450,0.5,0.5,0.5,4,2,0.4,1,984,0,0,NaN,0,0,0.6,NaN,1.8841189096352,NaN,750,0,1,incongruent,0,1914.66784832259,921.628101230704
63,104,4,452,-0.5,0.5,0.5,3,2,0.2,2,599,0,1,NaN,0,0,0.4,0.4,-0.865808339258176,NaN,750,1,0,incongruent,0,2599.46869055156,1305.1625215773
63,104,4,453,-0.5,0.5,-0.5,1,1,0.2,4,676,0,1,NaN,0,0,0.2,0.2,-0.3158228894795,NaN,750,0,1,congruent,0,12511.5226684639,2087.90586373754
63,104,4,454,0.5,0.5,0,3,NaN,0.2,2,565,0,1,NaN,0,0,0,NaN,-1.10865905734227,NaN,750,0,1,neutral,0,2777.174753848,3354.20614579391
63,104,4,455,0.5,-0.5,0.5,2,4,0,2,612,1,1,612,0,0,0,NaN,-0.772953652931906,-0.772953652931906,750,0,0,incongruent,0,1924.90056715861,595.70922428563
63,104,4,456,0.5,0.5,-0.5,3,3,0,3,761,1,0,761,0,0,0,NaN,0.291303905730727,0.291303905730727,750,1,0,congruent,0,2153.91049816581,3143.35459916011
63,104,4,457,-0.5,0.5,0.5,2,4,0,2,892,1,0,892,0,0,0,0.2,1.22699343717237,1.22699343717237,750,0,0,incongruent,0,2903.72031887451,2311.51548760393
63,104,4,459,0.5,0.5,0.5,3,2,0,2,695,0,1,NaN,0,0,0,NaN,-0.180112194079567,NaN,750,1,0,incongruent,0,1001.88224517451,834.862173042624
63,104,4,460,-0.5,0.5,-0.5,1,1,0,1,847,1,0,847,0,0,0,0.2,0.905573369119898,0.905573369119898,750,1,0,congruent,0,1174.07390803781,1400.14606030218
63,104,4,461,0.5,0.5,0,2,NaN,0,2,690,1,1,690,1,0,0,NaN,-0.215825534974286,-0.215825534974286,750,0,0,neutral,1,2641.30309902244,1935.36580986641
63,104,4,462,-0.5,-0.5,-0.5,3,3,0.2,3,697,1,1,697,0,0,0.4,0.4,-0.165826857721679,-0.165826857721679,750,1,0,congruent,0,3121.34999031864,7307.74180289101
63,104,4,463,0.5,0.5,0.5,2,1,0.2,1,775,0,0,NaN,0,0,0.4,NaN,0.391301260235941,NaN,750,1,0,incongruent,0,1167.80308612493,2393.33061340453
63,104,4,464,-0.5,-0.5,0,4,NaN,0.2,3,730,0,1,NaN,0,0,0.4,0.4,0.0698811921834679,NaN,750,0,1,neutral,0,1951.33313815099,4611.28321993464
63,104,4,465,-0.5,0.5,-0.5,3,3,0.2,3,837,1,0,837,0,0,0.4,0,0.834146687330459,0.834146687330459,750,1,0,congruent,0,2616.6700949608,1714.44970428092
63,104,4,466,-0.5,0.5,-0.5,1,1,0.2,4,646,0,1,NaN,0,0,0.4,0,-0.530102934847815,NaN,750,0,1,congruent,0,2878.21083450492,3197.42661189916
63,104,4,467,-0.5,0.5,0.5,4,3,0.2,1,938,0,0,NaN,0,0,0,0,1.55555617340379,NaN,750,0,1,incongruent,0,1275.47737113083,1812.87578712775
63,104,4,468,-0.5,0.5,-0.5,2,2,0.2,2,505,1,1,505,1,0,0,0,-1.5372191480789,-1.5372191480789,750,1,0,congruent,0.1,1518.66886711065,1475.08346288802
63,104,4,469,-0.5,-0.5,0,1,NaN,0.2,3,706,0,1,NaN,0,0,0.2,0.2,-0.101542844111184,NaN,750,0,1,neutral,0,5225.54965970476,1778.01187742138
63,104,4,470,-0.5,0.5,-0.5,3,3,0.2,3,670,1,1,670,1,0,0.2,0.2,-0.358678898553163,-0.358678898553163,750,1,0,congruent,0.1,695.690934192829,1489.7327594885
63,104,4,471,0.5,-0.5,0,2,NaN,0.4,2,670,1,1,670,1,0,0.4,NaN,-0.358678898553163,-0.358678898553163,750,0,0,neutral,1,3110.89682174741,2198.33406132486
63,104,4,472,0.5,-0.5,-0.5,1,1,0.4,1,860,1,0,860,1,0,0.8,NaN,0.998428055446168,0.998428055446168,750,1,0,congruent,1,3803.77623819064,2129.54314377145
63,104,4,473,-0.5,0.5,0.5,4,3,0.4,2,818,0,0,NaN,0,0,1.2,0.4,0.698435991930526,NaN,750,0,1,incongruent,0,527.004879039988,3182.50483135686
63,104,4,474,-0.5,0.5,-0.5,2,2,0.4,2,655,1,1,655,1,0,1,0.4,-0.46581892123732,-0.46581892123732,750,1,0,congruent,0.1,2371.67228068165,2350.86212815313
63,104,4,475,-0.5,0.5,0,4,NaN,0.6,4,727,1,1,727,1,0,1.2,0.6,0.0484531876466364,0.0484531876466364,750,0,0,neutral,0.1,6592.53151294882,4622.63594922282
63,104,4,476,-0.5,0.5,-0.5,1,1,0.8,2,828,0,0,NaN,0,0,1.2,0.8,0.769862673719965,NaN,750,0,1,congruent,0,1891.99544041704,3540.51646613795
63,104,4,477,0.5,-0.5,-0.5,4,4,0.6,4,757,1,0,757,0,0,0.8,NaN,0.262733233014952,0.262733233014952,750,1,0,congruent,0,3858.21543228251,2803.12853340859
63,104,4,478,-0.5,-0.5,0.5,1,3,0.6,1,662,1,1,662,1,0,0.4,0,-0.415820243984714,-0.415820243984714,750,0,0,incongruent,0.1,3279.89618561662,2129.14529038754
63,104,4,480,-0.5,-0.5,0,3,NaN,0.6,2,791,0,0,NaN,1,0,0.4,0.2,0.505583951099042,NaN,750,0,1,neutral,0.1,1462.38404039568,2340.76849521487
63,104,4,481,-0.5,0.5,-0.5,2,2,0.6,2,557,1,1,557,1,0,0.4,0.6,-1.16580040277382,-1.16580040277382,750,1,0,congruent,0.1,1800.32918396994,1517.67219452728
63,104,4,482,-0.5,0.5,-0.5,1,1,0.6,1,885,1,0,885,0,0,0.6,0.6,1.17699475991976,1.17699475991976,750,1,0,congruent,0,1219.4418942931,1138.2739992149
63,104,4,484,-0.5,0.5,0.5,2,3,0.4,4,684,0,1,NaN,0,0,0.4,0.6,-0.258681544047949,NaN,750,0,1,incongruent,0,4028.78158694561,5103.48984902738
63,104,4,485,-0.5,0.5,0.5,4,2,0.2,3,656,0,1,NaN,0,0,0.4,0.4,-0.458676253058377,NaN,750,0,1,incongruent,0,1870.99868606264,3922.88394045233
63,104,4,486,-0.5,0.5,0,1,NaN,0.2,1,0,1,1,NaN,1,0,0.2,0.2,-5.14426657844554,-5.14426657844554,750,0,0,neutral,0.1,5237.81460115066,4249.26262537067
63,104,4,487,-0.5,0.5,-0.5,3,3,0.2,3,760,1,0,760,0,0,0.2,0.4,0.284161237551783,0.284161237551783,750,1,0,congruent,0,2311.41211687624,1943.42584748044
63,104,4,488,0.5,0.5,0.5,1,2,0.2,2,662,0,1,NaN,0,0,0.2,NaN,-0.415820243984714,NaN,750,1,0,incongruent,0,837.998934784196,1741.69038656993
63,104,4,491,0.5,-0.5,0.5,3,2,0.2,2,616,0,1,NaN,0,0,0.4,NaN,-0.74438298021613,NaN,750,1,0,incongruent,0,996.979891824754,1063.50525967558
63,104,4,493,0.5,0.5,0,3,NaN,0.2,3,868,1,0,868,0,0,0.2,NaN,1.05556940087772,1.05556940087772,750,0,0,neutral,0,597.128905617445,2202.82579290422
63,104,4,494,0.5,-0.5,-0.5,2,2,0.2,2,698,1,1,698,0,0,0.2,NaN,-0.158684189542735,-0.158684189542735,750,1,0,congruent,0,6966.36556811469,2937.2745596252
63,104,4,496,-0.5,-0.5,-0.5,4,4,0.2,3,703,0,1,NaN,0,0,0,0.6,-0.122970848648016,NaN,750,0,1,congruent,0,1031.05503807562,806.01754165521
63,104,4,497,0.5,0.5,-0.5,3,3,0.2,3,763,1,0,763,0,0,0,NaN,0.305589242088615,0.305589242088615,750,1,0,congruent,0,1700.06169673279,1751.83062540925
63,104,4,500,0.5,-0.5,0,3,NaN,0,2,645,0,1,NaN,0,0,0,NaN,-0.537245603026759,NaN,750,0,1,neutral,0,1159.65037670816,4932.88272226037
63,104,4,501,0.5,-0.5,-0.5,4,4,0,4,948,1,0,948,0,0,0,NaN,1.62698285519323,1.62698285519323,750,1,0,congruent,0,4277.78771323158,888.406731431632
63,104,4,502,-0.5,-0.5,0.5,1,2,0,2,743,0,1,NaN,0,0,0,0.6,0.162735878509738,NaN,750,1,0,incongruent,0,1071.80399472374,4695.88366167376
63,104,4,503,0.5,-0.5,-0.5,3,3,0,3,715,1,1,715,0,0,0,NaN,-0.0372588305006898,-0.0372588305006898,750,1,0,congruent,0,1345.02981596854,1203.81413368698
63,104,4,504,-0.5,-0.5,-0.5,4,4,0,3,769,0,0,NaN,0,0,0,0.6,0.348445251162278,NaN,750,0,1,congruent,0,820.855204169324,1393.45724464455
63,104,4,505,0.5,-0.5,-0.5,2,2,0,3,640,0,1,NaN,0,0,0,NaN,-0.572958943921478,NaN,750,0,1,congruent,0,4609.61931848264,3213.23214165279
63,104,4,506,0.5,-0.5,0.5,4,3,0,3,606,0,1,NaN,0,0,0,NaN,-0.815809662005569,NaN,750,1,0,incongruent,0,2901.26561566464,1628.49677868299
63,104,4,507,0.5,0.5,0.5,1,4,0,1,630,1,1,630,1,0,0,NaN,-0.644385625710917,-0.644385625710917,750,0,0,incongruent,1,3462.18281263831,1613.73324362447
63,104,4,508,-0.5,-0.5,0,3,NaN,0.2,3,699,1,1,699,0,0,0.4,0.4,-0.151541521363791,-0.151541521363791,750,0,0,neutral,0,2409.69468940305,10002.4863821977
63,104,4,509,-0.5,0.5,0.5,1,4,0.2,2,702,0,1,NaN,0,0,0.4,0.2,-0.13011351682696,NaN,750,0,1,incongruent,0,226.037875923896,1833.68611574214
63,104,4,510,0.5,-0.5,-0.5,3,3,0.2,4,0,0,1,NaN,0,0,0.4,NaN,-5.14426657844554,NaN,750,0,1,congruent,0,1833.3657710605,1961.84979096236
63,104,4,511,0.5,0.5,0,1,NaN,0.2,1,843,1,0,843,0,0,0.4,NaN,0.877002696404122,0.877002696404122,750,0,0,neutral,0,2000.39319117916,2673.45596301708
63,104,4,512,-0.5,0.5,0.5,3,1,0.2,4,670,0,1,NaN,0,0,0.4,0.2,-0.358678898553163,NaN,750,0,1,incongruent,0,3004.68237588931,2338.97675435083
63,104,4,514,-0.5,-0.5,0,2,NaN,0.2,2,702,1,1,702,1,0,0.2,0.2,-0.13011351682696,-0.13011351682696,750,0,0,neutral,0.1,1632.53412013348,470.007067489987
63,104,4,515,0.5,-0.5,-0.5,3,3,0.2,3,764,1,0,764,1,0,0.4,NaN,0.312731910267559,0.312731910267559,750,1,0,congruent,1,1940.59098714128,2835.70099117032
63,104,4,516,-0.5,-0.5,-0.5,2,2,0.2,2,628,1,1,628,1,0,0.8,0.4,-0.658670962068804,-0.658670962068804,750,1,0,congruent,0.1,4776.43541801651,1150.43600533278
63,104,4,518,0.5,-0.5,0,3,NaN,0.2,2,587,0,1,NaN,1,0,1,NaN,-0.951520357405502,NaN,750,0,1,neutral,1,2246.71261088062,1676.83093372862
63,104,4,519,-0.5,0.5,0.5,4,1,0.2,1,814,0,0,NaN,0,0,1.2,0.2,0.669865319214751,NaN,750,1,0,incongruent,0,3110.62471069896,444.765499658748
63,104,4,520,0.5,-0.5,0.5,1,3,0.2,3,877,0,0,NaN,0,0,1,NaN,1.11985341448821,NaN,750,1,0,incongruent,0,4994.2573806315,2837.19381580632
63,104,4,521,0.5,-0.5,-0.5,4,4,0.2,1,896,0,0,NaN,1,0,0.6,NaN,1.25556410988815,NaN,750,0,1,congruent,1,501.1545435449,5386.13391570633
63,104,4,522,-0.5,0.5,0.5,1,2,0.2,2,843,0,0,NaN,0,0,0.8,0,0.877002696404122,NaN,750,1,0,incongruent,0,1556.57175402651,4091.79886131597
63,104,4,523,0.5,0.5,0.5,3,4,0,3,982,1,0,982,0,0,0.8,NaN,1.86983357327732,1.86983357327732,750,0,0,incongruent,0,1904.00018203085,650.496733616733
63,104,4,524,0.5,0.5,0,4,NaN,0,1,864,0,0,NaN,0,0,0.4,NaN,1.02699872816194,NaN,750,0,1,neutral,0,1532.17062661814,1415.98499411534
63,104,4,525,0.5,-0.5,-0.5,3,3,0,3,812,1,0,812,0,0,0.4,NaN,0.655579982856863,0.655579982856863,750,1,0,congruent,0,14933.5712502842,2234.41937585418
63,104,4,526,0.5,-0.5,0.5,1,4,0,1,864,1,0,864,0,0,0.4,NaN,1.02699872816194,1.02699872816194,750,0,0,incongruent,0,891.473652007854,494.608830164157
63,104,4,528,-0.5,-0.5,0.5,1,3,0,2,370,0,1,NaN,0,0,0,0.6,-2.50147935223632,NaN,750,0,1,incongruent,0,5100.49454187988,2948.43937041926
63,104,4,530,-0.5,0.5,0.5,1,3,0,3,770,0,0,NaN,0,0,0,0,0.355587919341222,NaN,750,1,0,incongruent,0,1508.30427012886,715.083637981594
63,104,4,531,0.5,-0.5,0,2,NaN,0,2,615,1,1,615,0,0,0,NaN,-0.751525648395074,-0.751525648395074,750,0,0,neutral,0,3792.67684078316,1887.94237650659
63,104,4,534,0.5,0.5,-0.5,4,4,0,1,896,0,0,NaN,0,0,0,NaN,1.25556410988815,NaN,750,0,1,congruent,0,1729.54288189095,1261.78151192373
63,104,4,535,0.5,0.5,0.5,1,2,0,2,546,0,1,NaN,0,0,0,NaN,-1.2443697527422,NaN,750,1,0,incongruent,0,2904.3259227287,2642.69113131888
63,104,4,536,0.5,-0.5,-0.5,3,3,0,3,772,1,0,772,0,0,0,NaN,0.369873255699109,0.369873255699109,750,1,0,congruent,0,1335.62653116962,1594.53192209225
63,104,4,538,-0.5,0.5,0.5,3,2,0,2,583,0,1,NaN,0,0,0,0,-0.980091030121277,NaN,750,1,0,incongruent,0,1265.30902301526,2295.25026998023
63,104,4,539,0.5,-0.5,-0.5,4,4,0,2,660,0,1,NaN,0,0,0,NaN,-0.430105580342601,NaN,750,0,1,congruent,0,3704.27965505388,4282.21227654928
63,104,4,540,-0.5,-0.5,0.5,1,3,0,3,750,0,1,NaN,0,0,0,0.4,0.212734555762345,NaN,750,1,0,incongruent,0,879.780791402668,3503.71953070832
63,104,4,541,0.5,-0.5,-0.5,4,4,0,2,668,0,1,NaN,0,0,0,NaN,-0.372964234911051,NaN,750,0,1,congruent,0,2036.85503208195,1419.72214696913
63,104,4,542,0.5,-0.5,0,2,NaN,0,2,603,1,1,603,0,0,0,NaN,-0.8372376665424,-0.8372376665424,750,0,0,neutral,0,1399.96521559897,6570.86581548691
63,104,4,543,0.5,0.5,-0.5,4,4,0,4,914,1,0,914,0,0,0,NaN,1.38413213710914,1.38413213710914,750,1,0,congruent,0,1873.92584599222,4693.98792674468
63,104,4,544,-0.5,-0.5,-0.5,2,2,0,2,581,1,1,581,0,0,0,0.2,-0.994376366479165,-0.994376366479165,750,1,0,congruent,0,1213.06902386155,3242.18569426066
63,104,4,545,0.5,0.5,0,1,NaN,0,3,756,0,0,NaN,0,0,0,NaN,0.255590564836008,NaN,750,0,1,neutral,0,1805.74810572664,3509.36098067335
63,104,4,546,0.5,-0.5,-0.5,2,2,0,2,612,1,1,612,0,0,0,NaN,-0.772953652931906,-0.772953652931906,750,1,0,congruent,0,1911.48322533624,1702.21143097376
63,104,4,547,0.5,-0.5,0,3,NaN,0,3,794,1,0,794,0,0,0,NaN,0.527011955635874,0.527011955635874,750,0,0,neutral,0,4326.50718453105,4852.79409897485
63,104,4,549,-0.5,0.5,0,3,NaN,0,3,743,1,1,743,1,0,0,0,0.162735878509738,0.162735878509738,750,0,0,neutral,0.1,1546.7767305341,1210.30128763491
63,104,4,550,-0.5,-0.5,-0.5,2,2,0.2,2,914,1,0,914,0,0,0.2,0,1.38413213710914,1.38413213710914,750,1,0,congruent,0,5342.31214265633,3810.75448330979
63,104,4,552,-0.5,0.5,-0.5,4,4,0.2,2,894,0,0,NaN,0,0,0.2,0.2,1.24127877353026,NaN,750,0,1,congruent,0,1381.65866970046,4236.71172446603
63,104,4,553,-0.5,-0.5,0.5,2,3,0.2,3,734,0,1,NaN,1,0,0.2,0,0.0984518648992433,NaN,750,1,0,incongruent,0.1,519.059729891807,1398.29657342902
63,104,4,554,-0.5,0.5,0,3,NaN,0.2,3,785,1,0,785,0,0,0.4,0.2,0.462727942025379,0.462727942025379,750,0,0,neutral,0,2069.91513074696,3560.79022951531
63,104,4,555,-0.5,0.5,-0.5,4,4,0.2,3,748,0,1,NaN,0,0,0.2,0.2,0.198449219404457,NaN,750,0,1,congruent,0,5708.93888779079,1252.94663766241
63,104,4,557,-0.5,0.5,-0.5,3,3,0.2,2,842,0,0,NaN,0,0,0.2,0.2,0.869860028225178,NaN,750,0,1,congruent,0,3772.5375606997,1743.67525196514
63,104,4,558,-0.5,0.5,-0.5,2,2,0,2,562,1,1,562,1,0,0.2,0,-1.1300870618791,-1.1300870618791,750,1,0,congruent,0.1,2661.46662380974,3506.26465059861
63,104,4,560,0.5,-0.5,0,2,NaN,0.2,2,664,1,1,664,0,0,0.2,NaN,-0.401534907626826,-0.401534907626826,750,0,0,neutral,0,1703.58322706899,2113.60931706114
63,104,4,562,0.5,0.5,0.5,3,1,0.2,3,759,1,0,759,0,0,0.2,NaN,0.277018569372839,0.277018569372839,750,0,0,incongruent,0,1280.1019979964,777.431540185601
63,104,4,563,-0.5,-0.5,-0.5,2,2,0.2,2,716,1,1,716,0,0,0.2,0.2,-0.0301161623217459,-0.0301161623217459,750,1,0,congruent,0,4724.0827692018,606.795371725484
63,104,4,564,-0.5,0.5,0.5,4,3,0.2,3,909,0,0,NaN,0,0,0,0.2,1.34841879621442,NaN,750,1,0,incongruent,0,3599.7962821708,1280.25726513704
63,104,4,565,0.5,0.5,0.5,2,1,0.2,1,708,0,1,NaN,0,0,0,NaN,-0.0872575077532967,NaN,750,1,0,incongruent,0,1758.67823802159,2733.2539804353
63,104,4,568,-0.5,-0.5,0.5,3,2,0,2,716,0,1,NaN,0,0,0,0.2,-0.0301161623217459,NaN,750,1,0,incongruent,0,2431.50106766352,3376.63946054707
63,104,4,569,0.5,0.5,0.5,2,1,0,3,807,0,0,NaN,0,0,0,NaN,0.619866641962144,NaN,750,0,1,incongruent,0,3088.3520288069,6626.92911157499
63,104,4,570,-0.5,-0.5,0,4,NaN,0,4,993,1,0,993,0,0,0,0,1.9484029232457,1.9484029232457,750,0,0,neutral,0,1272.46754489844,4262.37551969232
63,104,4,571,-0.5,0.5,-0.5,2,2,0,2,738,1,1,738,1,0,0,0.2,0.127022537615019,0.127022537615019,750,1,0,congruent,0.1,1114.82180758602,1451.1550695322
63,104,4,572,-0.5,-0.5,0,1,NaN,0.2,3,821,0,0,NaN,1,0,0.2,0,0.719863996467358,NaN,750,0,1,neutral,0.1,3023.91238622952,4548.52092085345
63,104,4,573,0.5,-0.5,0.5,2,4,0.2,1,933,0,0,NaN,0,0,0.4,NaN,1.51984283250907,NaN,750,0,1,incongruent,0,2256.61343497157,1588.90355564707
63,104,4,574,0.5,0.5,0.5,4,2,0.2,3,798,0,0,NaN,0,0,0.4,NaN,0.555582628351649,NaN,750,0,1,incongruent,0,1677.5717666429,513.587431335627
63,104,4,575,-0.5,-0.5,0,3,NaN,0.2,4,538,0,1,NaN,0,0,0.4,0.2,-1.30151109817375,NaN,750,0,1,neutral,0,1003.8231784252,3130.68773442223
63,104,4,576,-0.5,0.5,0.5,2,4,0.2,3,583,0,1,NaN,0,0,0.4,0.4,-0.980091030121277,NaN,750,0,1,incongruent,0,1756.08555786629,2091.93675977529
63,104,4,579,0.5,-0.5,-0.5,1,1,0.4,1,813,1,0,813,1,0,0.2,NaN,0.662722651035807,0.662722651035807,750,1,0,congruent,1,1973.81299330663,3872.01987781503
63,104,4,580,-0.5,-0.5,0,3,NaN,0.4,3,863,1,0,863,1,0,0.6,0.2,1.019856059983,1.019856059983,750,0,0,neutral,0.1,1120.75858031811,4014.6656748526
63,104,4,581,0.5,-0.5,-0.5,1,1,0.4,2,881,0,0,NaN,1,0,0.8,NaN,1.14842408720399,NaN,750,0,1,congruent,1,2334.98915148651,4830.00793785403
63,104,4,582,0.5,-0.5,0.5,2,3,0.4,3,746,0,1,NaN,0,0,1.2,NaN,0.184163883046569,NaN,750,1,0,incongruent,0,2512.53343169534,4898.70932831078
63,104,4,583,-0.5,-0.5,0.5,3,4,0.4,2,671,0,1,NaN,0,0,1.2,0.4,-0.351536230374219,NaN,750,0,1,incongruent,0,2522.77351383172,1133.11021479069
63,104,4,584,0.5,-0.5,0.5,4,1,0.4,4,428,1,1,428,1,0,1,NaN,-2.08720459785757,-2.08720459785757,750,0,0,incongruent,1,2435.06505344316,2917.20252808935
63,104,4,585,-0.5,-0.5,0.5,1,3,0.4,2,679,0,1,NaN,1,0,1,0.4,-0.294394884942668,NaN,750,0,1,incongruent,0.1,3808.04300637447,6766.87938949723
63,104,4,586,0.5,0.5,0,2,NaN,0.4,2,620,1,1,620,1,0,1,NaN,-0.715812307500355,-0.715812307500355,750,0,0,neutral,1,4622.68380513683,3316.86116650433
63,104,4,588,0.5,-0.5,0.5,1,4,0.4,1,664,1,1,664,1,0,1,NaN,-0.401534907626826,-0.401534907626826,750,0,0,incongruent,1,997.984658370287,4571.49258852214
63,104,4,589,0.5,0.5,0.5,4,2,0.4,3,546,0,1,NaN,0,0,1.4,NaN,-1.2443697527422,NaN,750,0,1,incongruent,0,1886.4902667244,1669.18611021837
63,104,4,592,0.5,-0.5,0.5,3,1,0.4,2,460,0,1,NaN,0,0,0.6,NaN,-1.85863921613137,NaN,750,0,1,incongruent,0,1211.84253525402,2501.19601314011
63,104,4,593,-0.5,0.5,-0.5,4,4,0.4,2,465,0,1,NaN,0,0,0.6,0.6,-1.82292587523665,NaN,750,0,1,congruent,0,1539.84042371128,3120.34404265274
63,104,4,594,-0.5,-0.5,0.5,3,1,0.4,3,440,1,1,440,1,0,0.2,0.6,-2.00149257971025,-2.00149257971025,750,0,0,incongruent,0.1,1540.93257968913,1432.86155546799
63,104,4,597,-0.5,-0.5,0,3,NaN,0.4,3,582,1,1,582,0,0,0.4,0.8,-0.987233698300221,-0.987233698300221,750,0,0,neutral,0,2204.96946749789,2448.0445406166
63,104,4,599,0.5,-0.5,0.5,4,2,0.4,1,608,0,1,NaN,0,0,0.4,NaN,-0.801524325647681,NaN,750,0,1,incongruent,0,2407.5983549365,2932.4036857002
63,104,4,600,0.5,-0.5,0.5,1,4,0.4,3,368,0,1,NaN,1,0,0.2,NaN,-2.5157646885942,NaN,750,0,1,incongruent,1,1220.59889777079,1648.47828646205
