subid,vers,block,trial,rewlvl,efflvl,congruency,targetresp,distractorresp,rollingefflvl,resp,rt,acc,fast,accrt,isrewarded,ismiss,runavgrrgen,runavgrrcond,zrt,acczrt,rtthreshold,isdisterror,isranderror,congruence,feedback,fcz_resp_theta,fcz_resp_theta_baseline
65,104,1,1,-0.5,0.5,0.5,1,2,1,1,739,1,1,739,1,0,0,0,0.867653407771187,0.867653407771187,750,0,0,incongruent,0.1,7115.52626196794,2329.95537622168
65,104,1,2,0.5,-0.5,-0.5,4,4,1,4,629,1,1,629,1,0,0.2,NaN,0.16271745139107,0.16271745139107,750,1,0,congruent,1,3886.28195484071,561.331030425988
65,104,1,3,-0.5,0.5,0.5,3,2,1,3,513,1,1,513,1,0,0.6,0.2,-0.580669557155235,-0.580669557155235,750,0,0,incongruent,0.1,12740.9302477098,4090.42962243622
65,104,1,4,0.5,0.5,0,4,NaN,1,4,585,1,1,585,1,0,0.8,NaN,-0.119256931160977,-0.119256931160977,750,0,0,neutral,1,1848.0374268599,2659.13186092927
65,104,1,5,0.5,-0.5,0.5,3,4,1,3,582,1,1,582,1,0,1.2,NaN,-0.138482457244071,-0.138482457244071,750,0,0,incongruent,1,3170.06249935061,3612.72273385317
65,104,1,6,-0.5,-0.5,0,2,NaN,1,2,643,1,1,643,1,0,1.6,0,0.252436573112176,0.252436573112176,750,0,0,neutral,0.1,2086.51222376459,1493.30917386011
65,104,1,7,-0.5,0.5,0.5,4,3,1,3,511,0,1,NaN,0,0,1.6,0.4,-0.593486574543965,NaN,750,1,0,incongruent,0,4707.75022156882,907.310002954384
65,104,1,8,-0.5,-0.5,0,3,NaN,0.8,1,845,0,0,NaN,0,0,1.2,0.2,1.54695532937384,NaN,750,0,1,neutral,0,9330.08631394548,6539.32231854066
65,104,1,9,-0.5,-0.5,0.5,2,3,0.8,2,828,1,0,828,0,0,1,0.2,1.43801068156965,1.43801068156965,750,0,0,incongruent,0,3027.51618445846,5341.38729877007
65,104,1,10,0.5,0.5,0,1,NaN,0.8,1,571,1,1,571,1,0,0.6,NaN,-0.208976052882083,-0.208976052882083,750,0,0,neutral,1,1736.8141635966,5864.93721635887
65,104,1,11,0.5,-0.5,0.5,2,3,0.8,2,612,1,1,612,1,0,0.6,NaN,0.05377280358687,0.05377280358687,750,0,0,incongruent,1,2127.6853630948,7378.28795112865
65,104,1,12,-0.5,-0.5,0.5,1,2,0.8,1,607,1,1,607,1,0,0.8,0.2,0.0217302601150465,0.0217302601150465,750,0,0,incongruent,0.1,3315.28037774415,4368.85630955273
65,104,1,13,-0.5,-0.5,0.5,3,1,0.8,3,911,1,0,911,1,0,1,0.4,1.96991690320192,1.96991690320192,750,0,0,incongruent,0.1,2826.94213335923,2340.46633492293
65,104,1,14,0.5,0.5,0.5,1,4,0.8,1,722,1,1,722,1,0,1.2,NaN,0.758708759966987,0.758708759966987,750,0,0,incongruent,1,4843.56421368891,3045.37693703129
65,104,1,16,-0.5,0.5,0.5,4,2,0.6,4,500,1,1,500,1,0,1.2,0.4,-0.663980170181976,-0.663980170181976,750,0,0,incongruent,0.1,7654.46744030821,4107.08002050954
65,104,1,17,-0.5,0.5,0.5,2,1,0.6,2,790,1,0,790,0,0,1,0.6,1.19448735118379,1.19448735118379,750,0,0,incongruent,0,1917.62926388099,2125.56492677418
65,104,1,18,0.5,0.5,-0.5,4,4,0.6,4,468,1,1,468,1,0,0.8,NaN,-0.869052448401647,-0.869052448401647,750,1,0,congruent,1,2530.79811274157,2191.88013372621
65,104,1,19,0.5,-0.5,0,2,NaN,0.6,2,732,1,1,732,0,0,1,NaN,0.822793846910634,0.822793846910634,750,0,0,neutral,0,21738.2679194418,3478.2917047857
65,104,1,20,0.5,-0.5,-0.5,3,3,0.6,3,587,1,1,587,0,0,0.6,NaN,-0.106439913772248,-0.106439913772248,750,1,0,congruent,0,6499.11933004962,2268.08066155766
65,104,1,21,0.5,0.5,0.5,4,1,0.6,4,771,1,0,771,0,0,0.6,NaN,1.07272568599086,1.07272568599086,750,0,0,incongruent,0,4336.05109727609,2750.39469988217
65,104,1,22,0.5,-0.5,-0.5,3,3,0.4,2,998,0,0,NaN,0,0,0.4,NaN,2.52745715961164,NaN,750,0,1,congruent,0,3629.01106370356,2324.39488829586
65,104,1,25,0.5,-0.5,-0.5,4,4,0.2,4,588,1,1,588,0,0,0,NaN,-0.100031405077883,-0.100031405077883,750,1,0,congruent,0,5546.52541834321,3040.92865747226
65,104,1,26,-0.5,-0.5,0,1,NaN,0.2,1,766,1,0,766,0,0,0,0.6,1.04068314251903,1.04068314251903,750,0,0,neutral,0,1993.71932905158,1749.75439592084
65,104,1,27,-0.5,-0.5,0.5,3,2,0.2,3,758,1,0,758,0,0,0,0.4,0.989415072964116,0.989415072964116,750,0,0,incongruent,0,2642.14866015559,2947.94618046425
65,104,1,28,0.5,0.5,0.5,4,1,0.2,4,667,1,1,667,1,0,0,NaN,0.406240781776928,0.406240781776928,750,0,0,incongruent,1,674.047242941621,13796.9787555368
65,104,1,30,0.5,-0.5,0,1,NaN,0.2,1,558,1,1,558,0,0,0.4,NaN,-0.292286665908824,-0.292286665908824,750,0,0,neutral,0,820.611973513772,10026.0098924582
65,104,1,31,0.5,-0.5,0.5,3,2,0.2,3,774,1,0,774,0,0,0.4,NaN,1.09195121207395,1.09195121207395,750,0,0,incongruent,0,1449.53218222385,2503.75086467029
65,104,1,32,0.5,-0.5,0.5,1,4,0.2,1,730,1,1,730,0,0,0.4,NaN,0.809976829521905,0.809976829521905,750,0,0,incongruent,0,3522.07795275605,452.868487090246
65,104,1,33,-0.5,0.5,0,4,NaN,0.2,4,574,1,1,574,1,0,0.4,0.4,-0.189750526798989,-0.189750526798989,750,0,0,neutral,0.1,13317.0910629911,2287.53363477283
65,104,1,34,-0.5,0.5,-0.5,3,3,0.4,3,913,1,0,913,0,0,0.2,0.4,1.98273392059064,1.98273392059064,750,1,0,congruent,0,4407.28086223553,2690.53875857323
65,104,1,36,0.5,-0.5,-0.5,3,3,0.6,3,615,1,1,615,1,0,0.4,NaN,0.0729983296699641,0.0729983296699641,750,1,0,congruent,1,3997.63613247263,7367.53391688186
65,104,1,37,-0.5,-0.5,0.5,1,4,0.6,4,595,0,1,NaN,1,0,0.8,0.4,-0.0551718442173299,NaN,750,1,0,incongruent,0.1,18212.9433834452,3500.56054793279
65,104,1,38,-0.5,0.5,0.5,3,1,0.6,1,675,0,1,NaN,0,0,1,0.6,0.457508851331846,NaN,750,1,0,incongruent,0,3552.03741393272,3335.89749711104
65,104,1,39,-0.5,0.5,0,4,NaN,0.4,4,792,1,0,792,0,0,0.8,0.4,1.20730436857252,1.20730436857252,750,0,0,neutral,0,1907.5739154625,1630.1282903488
65,104,1,40,-0.5,-0.5,0.5,3,1,0.4,3,955,1,0,955,0,0,0.8,0.6,2.25189128575396,2.25189128575396,750,0,0,incongruent,0,1960.86968815857,2851.51446455885
65,104,1,42,0.5,-0.5,-0.5,3,3,0.2,3,760,1,0,760,1,0,0.2,NaN,1.00223209035285,1.00223209035285,750,1,0,congruent,1,14108.6975807197,3108.24070511523
65,104,1,43,-0.5,-0.5,0,2,NaN,0.2,2,873,1,0,873,0,0,0.4,0.4,1.72639357281606,1.72639357281606,750,0,0,neutral,0,3991.47096824533,3430.00325067787
65,104,1,44,0.5,-0.5,0.5,4,2,0.2,4,974,1,0,974,0,0,0.4,NaN,2.37365295094689,2.37365295094689,750,0,0,incongruent,0,13418.1949577256,3038.73045243847
65,104,1,45,0.5,0.5,-0.5,1,1,0.2,1,665,1,1,665,1,0,0.4,NaN,0.393423764388199,0.393423764388199,750,1,0,congruent,1,5898.79626841969,2327.07353744108
65,104,1,46,-0.5,0.5,0,3,NaN,0.4,2,859,0,0,NaN,0,0,0.8,0.2,1.63667445109495,NaN,750,0,1,neutral,0,4310.32404418296,4397.18363206918
65,104,1,48,-0.5,0.5,0,4,NaN,0.2,4,547,1,1,547,1,0,0.4,0.2,-0.362780261546836,-0.362780261546836,750,0,0,neutral,0.1,2848.01635590534,4701.16043904871
65,104,1,49,-0.5,0.5,-0.5,3,3,0.4,3,573,1,1,573,1,0,0.6,0.2,-0.196159035493353,-0.196159035493353,750,1,0,congruent,0.1,1875.8833645649,1077.12919010794
65,104,1,50,-0.5,0.5,0,1,NaN,0.6,1,504,1,1,504,1,0,0.8,0.4,-0.638346135404518,-0.638346135404518,750,0,0,neutral,0.1,3132.05477827592,2386.3287397888
65,104,1,51,-0.5,-0.5,0.5,4,1,0.6,4,970,1,0,970,0,0,0.6,0.2,2.34801891616943,2.34801891616943,750,0,0,incongruent,0,1311.18122042593,9561.02345526151
65,104,1,52,-0.5,-0.5,0,1,NaN,0.6,1,624,1,1,624,1,0,0.6,0.2,0.130674907919246,0.130674907919246,750,0,0,neutral,0.1,11924.7226780666,1111.85336730106
65,104,1,53,-0.5,0.5,-0.5,4,4,0.6,4,524,1,1,524,1,0,0.8,0.6,-0.510175961517224,-0.510175961517224,750,1,0,congruent,0.1,6587.42687854434,2880.60679289384
65,104,1,54,0.5,0.5,0,2,NaN,0.8,2,350,1,1,350,1,0,0.8,NaN,-1.62525647433668,-1.62525647433668,750,0,0,neutral,1,2507.3629335604,2670.97631596347
65,104,1,55,0.5,0.5,0.5,1,4,1,1,744,1,1,744,1,0,1,NaN,0.89969595124301,0.89969595124301,750,0,0,incongruent,1,2823.43102581996,4256.77882927037
65,104,1,57,0.5,0.5,0.5,4,3,0.8,4,749,1,1,749,1,0,1.2,NaN,0.931738494714834,0.931738494714834,750,0,0,incongruent,1,1266.79012419935,2174.53537332887
65,104,1,58,-0.5,0.5,0.5,1,4,0.8,1,707,1,1,707,1,0,1.4,0.8,0.662581129551516,0.662581129551516,750,0,0,incongruent,0.1,3558.79811650049,1110.8197673541
65,104,1,59,-0.5,-0.5,0.5,3,1,0.8,3,642,1,1,642,1,0,1.4,0.4,0.246028064417811,0.246028064417811,750,0,0,incongruent,0.1,5248.58862373586,8138.91331334175
65,104,1,60,-0.5,-0.5,0,1,NaN,0.8,1,590,1,1,590,1,0,1.2,0.4,-0.0872143876891534,-0.0872143876891534,750,0,0,neutral,0.1,3574.2216658008,4599.68233122173
65,104,1,61,-0.5,-0.5,-0.5,4,4,0.8,4,584,1,1,584,1,0,1,0.6,-0.125665439855342,-0.125665439855342,750,1,0,congruent,0.1,5837.038654086,1377.85850724758
65,104,1,62,-0.5,0.5,-0.5,2,2,0.8,3,863,0,0,NaN,0,0,1.2,0.8,1.66230848587241,NaN,750,0,1,congruent,0,3705.70187447058,6035.16747297941
65,104,1,63,0.5,0.5,-0.5,1,1,0.6,1,429,1,1,429,1,0,0.8,NaN,-1.11898428748187,-1.11898428748187,750,1,0,congruent,1,7222.33485971365,4349.16183632973
65,104,1,64,0.5,-0.5,0.5,4,3,0.6,4,834,1,0,834,0,0,1,NaN,1.47646173373583,1.47646173373583,750,0,0,incongruent,0,2073.96602139077,1091.94205193647
65,104,1,65,0.5,0.5,0.5,3,1,0.6,1,753,0,0,NaN,0,0,0.8,NaN,0.957372529492293,NaN,750,1,0,incongruent,0,8752.17234643924,4655.98666354069
65,104,1,66,0.5,0.5,0.5,1,3,0.6,1,681,1,1,681,1,0,0.6,NaN,0.495959903498034,0.495959903498034,750,0,0,incongruent,1,2504.34204068513,4288.92404994645
65,104,1,67,0.5,0.5,0.5,3,2,0.6,2,903,0,0,NaN,0,0,0.8,NaN,1.918648833647,NaN,750,1,0,incongruent,0,9791.05722761229,5223.707020225
65,104,1,68,-0.5,0.5,0,1,NaN,0.4,1,586,1,1,586,1,0,0.8,0.6,-0.112848422466612,-0.112848422466612,750,0,0,neutral,0.1,2341.13427540227,4321.23435004657
65,104,1,69,0.5,-0.5,0.5,4,1,0.6,4,700,1,1,700,1,0,0.6,NaN,0.617721568690964,0.617721568690964,750,0,0,incongruent,1,2848.38210531692,5693.41357656273
65,104,1,70,-0.5,0.5,0,3,NaN,0.6,1,580,0,1,NaN,0,0,1,0.6,-0.1512994746328,NaN,750,0,1,neutral,0,23605.9833629923,4767.77103253704
65,104,1,72,-0.5,0.5,0,4,NaN,0.4,4,477,1,1,477,1,0,0.6,0.4,-0.811375870152365,-0.811375870152365,750,0,0,neutral,0.1,2516.93489960988,13028.3881365667
65,104,1,73,0.5,-0.5,-0.5,1,1,0.4,1,616,1,1,616,0,0,0.8,NaN,0.0794068383643288,0.0794068383643288,750,1,0,congruent,0,4769.79025600473,8031.01496284717
65,104,1,74,0.5,-0.5,0,3,NaN,0.4,2,720,0,1,NaN,0,0,0.6,NaN,0.745891742578258,NaN,750,0,1,neutral,0,4988.43479153913,1581.25722037543
65,104,1,75,-0.5,0.5,-0.5,2,2,0.4,2,740,1,1,740,1,0,0.2,0.4,0.874061916465552,0.874061916465552,750,1,0,congruent,0.1,11945.4144374374,1866.62452369245
65,104,1,76,-0.5,-0.5,0,3,NaN,0.6,3,735,1,1,735,1,0,0.4,0.8,0.842019372993728,0.842019372993728,750,0,0,neutral,0.1,2027.95095270172,1855.13046639491
65,104,1,77,0.5,-0.5,0.5,1,3,0.6,1,429,1,1,429,0,0,0.6,NaN,-1.11898428748187,-1.11898428748187,750,0,0,incongruent,0,4137.21209454029,970.01078018951
65,104,1,78,0.5,0.5,-0.5,2,2,0.6,2,598,1,1,598,1,0,0.4,NaN,-0.0359463181342358,-0.0359463181342358,750,1,0,congruent,1,4627.2550939141,1678.80625298868
65,104,1,79,-0.5,-0.5,0.5,3,1,0.6,3,859,1,0,859,1,0,0.8,1,1.63667445109495,1.63667445109495,750,0,0,incongruent,0.1,3683.64317985098,13353.1386309754
65,104,1,80,0.5,0.5,0,2,NaN,0.6,2,660,1,1,660,1,0,1,NaN,0.361381220916376,0.361381220916376,750,0,0,neutral,1,12295.4309831631,3662.46495374141
65,104,1,81,0.5,-0.5,-0.5,1,1,0.8,1,486,1,1,486,0,0,1.2,NaN,-0.753699291903082,-0.753699291903082,750,1,0,congruent,0,3488.01900840821,1763.57059723618
65,104,1,82,-0.5,0.5,0.5,4,2,0.8,4,609,1,1,609,1,0,1,0.6,0.0345472775037759,0.0345472775037759,750,0,0,incongruent,0.1,4274.71539924722,1357.43911118329
65,104,1,83,-0.5,-0.5,0,2,NaN,1,2,450,1,1,450,1,0,1.2,1,-0.984405604900211,-0.984405604900211,750,0,0,neutral,0.1,5923.35991535735,3610.84363694404
65,104,1,84,0.5,0.5,-0.5,4,4,1,4,516,1,1,516,1,0,1,NaN,-0.561444031072141,-0.561444031072141,750,1,0,congruent,1,2990.36602581286,2417.72131796438
65,104,1,85,0.5,-0.5,0,1,NaN,1,1,741,1,1,741,1,0,1.2,NaN,0.880470425159916,0.880470425159916,750,0,0,neutral,1,4729.61408183504,10486.9299648996
65,104,1,86,-0.5,-0.5,-0.5,4,4,1,4,668,1,1,668,1,0,1.2,1,0.412649290471293,0.412649290471293,750,1,0,congruent,0.1,472.251625460195,6741.9799057679
65,104,1,87,0.5,0.5,-0.5,1,1,1,1,655,1,1,655,1,0,1.4,NaN,0.329338677444552,0.329338677444552,750,1,0,congruent,1,9340.84908137464,3496.53026819104
65,104,1,88,-0.5,0.5,-0.5,3,3,1,3,742,1,1,742,1,0,1.6,0.6,0.886878933854281,0.886878933854281,750,1,0,congruent,0.1,336.42335311683,3191.49412011653
65,104,1,89,-0.5,0.5,-0.5,2,2,1,2,715,1,1,715,1,0,1.6,0.8,0.713849199106434,0.713849199106434,750,1,0,congruent,0.1,1355.52372839772,6309.09723560029
65,104,1,90,-0.5,0.5,0,3,NaN,1,3,648,1,1,648,1,0,1.4,1,0.284479116583999,0.284479116583999,750,0,0,neutral,0.1,6388.3469727759,6263.1591043105
65,104,1,91,-0.5,0.5,0.5,4,2,1,4,522,1,1,522,1,0,1.2,1,-0.522992978905953,-0.522992978905953,750,0,0,incongruent,0.1,1046.74146631561,1578.56902951685
65,104,1,92,-0.5,-0.5,0,3,NaN,1,3,738,1,1,738,1,0,1.2,1,0.861244899076822,0.861244899076822,750,0,0,neutral,0.1,4620.23863154333,3831.23764469084
65,104,1,93,-0.5,0.5,-0.5,4,4,1,4,493,1,1,493,1,0,1,1,-0.708839731042529,-0.708839731042529,750,1,0,congruent,0.1,4519.73920526966,3883.20454432506
65,104,1,94,-0.5,0.5,-0.5,1,1,1,1,468,1,1,468,1,0,1,1,-0.869052448401647,-0.869052448401647,750,1,0,congruent,0.1,12218.0225051923,744.848595967843
65,104,1,95,0.5,-0.5,0,2,NaN,1,3,647,0,1,NaN,1,0,1,NaN,0.278070607889634,NaN,750,0,1,neutral,1,2568.43730534391,2020.31712994235
65,104,1,96,0.5,0.5,-0.5,4,4,1,4,403,1,1,403,1,0,1.2,NaN,-1.28560551353535,-1.28560551353535,750,1,0,congruent,1,5836.11530801876,1892.55051341999
65,104,1,97,-0.5,0.5,0,3,NaN,1,3,793,1,0,793,0,0,1.4,1,1.21371287726688,1.21371287726688,750,0,0,neutral,0,9068.74146867934,1544.40706480549
65,104,1,98,-0.5,0.5,-0.5,4,4,0.8,4,372,1,1,372,1,0,1.2,0.8,-1.48426928306066,-1.48426928306066,750,1,0,congruent,0.1,1214.35245781322,1967.12642729755
65,104,1,99,-0.5,-0.5,-0.5,1,1,0.8,1,556,1,1,556,1,0,1.2,1,-0.305103683297553,-0.305103683297553,750,1,0,congruent,0.1,6437.4861946726,1820.62961922974
65,104,1,100,-0.5,0.5,-0.5,2,2,0.8,2,847,1,0,847,0,0,1.2,0.8,1.55977234676257,1.55977234676257,750,1,0,congruent,0,6266.33754929797,3124.82625172902
65,104,1,101,-0.5,0.5,0.5,1,3,0.6,1,892,1,0,892,0,0,0.8,0.6,1.84815523800899,1.84815523800899,750,0,0,incongruent,0,1644.25561248288,10230.3888961915
65,104,1,104,-0.5,0.5,-0.5,4,4,0.4,4,461,1,1,461,1,0,0.4,0.4,-0.9139120092622,-0.9139120092622,750,1,0,congruent,0.1,5488.51073999127,4357.07279709268
65,104,1,105,-0.5,0.5,0,1,NaN,0.4,1,544,1,1,544,1,0,0.4,0.4,-0.38200578762993,-0.38200578762993,750,0,0,neutral,0.1,1192.63452842599,980.006479839568
65,104,1,106,-0.5,-0.5,-0.5,3,3,0.6,3,580,1,1,580,1,0,0.6,0.8,-0.1512994746328,-0.1512994746328,750,1,0,congruent,0.1,3642.45587326093,8508.10922399838
65,104,1,107,0.5,0.5,0.5,4,1,0.6,4,741,1,1,741,1,0,0.8,NaN,0.880470425159916,0.880470425159916,750,0,0,incongruent,1,7189.09051028988,2104.90871966605
65,104,1,108,-0.5,0.5,0,2,NaN,0.6,2,835,1,0,835,0,0,1,0.6,1.4828702424302,1.4828702424302,750,0,0,neutral,0,4460.16134153929,4003.03867072589
65,104,1,109,-0.5,0.5,0.5,1,2,0.6,1,851,1,0,851,0,0,1,0.4,1.58540638154003,1.58540638154003,750,0,0,incongruent,0,2195.70171532562,3193.66462716798
65,104,1,110,0.5,0.5,-0.5,4,4,0.6,4,462,1,1,462,1,0,0.8,NaN,-0.907503500567835,-0.907503500567835,750,1,0,congruent,1,991.692082761447,1765.84057205833
65,104,1,111,-0.5,-0.5,-0.5,2,2,0.6,1,676,0,1,NaN,1,0,1,0.8,0.463917360026211,NaN,750,0,1,congruent,0.1,4828.02474911015,4640.70594429401
65,104,1,112,-0.5,-0.5,0.5,3,1,0.6,2,696,0,1,NaN,0,0,1,0.8,0.592087533913505,NaN,750,0,1,incongruent,0,2186.56438998979,2991.62713174685
65,104,1,113,0.5,-0.5,-0.5,2,2,0.6,2,721,1,1,721,1,0,0.6,NaN,0.752300251272622,0.752300251272622,750,1,0,congruent,1,15475.5972689945,1732.80791470665
65,104,1,114,0.5,0.5,0,1,NaN,0.6,1,582,1,1,582,1,0,1,NaN,-0.138482457244071,-0.138482457244071,750,0,0,neutral,1,3670.59322042046,4001.5619230744
65,104,1,115,0.5,0.5,0.5,4,1,0.6,4,487,1,1,487,1,0,1.4,NaN,-0.747290783208718,-0.747290783208718,750,0,0,incongruent,1,4752.72025400105,3559.3249743157
65,104,1,116,-0.5,-0.5,-0.5,3,3,0.6,3,575,1,1,575,0,0,1.4,0.6,-0.183342018104624,-0.183342018104624,750,1,0,congruent,0,11941.5249762652,3711.19115391836
65,104,1,117,-0.5,-0.5,-0.5,4,4,0.6,4,415,1,1,415,1,0,1.2,0.4,-1.20870340920298,-1.20870340920298,750,1,0,congruent,0.1,8391.87653912747,2504.19963612916
65,104,1,118,-0.5,-0.5,0.5,3,2,0.6,3,424,1,1,424,1,0,1.4,0.6,-1.15102683095369,-1.15102683095369,750,0,0,incongruent,0.1,4434.21360181505,6910.47401635625
65,104,1,119,-0.5,-0.5,0,1,NaN,0.6,1,434,1,1,434,1,0,1.2,0.6,-1.08694174401005,-1.08694174401005,750,0,0,neutral,0.1,6301.75687785225,2433.90149732013
65,104,1,120,-0.5,-0.5,-0.5,3,3,0.6,3,499,1,1,499,1,0,1,0.6,-0.670388678876341,-0.670388678876341,750,1,0,congruent,0.1,23634.6092010088,2033.30108796479
65,104,1,121,-0.5,0.5,0,4,NaN,0.6,4,669,1,1,669,1,0,0.8,0.4,0.419057799165658,0.419057799165658,750,0,0,neutral,0.1,1967.92933367874,2324.23138940856
65,104,1,122,0.5,-0.5,-0.5,1,1,0.8,1,489,1,1,489,0,0,1,NaN,-0.734473765819988,-0.734473765819988,750,1,0,congruent,0,2033.37512353619,1294.46228803035
65,104,1,123,-0.5,0.5,-0.5,3,3,0.8,3,476,1,1,476,1,0,0.8,0.6,-0.817784378846729,-0.817784378846729,750,1,0,congruent,0.1,2104.91692113694,706.315325269371
65,104,1,124,-0.5,0.5,0,2,NaN,1,2,865,1,0,865,0,0,0.8,0.6,1.67512550326114,1.67512550326114,750,0,0,neutral,0,3823.19909309123,2948.8854176374
65,104,1,125,-0.5,-0.5,-0.5,3,3,0.8,3,421,1,1,421,1,0,0.6,0.8,-1.17025235703679,-1.17025235703679,750,1,0,congruent,0.1,6490.27490555949,2349.93773389883
65,104,1,126,-0.5,0.5,0.5,1,2,0.8,1,813,1,0,813,0,0,0.6,0.4,1.34188305115417,1.34188305115417,750,0,0,incongruent,0,3834.65719905254,7712.21096401918
65,104,1,127,0.5,-0.5,-0.5,3,3,0.6,3,650,1,1,650,1,0,0.4,NaN,0.297296133972729,0.297296133972729,750,1,0,congruent,1,17459.7460557541,5468.66400670885
65,104,1,128,0.5,-0.5,0,4,NaN,0.6,4,519,1,1,519,1,0,0.8,NaN,-0.542218504989047,-0.542218504989047,750,0,0,neutral,1,5111.82692917891,1007.04480446549
65,104,1,129,0.5,-0.5,0.5,2,1,0.6,2,927,1,0,927,1,0,1,NaN,2.07245304231175,2.07245304231175,750,0,0,incongruent,1,2830.45270321681,7667.79527036769
65,104,1,130,0.5,-0.5,0,4,NaN,0.6,4,511,1,1,511,0,0,1.4,NaN,-0.593486574543965,-0.593486574543965,750,0,0,neutral,0,2229.50282746713,6405.74117327463
65,104,1,131,0.5,-0.5,-0.5,1,1,0.6,1,970,1,0,970,1,0,1.2,NaN,2.34801891616943,2.34801891616943,750,1,0,congruent,1,1919.06750521095,1206.49278630757
65,104,1,132,0.5,0.5,-0.5,2,2,0.6,2,610,1,1,610,1,0,1.6,NaN,0.0409557861981406,0.0409557861981406,750,1,0,congruent,1,1749.70428915078,1475.73485455845
65,104,1,133,-0.5,-0.5,-0.5,3,3,0.6,3,470,1,1,470,1,0,1.6,1,-0.856235431012917,-0.856235431012917,750,1,0,congruent,0.1,6157.35902645412,2579.10337550499
65,104,1,134,0.5,0.5,0,4,NaN,0.6,4,376,1,1,376,1,0,1.4,NaN,-1.4586352482832,-1.4586352482832,750,0,0,neutral,1,6521.84668320204,1919.94102789705
65,104,1,135,-0.5,0.5,-0.5,1,1,0.6,1,605,1,1,605,1,0,1.4,0.4,0.00891324272631706,0.00891324272631706,750,1,0,congruent,0.1,4231.04747220672,1449.16382628161
65,104,1,136,-0.5,-0.5,0,4,NaN,0.6,4,440,1,1,440,0,0,1.6,1,-1.04849069184386,-1.04849069184386,750,0,0,neutral,0,3862.21654495886,2172.89556179061
65,104,1,137,-0.5,0.5,-0.5,3,3,0.6,3,443,1,1,443,1,0,1.2,0.6,-1.02926516576076,-1.02926516576076,750,1,0,congruent,0.1,1063.43132977966,2589.72319849525
65,104,1,138,0.5,0.5,0,1,NaN,0.8,1,502,1,1,502,1,0,1,NaN,-0.651163152793247,-0.651163152793247,750,0,0,neutral,1,5751.68005547394,973.843287037269
65,104,1,139,-0.5,0.5,0.5,3,1,1,3,416,1,1,416,1,0,1.2,0.6,-1.20229490050861,-1.20229490050861,750,0,0,incongruent,0.1,5648.91934784501,1839.44227851367
65,104,1,140,-0.5,-0.5,0.5,4,2,1,4,498,1,1,498,1,0,1,0.8,-0.676797187570706,-0.676797187570706,750,0,0,incongruent,0.1,12498.5882413556,1261.64542155177
65,104,1,141,0.5,0.5,0,1,NaN,1,1,435,1,1,435,1,0,1,NaN,-1.08053323531568,-1.08053323531568,750,0,0,neutral,1,6871.21787509822,1154.69738268791
65,104,1,142,0.5,-0.5,-0.5,2,2,1,3,796,0,0,NaN,1,0,1.4,NaN,1.23293840334997,NaN,750,0,1,congruent,1,2010.81998833425,4646.58949314876
65,104,1,143,-0.5,-0.5,0,4,NaN,1,4,410,1,1,410,1,0,1.6,0.8,-1.2407459526748,-1.2407459526748,750,0,0,neutral,0.1,4397.89465534315,1718.04610046179
65,104,1,144,0.5,0.5,0.5,1,4,1,1,587,1,1,587,1,0,1.4,NaN,-0.106439913772248,-0.106439913772248,750,0,0,incongruent,1,2675.99678005073,3064.69504883337
65,104,1,145,-0.5,0.5,0.5,2,3,1,2,717,1,1,717,1,0,1.6,0.6,0.726666216495163,0.726666216495163,750,0,0,incongruent,0.1,2618.37409707756,1313.5932128708
65,104,1,146,0.5,0.5,-0.5,4,4,1,4,458,1,1,458,1,0,1.6,NaN,-0.933137535345294,-0.933137535345294,750,1,0,congruent,1,3795.22546576712,3187.66627129315
65,104,1,147,0.5,0.5,-0.5,3,3,1,3,432,1,1,432,1,0,1.6,NaN,-1.09975876139878,-1.09975876139878,750,1,0,congruent,1,10548.347491312,1522.87332063126
65,104,1,148,-0.5,0.5,0,1,NaN,1,1,480,1,1,480,1,0,1.6,0.8,-0.79215034406927,-0.79215034406927,750,0,0,neutral,0.1,2865.80026512319,8842.83264646135
65,104,1,149,0.5,-0.5,-0.5,3,3,1,3,429,1,1,429,1,0,1.6,NaN,-1.11898428748187,-1.11898428748187,750,1,0,congruent,1,1095.12935719339,2446.1566123373
65,104,1,150,-0.5,-0.5,0.5,4,2,1,4,559,1,1,559,1,0,1.6,0.8,-0.285878157214459,-0.285878157214459,750,0,0,incongruent,0.1,1336.00431359432,1869.73486596161
65,104,2,151,-0.5,-0.5,0,3,NaN,1,3,724,1,1,724,1,0,1.6,0.8,0.771525777355716,0.771525777355716,750,0,0,neutral,0.1,2739.49937194003,1159.67748235048
65,104,2,152,0.5,0.5,0.5,4,1,1,4,338,1,1,338,1,0,1.4,NaN,-1.70215857866906,-1.70215857866906,750,0,0,incongruent,1,1776.09959492662,1521.46562734918
65,104,2,153,0.5,0.5,0,1,NaN,1,1,333,1,1,333,1,0,1.4,NaN,-1.73420112214088,-1.73420112214088,750,0,0,neutral,1,5168.82252412758,3889.17058184023
65,104,2,154,-0.5,0.5,-0.5,4,4,1,4,517,1,1,517,1,0,1.6,1,-0.555035522377777,-0.555035522377777,750,1,0,congruent,0.1,10324.6342082596,1454.05436062865
65,104,2,155,-0.5,0.5,0.5,2,1,1,2,436,1,1,436,1,0,1.4,1,-1.07412472662132,-1.07412472662132,750,0,0,incongruent,0.1,5540.08585100088,5232.38500730155
65,104,2,156,0.5,0.5,0,4,NaN,1,4,490,1,1,490,1,0,1.4,NaN,-0.728065257125623,-0.728065257125623,750,0,0,neutral,1,3056.17043767492,1503.4073613806
65,104,2,157,0.5,0.5,-0.5,3,3,1,3,445,1,1,445,1,0,1.6,NaN,-1.01644814837203,-1.01644814837203,750,1,0,congruent,1,6482.74419077585,1914.93913445367
65,104,2,158,0.5,-0.5,0.5,1,2,1,1,561,1,1,561,1,0,1.6,NaN,-0.27306113982573,-0.27306113982573,750,0,0,incongruent,1,3689.9823826637,1735.51918411706
65,104,2,159,-0.5,-0.5,0,4,NaN,1,4,772,1,0,772,1,0,1.6,0.8,1.07913419468522,1.07913419468522,750,0,0,neutral,0.1,2012.85775597598,2180.68873286207
65,104,2,160,0.5,0.5,-0.5,3,3,1,3,495,1,1,495,1,0,1.6,NaN,-0.6960227136538,-0.6960227136538,750,1,0,congruent,1,1573.42617175475,4068.29905839574
65,104,2,161,-0.5,0.5,-0.5,4,4,1,4,416,1,1,416,1,0,1.8,1,-1.20229490050861,-1.20229490050861,750,1,0,congruent,0.1,8273.12301553901,5210.02316165485
65,104,2,162,-0.5,-0.5,0.5,3,1,1,3,820,1,0,820,1,0,1.6,1,1.38674261201473,1.38674261201473,750,0,0,incongruent,0.1,2042.65690874111,4976.10921386792
65,104,2,163,0.5,0.5,0,2,NaN,1,2,931,1,0,931,0,0,1.4,NaN,2.09808707708921,2.09808707708921,750,0,0,neutral,0,6303.61160812909,5024.51650140897
65,104,2,164,0.5,0.5,-0.5,4,4,0.8,4,427,1,1,427,1,0,1,NaN,-1.1318013048706,-1.1318013048706,750,1,0,congruent,1,1993.8405109329,922.932262463474
65,104,2,165,0.5,0.5,0,1,NaN,0.8,1,522,1,1,522,1,0,1.2,NaN,-0.522992978905953,-0.522992978905953,750,0,0,neutral,1,2140.62181607386,3078.11960145857
65,104,2,166,0.5,-0.5,-0.5,3,3,0.8,3,597,1,1,597,1,0,1.2,NaN,-0.0423548268286005,-0.0423548268286005,750,1,0,congruent,1,4904.44811312221,4541.18392664765
65,104,2,167,-0.5,0.5,0,4,NaN,0.8,4,425,1,1,425,1,0,1.4,1,-1.14461832225933,-1.14461832225933,750,0,0,neutral,0.1,6832.24817511779,1176.68139421831
65,104,2,168,-0.5,0.5,-0.5,3,3,0.8,3,763,1,0,763,0,0,1.4,1,1.02145761643594,1.02145761643594,750,1,0,congruent,0,3402.96981049914,3907.898090635
65,104,2,169,0.5,0.5,0,1,NaN,0.6,1,517,1,1,517,1,0,1.4,NaN,-0.555035522377777,-0.555035522377777,750,0,0,neutral,1,10170.7263791085,1136.41011918296
65,104,2,170,-0.5,0.5,-0.5,4,4,0.8,4,451,1,1,451,1,0,1.4,0.8,-0.977997096205847,-0.977997096205847,750,1,0,congruent,0.1,2569.43617982132,4405.9202450784
65,104,2,171,-0.5,-0.5,0.5,2,1,0.8,2,621,1,1,621,1,0,1.2,1,0.111449381836152,0.111449381836152,750,0,0,incongruent,0.1,6741.05928144306,1282.862043894
65,104,2,172,0.5,0.5,0.5,1,4,0.8,1,647,1,1,647,1,0,1,NaN,0.278070607889634,0.278070607889634,750,0,0,incongruent,1,6102.52035706157,1209.38035410383
65,104,2,173,0.5,-0.5,0.5,3,2,0.8,3,662,1,1,662,1,0,1.2,NaN,0.374198238305105,0.374198238305105,750,0,0,incongruent,1,6418.19634836934,2975.8436152171
65,104,2,175,-0.5,0.5,0.5,1,4,0.6,1,734,1,1,734,1,0,1.2,0.6,0.835610864299363,0.835610864299363,750,0,0,incongruent,0.1,1815.05305227547,1372.00281271215
65,104,2,176,-0.5,0.5,0.5,4,1,0.8,4,478,1,1,478,1,0,1.2,0.6,-0.804967361458,-0.804967361458,750,0,0,incongruent,0.1,1798.63097588219,2149.46727471624
65,104,2,177,-0.5,0.5,0.5,2,3,0.8,2,935,1,0,935,0,0,1.2,0.6,2.12372111186667,2.12372111186667,750,0,0,incongruent,0,3379.5889108953,12984.2058211739
65,104,2,178,-0.5,0.5,0,3,NaN,0.6,3,526,1,1,526,1,0,0.8,0.6,-0.497358944128494,-0.497358944128494,750,0,0,neutral,0.1,1604.00732173569,809.633995743102
65,104,2,179,-0.5,-0.5,0.5,1,3,0.6,4,829,0,0,NaN,0,0,0.6,1,1.44441919026401,NaN,750,0,1,incongruent,0,4760.98198628,5243.98017801472
65,104,2,180,0.5,-0.5,0,3,NaN,0.6,3,827,1,0,827,1,0,0.6,NaN,1.43160217287528,1.43160217287528,750,0,0,neutral,1,3872.87775881945,2004.75169565828
65,104,2,181,0.5,-0.5,-0.5,1,1,0.6,1,739,1,1,739,1,0,0.8,NaN,0.867653407771187,0.867653407771187,750,1,0,congruent,1,4105.13859997677,6103.31498428505
65,104,2,182,-0.5,-0.5,-0.5,4,4,0.6,4,565,1,1,565,0,0,1,0.8,-0.247427105048271,-0.247427105048271,750,1,0,congruent,0,2102.72647343815,2132.25265072065
65,104,2,183,-0.5,0.5,0.5,3,1,0.6,3,480,1,1,480,1,0,1,0.6,-0.79215034406927,-0.79215034406927,750,0,0,incongruent,0.1,3955.34137611103,2182.46327848271
65,104,2,184,0.5,-0.5,-0.5,4,4,0.8,4,391,1,1,391,1,0,1,NaN,-1.36250761786773,-1.36250761786773,750,1,0,congruent,1,1932.73696345555,4031.5878621117
65,104,2,185,0.5,-0.5,0,2,NaN,0.8,3,885,0,0,NaN,1,0,1.4,NaN,1.80329567714843,NaN,750,0,1,neutral,1,4101.65821623034,4984.22781344529
65,104,2,186,-0.5,0.5,-0.5,1,1,0.8,1,881,1,0,881,0,0,1.4,0.8,1.77766164237097,1.77766164237097,750,1,0,congruent,0,5965.40087386127,20756.3976119529
65,104,2,187,-0.5,-0.5,0.5,4,2,0.6,4,604,1,1,604,0,0,1,0.6,0.00250473403195236,0.00250473403195236,750,0,0,incongruent,0,4483.91042347281,1101.8709811148
65,104,2,188,0.5,-0.5,-0.5,3,3,0.6,3,653,1,1,653,1,0,1,NaN,0.316521660055823,0.316521660055823,750,1,0,congruent,1,2748.51681531067,3108.8055545145
65,104,2,189,0.5,0.5,-0.5,4,4,0.6,4,865,1,0,865,0,0,1.2,NaN,1.67512550326114,1.67512550326114,750,1,0,congruent,0,3188.73108578319,3134.9707406097
65,104,2,190,-0.5,-0.5,0,1,NaN,0.4,1,401,1,1,401,0,0,0.8,0.4,-1.29842253092408,-1.29842253092408,750,0,0,neutral,0,8559.17394024663,13071.4654129064
65,104,2,191,-0.5,0.5,-0.5,2,2,0.4,3,717,0,1,NaN,0,0,0.4,0.6,0.726666216495163,NaN,750,0,1,congruent,0,10835.0179822985,6173.99953107719
65,104,2,192,-0.5,-0.5,-0.5,4,4,0.4,4,414,1,1,414,1,0,0.4,0.2,-1.21511191789734,-1.21511191789734,750,1,0,congruent,0.1,2140.31921009575,3674.82937268429
65,104,2,194,-0.5,-0.5,-0.5,2,2,0.4,2,707,1,1,707,0,0,0.4,0.4,0.662581129551516,0.662581129551516,750,1,0,congruent,0,2147.12906496214,4297.57197786666
65,104,2,195,0.5,0.5,-0.5,3,3,0.4,3,491,1,1,491,1,0,0.4,NaN,-0.721656748431259,-0.721656748431259,750,1,0,congruent,1,9449.71847812165,1960.69879768415
65,104,2,196,-0.5,0.5,-0.5,2,2,0.4,2,552,1,1,552,1,0,0.8,0.4,-0.330737718075012,-0.330737718075012,750,1,0,congruent,0.1,3796.2335946504,2258.03853120946
65,104,2,197,-0.5,-0.5,0.5,3,1,0.4,3,958,1,0,958,0,0,1,0.4,2.27111681183706,2.27111681183706,750,0,0,incongruent,0,2390.21419164212,2943.30195063064
65,104,2,198,0.5,-0.5,-0.5,4,4,0.4,4,579,1,1,579,1,0,0.8,NaN,-0.157707983327165,-0.157707983327165,750,1,0,congruent,1,4214.99553040593,2811.09408641158
65,104,2,199,0.5,-0.5,0.5,3,1,0.4,3,822,1,0,822,1,0,1,NaN,1.39955962940346,1.39955962940346,750,0,0,incongruent,1,3334.70592394935,1616.50106051593
65,104,2,200,0.5,0.5,-0.5,4,4,0.4,4,580,1,1,580,1,0,1.4,NaN,-0.1512994746328,-0.1512994746328,750,1,0,congruent,1,8388.67033448222,2024.67092451875
65,104,2,201,0.5,0.5,-0.5,3,3,0.6,3,438,1,1,438,1,0,1.4,NaN,-1.06130770923259,-1.06130770923259,750,1,0,congruent,1,3428.78505613325,1474.83457488267
65,104,2,202,0.5,-0.5,0,1,NaN,0.8,2,654,0,1,NaN,1,0,1.6,NaN,0.322930168750187,NaN,750,0,1,neutral,1,918.51553322027,2191.9990350875
65,104,2,203,-0.5,0.5,0.5,4,3,0.8,4,709,1,1,709,1,0,2,0.6,0.675398146940246,0.675398146940246,750,0,0,incongruent,0.1,1775.64419647029,2511.05405984499
65,104,2,204,-0.5,0.5,-0.5,2,2,1,1,724,0,1,NaN,0,0,1.8,0.6,0.771525777355716,NaN,750,0,1,congruent,0,2482.38404366738,3546.18339634181
65,104,2,205,0.5,0.5,0,3,NaN,0.8,3,580,1,1,580,1,0,1.4,NaN,-0.1512994746328,-0.1512994746328,750,0,0,neutral,1,4481.57848175439,2378.38743858653
65,104,2,206,0.5,0.5,-0.5,1,1,0.8,1,723,1,1,723,1,0,1.4,NaN,0.765117268661352,0.765117268661352,750,1,0,congruent,1,5239.59531720025,916.540146684767
65,104,2,207,-0.5,-0.5,-0.5,3,3,0.8,3,547,1,1,547,1,0,1.4,0.4,-0.362780261546836,-0.362780261546836,750,1,0,congruent,0.1,4906.79115857241,3697.72720104411
65,104,2,209,0.5,0.5,0.5,2,4,0.8,2,818,1,0,818,0,0,1.4,NaN,1.373925594626,1.373925594626,750,0,0,incongruent,0,2520.21535005809,4461.96455688355
65,104,2,210,0.5,0.5,0.5,4,2,0.6,4,486,1,1,486,1,0,1.4,NaN,-0.753699291903082,-0.753699291903082,750,0,0,incongruent,1,4614.10270354708,2037.90903959034
65,104,2,211,-0.5,0.5,0.5,1,4,0.6,1,717,1,1,717,1,0,1.4,0.4,0.726666216495163,0.726666216495163,750,0,0,incongruent,0.1,1473.61138346796,6617.47536477337
65,104,2,212,0.5,-0.5,0.5,4,1,0.8,4,682,1,1,682,0,0,1.2,NaN,0.502368412192399,0.502368412192399,750,0,0,incongruent,0,3192.96987690192,1555.71992523845
65,104,2,213,0.5,-0.5,0.5,3,2,0.8,3,860,1,0,860,1,0,1,NaN,1.64308295978932,1.64308295978932,750,0,0,incongruent,1,1907.01445509333,4489.25691988182
65,104,2,214,0.5,-0.5,0,1,NaN,0.8,1,568,1,1,568,1,0,1,NaN,-0.228201578965177,-0.228201578965177,750,0,0,neutral,1,6839.71252174948,1488.98146794622
65,104,2,215,-0.5,-0.5,-0.5,4,4,0.8,4,436,1,1,436,1,0,1.4,0.6,-1.07412472662132,-1.07412472662132,750,1,0,congruent,0.1,7461.79179839616,1440.81995412507
65,104,2,216,-0.5,0.5,-0.5,3,3,0.8,3,534,1,1,534,1,0,1.2,0.6,-0.446090874573577,-0.446090874573577,750,1,0,congruent,0.1,3590.47226810399,2275.61669436274
65,104,2,217,-0.5,0.5,0.5,1,2,0.8,1,593,1,1,593,1,0,1.2,0.8,-0.0679888616060593,-0.0679888616060593,750,0,0,incongruent,0.1,1793.8804496833,1759.15132449875
65,104,2,218,0.5,-0.5,0,4,NaN,0.8,4,573,1,1,573,1,0,1.4,NaN,-0.196159035493353,-0.196159035493353,750,0,0,neutral,1,2771.8844027873,1614.87982439738
65,104,2,219,-0.5,0.5,-0.5,3,3,0.8,3,483,1,1,483,1,0,1.4,0.8,-0.772924817986176,-0.772924817986176,750,1,0,congruent,0.1,845.024870652489,2442.8281803369
65,104,2,220,0.5,-0.5,-0.5,1,1,1,1,433,1,1,433,1,0,1.2,NaN,-1.09335025270441,-1.09335025270441,750,1,0,congruent,1,3145.99436276155,2209.21308571538
65,104,2,221,-0.5,-0.5,0.5,4,2,1,4,613,1,1,613,1,0,1.4,0.6,0.0601813122812347,0.0601813122812347,750,0,0,incongruent,0.1,2219.21275549821,1808.71346702808
65,104,2,222,-0.5,0.5,0.5,3,1,1,3,666,1,1,666,1,0,1.4,0.8,0.399832273082564,0.399832273082564,750,0,0,incongruent,0.1,3173.17821420183,1505.84151616369
65,104,2,223,-0.5,-0.5,-0.5,4,4,1,4,961,1,0,961,1,0,1.4,0.6,2.29034233792015,2.29034233792015,750,1,0,congruent,0.1,2410.05232159325,3383.74676720939
65,104,2,224,0.5,-0.5,0,1,NaN,1,1,792,1,0,792,1,0,1.2,NaN,1.20730436857252,1.20730436857252,750,0,0,neutral,1,5036.82084808471,3034.48111639863
65,104,2,225,-0.5,0.5,-0.5,3,3,1,3,513,1,1,513,1,0,1.4,1,-0.580669557155235,-0.580669557155235,750,1,0,congruent,0.1,5850.84738506141,2657.19450759728
65,104,2,226,0.5,-0.5,0.5,1,2,1,1,589,1,1,589,1,0,1.2,NaN,-0.0936228963835181,-0.0936228963835181,750,0,0,incongruent,1,2614.68064389766,1163.41750758646
65,104,2,227,0.5,-0.5,-0.5,3,3,1,3,674,1,1,674,1,0,1.4,NaN,0.451100342637481,0.451100342637481,750,1,0,congruent,1,3623.05498593034,1636.33321034011
65,104,2,228,0.5,0.5,0.5,4,2,1,4,318,1,1,318,1,0,1.6,NaN,-1.83032875255635,-1.83032875255635,750,0,0,incongruent,1,3419.5239020164,3008.46871991072
65,104,2,229,-0.5,0.5,-0.5,3,3,1,3,439,1,1,439,1,0,1.8,1,-1.05489920053822,-1.05489920053822,750,1,0,congruent,0.1,6804.56234400083,1699.75662761007
65,104,2,230,0.5,-0.5,-0.5,1,1,1,1,548,1,1,548,1,0,1.6,NaN,-0.356371752852471,-0.356371752852471,750,1,0,congruent,1,5261.47071343402,1630.57178529691
65,104,2,231,0.5,0.5,0,4,NaN,1,4,520,1,1,520,1,0,1.8,NaN,-0.535809996294682,-0.535809996294682,750,0,0,neutral,1,1667.16584934319,2606.10184687352
65,104,2,232,-0.5,-0.5,-0.5,1,1,1,1,468,1,1,468,1,0,1.8,0.8,-0.869052448401647,-0.869052448401647,750,1,0,congruent,0.1,4420.48846514679,3420.57853656534
65,104,2,233,-0.5,-0.5,0,2,NaN,1,2,517,1,1,517,1,0,1.6,1,-0.555035522377777,-0.555035522377777,750,0,0,neutral,0.1,3057.55953458529,595.998379492587
65,104,2,234,0.5,0.5,0.5,1,4,1,2,752,0,0,NaN,0,0,1.4,NaN,0.950964020797928,NaN,750,0,1,incongruent,0,3860.13331823834,2550.74031465451
65,104,2,236,-0.5,-0.5,-0.5,1,1,0.8,1,525,1,1,525,1,0,1,1,-0.503767452822859,-0.503767452822859,750,1,0,congruent,0.1,3626.67233867169,777.751814084679
65,104,2,237,0.5,-0.5,0,2,NaN,0.8,2,775,1,0,775,1,0,0.8,NaN,1.09835972076832,1.09835972076832,750,0,0,neutral,1,2939.84227954009,1472.86986564048
65,104,2,238,0.5,-0.5,-0.5,1,1,0.8,1,592,1,1,592,1,0,1,NaN,-0.074397370300424,-0.074397370300424,750,1,0,congruent,1,4583.09506176275,1219.81943669607
65,104,2,239,0.5,-0.5,0.5,2,4,0.8,2,847,1,0,847,1,0,1.2,NaN,1.55977234676257,1.55977234676257,750,0,0,incongruent,1,2638.87963999923,5414.89471370716
65,104,2,240,0.5,-0.5,0,3,NaN,0.8,3,581,1,1,581,1,0,1.6,NaN,-0.144890965938436,-0.144890965938436,750,0,0,neutral,1,7830.0630739247,1297.33271555194
65,104,2,241,0.5,-0.5,-0.5,1,1,0.8,1,437,1,1,437,1,0,1.8,NaN,-1.06771621792695,-1.06771621792695,750,1,0,congruent,1,2535.32015214969,8041.47454204501
65,104,2,242,0.5,0.5,0,2,NaN,0.8,2,793,1,0,793,0,0,2,NaN,1.21371287726688,1.21371287726688,750,0,0,neutral,0,2868.55927100258,3137.54322567197
65,104,2,243,-0.5,-0.5,-0.5,1,1,0.6,1,490,1,1,490,1,0,1.6,1,-0.728065257125623,-0.728065257125623,750,1,0,congruent,0.1,2321.92964869994,3733.16090313043
65,104,2,244,-0.5,-0.5,0.5,3,2,0.6,3,626,1,1,626,1,0,1.4,1,0.143491925307976,0.143491925307976,750,0,0,incongruent,0.1,2574.0053876298,1941.88027663227
65,104,2,245,-0.5,-0.5,0,1,NaN,0.6,1,554,1,1,554,1,0,1.2,1,-0.317920700686283,-0.317920700686283,750,0,0,neutral,0.1,5813.9064365044,3986.62265827304
65,104,2,246,-0.5,0.5,-0.5,4,4,0.6,4,315,1,1,315,1,0,1,1,-1.84955427863945,-1.84955427863945,750,1,0,congruent,0.1,1586.8794736209,931.005237691999
65,104,2,247,0.5,0.5,-0.5,2,2,0.6,2,510,1,1,510,1,0,0.8,NaN,-0.599895083238329,-0.599895083238329,750,1,0,congruent,1,7581.2617541923,3575.33140934952
65,104,2,248,0.5,-0.5,-0.5,1,1,0.6,1,357,1,1,357,1,0,1.2,NaN,-1.58039691347613,-1.58039691347613,750,1,0,congruent,1,2652.0561957396,6109.67960194941
65,104,2,249,-0.5,-0.5,0.5,2,4,0.6,2,704,1,1,704,0,0,1.4,1,0.643355603468422,0.643355603468422,750,0,0,incongruent,0,5554.17004792343,2612.52816265739
65,104,2,250,0.5,-0.5,0,4,NaN,0.6,4,543,1,1,543,0,0,1.2,NaN,-0.388414296324294,-0.388414296324294,750,0,0,neutral,0,4880.12221724029,2828.36825901761
65,104,2,251,0.5,0.5,-0.5,2,2,0.6,3,423,0,1,NaN,0,0,1,NaN,-1.15743533964806,NaN,750,0,1,congruent,0,14483.1992881498,1333.79458669702
65,104,2,252,0.5,0.5,-0.5,4,4,0.4,4,496,1,1,496,1,0,0.8,NaN,-0.689614204959435,-0.689614204959435,750,1,0,congruent,1,3022.38586785038,4581.70526316212
65,104,2,253,0.5,0.5,-0.5,3,3,0.6,3,484,1,1,484,1,0,0.8,NaN,-0.766516309291812,-0.766516309291812,750,1,0,congruent,1,10029.8299789769,6153.52927503242
65,104,2,254,0.5,-0.5,-0.5,1,1,0.8,1,380,1,1,380,0,0,0.8,NaN,-1.43300121350574,-1.43300121350574,750,1,0,congruent,0,1765.65332172443,1211.09066542969
65,104,2,255,-0.5,-0.5,0,4,NaN,0.8,4,514,1,1,514,1,0,0.8,0.8,-0.574261048460871,-0.574261048460871,750,0,0,neutral,0.1,6102.00054848658,6312.03647978775
65,104,2,257,-0.5,-0.5,0.5,4,1,0.8,1,477,0,1,NaN,1,0,1,0.8,-0.811375870152365,NaN,750,1,0,incongruent,0.1,2835.83637679696,5780.9153141028
65,104,2,259,-0.5,-0.5,-0.5,1,1,0.8,1,615,1,1,615,1,0,0.6,0.8,0.0729983296699641,0.0729983296699641,750,1,0,congruent,0.1,4071.9787529361,6696.08331541521
65,104,2,260,0.5,-0.5,0,4,NaN,0.8,4,693,1,1,693,1,0,0.8,NaN,0.572862007830411,0.572862007830411,750,0,0,neutral,1,5933.67455377715,2113.55599205319
65,104,2,261,0.5,0.5,-0.5,3,3,0.8,3,461,1,1,461,1,0,1,NaN,-0.9139120092622,-0.9139120092622,750,1,0,congruent,1,4758.12569767031,1768.73566830372
65,104,2,262,0.5,0.5,0,2,NaN,0.8,2,821,1,0,821,0,0,1.4,NaN,1.39315112070909,1.39315112070909,750,0,0,neutral,0,4813.82905593862,2184.15775897495
65,104,2,263,-0.5,-0.5,-0.5,1,1,0.6,1,631,1,1,631,1,0,1.2,0.8,0.175534468779799,0.175534468779799,750,1,0,congruent,0.1,6850.66384516834,849.894978515141
65,104,2,264,0.5,0.5,-0.5,2,2,0.6,2,564,1,1,564,1,0,1.2,NaN,-0.253835613742636,-0.253835613742636,750,1,0,congruent,1,1083.39101350057,3309.42720859596
65,104,2,265,-0.5,-0.5,0.5,3,1,0.8,3,676,1,1,676,0,0,1.4,1,0.463917360026211,0.463917360026211,750,0,0,incongruent,0,2838.94137178751,5335.79265772397
65,104,2,266,0.5,0.5,-0.5,2,2,0.8,2,508,1,1,508,1,0,1,NaN,-0.612712100627059,-0.612712100627059,750,1,0,congruent,1,6986.17743149438,2896.80199178377
65,104,2,267,0.5,-0.5,0,4,NaN,0.8,4,554,1,1,554,1,0,1,NaN,-0.317920700686283,-0.317920700686283,750,0,0,neutral,1,820.701148433331,3139.15899874885
65,104,2,268,0.5,0.5,-0.5,2,2,0.8,2,533,1,1,533,1,0,1.4,NaN,-0.452499383267941,-0.452499383267941,750,1,0,congruent,1,6443.67329866659,1367.68913872232
65,104,2,269,-0.5,0.5,0,3,NaN,0.8,3,576,1,1,576,1,0,1.6,1,-0.176933509410259,-0.176933509410259,750,0,0,neutral,0.1,2405.93679406614,2471.75903473972
65,104,2,270,-0.5,0.5,0.5,4,2,0.8,4,664,1,1,664,1,0,1.4,1,0.387015255693834,0.387015255693834,750,0,0,incongruent,0.1,19313.9804058766,1873.95026300212
65,104,2,271,-0.5,-0.5,0.5,1,3,1,1,587,1,1,587,1,0,1.6,0.8,-0.106439913772248,-0.106439913772248,750,0,0,incongruent,0.1,5463.38205863965,2227.1819249457
65,104,2,272,-0.5,0.5,-0.5,4,4,1,4,442,1,1,442,1,0,1.4,1,-1.03567367445513,-1.03567367445513,750,1,0,congruent,0.1,2051.96674178256,5673.31653867662
65,104,2,273,0.5,0.5,0,3,NaN,1,2,561,0,1,NaN,0,0,1.2,NaN,-0.27306113982573,NaN,750,0,1,neutral,0,8572.42183370941,2889.42516548511
65,104,2,274,0.5,0.5,0.5,1,3,0.8,1,518,1,1,518,1,0,0.8,NaN,-0.548627013683412,-0.548627013683412,750,0,0,incongruent,1,13338.3261396298,2249.78887974771
65,104,2,275,0.5,0.5,0.5,3,1,0.8,3,566,1,1,566,1,0,1,NaN,-0.241018596353906,-0.241018596353906,750,0,0,incongruent,1,4054.18472702152,2801.10215654638
65,104,2,276,-0.5,-0.5,0.5,2,4,0.8,2,961,1,0,961,0,0,1.2,0.8,2.29034233792015,2.29034233792015,750,0,0,incongruent,0,2171.16974470028,1388.92242535368
65,104,2,277,0.5,-0.5,-0.5,1,1,0.8,1,998,1,0,998,1,0,1,NaN,2.52745715961164,2.52745715961164,750,1,0,congruent,1,4732.94216444648,801.346892640846
65,104,2,278,0.5,0.5,-0.5,2,2,0.8,3,783,0,0,NaN,0,0,1.2,NaN,1.14962779032323,NaN,750,0,1,congruent,0,5896.00480614439,2247.92556128753
65,104,2,279,0.5,-0.5,-0.5,4,4,0.6,4,603,1,1,603,1,0,1.2,NaN,-0.00390377466241234,-0.00390377466241234,750,1,0,congruent,1,7920.21607826361,2805.11738642464
65,104,2,280,0.5,-0.5,-0.5,2,2,0.6,2,805,1,0,805,1,0,1.2,NaN,1.29061498159926,1.29061498159926,750,1,0,congruent,1,5456.86796592796,1655.89846703631
65,104,2,281,0.5,-0.5,-0.5,4,4,0.6,4,506,1,1,506,0,0,1.2,NaN,-0.625529118015788,-0.625529118015788,750,1,0,congruent,0,3295.57988299103,5946.86557399243
65,104,2,282,0.5,0.5,0,1,NaN,0.6,1,633,1,1,633,1,0,1.2,NaN,0.188351486168529,0.188351486168529,750,0,0,neutral,1,3809.20357260067,2385.04830182897
65,104,2,283,-0.5,0.5,0.5,2,3,0.6,2,719,1,1,719,1,0,1.2,1,0.739483233883893,0.739483233883893,750,0,0,incongruent,0.1,4962.30547806077,4670.38782343804
65,104,2,284,0.5,-0.5,0.5,1,4,0.8,1,750,1,1,750,0,0,1.4,NaN,0.938147003409199,0.938147003409199,750,0,0,incongruent,0,5377.31301656806,3233.96588504418
65,104,2,285,-0.5,0.5,0,4,NaN,0.8,4,230,1,1,230,1,0,1,1,-2.39427751766045,-2.39427751766045,750,0,0,neutral,0.1,8379.37266118069,5052.97531546054
65,104,2,286,0.5,0.5,-0.5,2,2,0.8,2,442,1,1,442,1,0,0.8,NaN,-1.03567367445513,-1.03567367445513,750,1,0,congruent,1,4931.7727292784,1379.85191440412
65,104,2,287,-0.5,-0.5,0,3,NaN,0.8,3,747,1,1,747,1,0,1.2,0.6,0.918921477326104,0.918921477326104,750,0,0,neutral,0.1,2374.55325437241,900.817509882158
65,104,2,288,0.5,-0.5,-0.5,2,2,0.8,2,619,1,1,619,1,0,1,NaN,0.0986323644474229,0.0986323644474229,750,1,0,congruent,1,5374.89874262224,1326.82242329534
65,104,2,289,-0.5,0.5,-0.5,4,4,0.8,4,452,1,1,452,1,0,1.2,1,-0.971588587511482,-0.971588587511482,750,1,0,congruent,0.1,2027.16391661482,2299.45927181503
65,104,2,290,0.5,0.5,0,1,NaN,1,1,569,1,1,569,1,0,1.4,NaN,-0.221793070270812,-0.221793070270812,750,0,0,neutral,1,5183.03113584941,3177.77049443306
65,104,2,291,-0.5,0.5,-0.5,3,3,1,3,626,1,1,626,1,0,1.6,1,0.143491925307976,0.143491925307976,750,1,0,congruent,0.1,8634.81656826164,2359.1534137295
65,104,2,292,-0.5,-0.5,-0.5,1,1,1,1,328,1,1,328,1,0,1.4,0.6,-1.7662436656127,-1.7662436656127,750,1,0,congruent,0.1,1165.74676055761,3958.01613302326
65,104,2,293,-0.5,0.5,-0.5,3,3,1,3,703,1,1,703,1,0,1.4,1,0.636947094774058,0.636947094774058,750,1,0,congruent,0.1,8752.50736104329,6916.93346073421
65,104,2,294,0.5,0.5,0,1,NaN,1,1,439,1,1,439,1,0,1.2,NaN,-1.05489920053822,-1.05489920053822,750,0,0,neutral,1,4127.67693768455,3539.67133164709
65,104,2,295,0.5,0.5,-0.5,2,2,1,2,576,1,1,576,1,0,1.4,NaN,-0.176933509410259,-0.176933509410259,750,1,0,congruent,1,4302.08298936706,1277.21756993985
65,104,2,296,-0.5,0.5,0.5,4,3,1,4,604,1,1,604,1,0,1.4,1,0.00250473403195236,0.00250473403195236,750,0,0,incongruent,0.1,9446.37361072171,5270.76548277412
65,104,2,297,-0.5,0.5,0.5,1,2,1,1,616,1,1,616,1,0,1.4,1,0.0794068383643288,0.0794068383643288,750,0,0,incongruent,0.1,6391.04676382619,1986.4813680671
65,104,2,298,0.5,0.5,-0.5,3,3,1,3,569,1,1,569,1,0,1.4,NaN,-0.221793070270812,-0.221793070270812,750,1,0,congruent,1,1274.26822292566,2979.47288759048
65,104,2,299,0.5,0.5,-0.5,1,1,1,1,403,1,1,403,1,0,1.6,NaN,-1.28560551353535,-1.28560551353535,750,1,0,congruent,1,4808.65846178463,2952.62705789772
65,104,2,300,-0.5,-0.5,0.5,2,4,1,2,849,1,0,849,1,0,1.6,0.6,1.5725893641513,1.5725893641513,750,0,0,incongruent,0.1,3590.57288833836,5557.29950715324
65,104,3,301,0.5,-0.5,0.5,4,3,1,4,659,1,1,659,1,0,1.4,NaN,0.354972712222011,0.354972712222011,750,0,0,incongruent,1,1772.09946283337,1997.84536612399
65,104,3,302,0.5,0.5,0,2,NaN,1,1,474,0,1,NaN,0,0,1.6,NaN,-0.830601396235459,NaN,750,0,1,neutral,0,10361.4952011533,6325.84213546931
65,104,3,303,-0.5,-0.5,-0.5,4,4,0.8,4,464,1,1,464,1,0,1.4,0.8,-0.894686483179106,-0.894686483179106,750,1,0,congruent,0.1,7830.14699782299,1356.29941962838
65,104,3,304,-0.5,-0.5,0.5,2,3,0.8,1,791,0,0,NaN,1,0,1.2,0.8,1.20089585987815,NaN,750,0,1,incongruent,0.1,3515.07067183285,1753.97903499674
65,104,3,305,0.5,0.5,-0.5,4,4,0.8,4,458,1,1,458,1,0,1,NaN,-0.933137535345294,-0.933137535345294,750,1,0,congruent,1,3611.19972525248,1435.25000023971
65,104,3,307,0.5,0.5,-0.5,4,4,0.8,4,396,1,1,396,1,0,1.2,NaN,-1.33046507439591,-1.33046507439591,750,1,0,congruent,1,2891.89925776895,2438.82359149168
65,104,3,308,-0.5,-0.5,0.5,2,3,0.8,1,512,0,1,NaN,1,0,1.6,1,-0.5870780658496,NaN,750,0,1,incongruent,0.1,12378.8039149914,3900.42434625421
65,104,3,310,-0.5,-0.5,0.5,3,1,0.8,3,605,1,1,605,0,0,1.6,1,0.00891324272631706,0.00891324272631706,750,0,0,incongruent,0,2607.40368917872,750.99602071343
65,104,3,311,-0.5,0.5,0.5,1,4,0.8,4,593,0,1,NaN,0,0,1.2,1,-0.0679888616060593,NaN,750,1,0,incongruent,0,4081.44631786953,461.626660082671
65,104,3,312,0.5,0.5,0,2,NaN,0.6,1,520,0,1,NaN,0,0,0.8,NaN,-0.535809996294682,NaN,750,0,1,neutral,0,3791.32299365924,1925.81024790103
65,104,3,313,-0.5,-0.5,0.5,4,1,0.4,4,561,1,1,561,0,0,0.4,0.8,-0.27306113982573,-0.27306113982573,750,0,0,incongruent,0,11263.5713364203,1839.04043752326
65,104,3,314,-0.5,-0.5,-0.5,2,2,0.4,1,619,0,1,NaN,0,0,0.2,0.6,0.0986323644474229,NaN,750,0,1,congruent,0,8118.56762073938,2214.39688036323
65,104,3,315,0.5,0.5,0,3,NaN,0.4,1,587,0,1,NaN,0,0,0,NaN,-0.106439913772248,NaN,750,0,1,neutral,0,3794.19547147034,2818.76837982898
65,104,3,316,0.5,-0.5,-0.5,4,4,0.4,4,419,1,1,419,1,0,0,NaN,-1.18306937442552,-1.18306937442552,750,1,0,congruent,1,1223.48185257243,2582.2041593938
65,104,3,317,0.5,-0.5,0.5,2,3,0.4,3,830,0,0,NaN,0,0,0.4,NaN,1.45082769895837,NaN,750,1,0,incongruent,0,2672.76544578598,2426.40290916094
65,104,3,318,-0.5,-0.5,0,4,NaN,0.4,4,552,1,1,552,0,0,0.4,0.4,-0.330737718075012,-0.330737718075012,750,0,0,neutral,0,5773.858181076,2079.6796425967
65,104,3,319,-0.5,0.5,-0.5,3,3,0.4,3,552,1,1,552,1,0,0.4,0.8,-0.330737718075012,-0.330737718075012,750,1,0,congruent,0.1,4125.49003143879,6198.43062518279
65,104,3,320,-0.5,-0.5,0.5,1,2,0.4,1,741,1,1,741,0,0,0.6,0.2,0.880470425159916,0.880470425159916,750,0,0,incongruent,0,4323.2866346651,3523.26545387117
65,104,3,321,-0.5,-0.5,-0.5,4,4,0.4,4,572,1,1,572,0,0,0.6,0,-0.202567544187718,-0.202567544187718,750,1,0,congruent,0,3765.63873025576,2029.13677970201
65,104,3,322,0.5,0.5,0.5,3,2,0.4,3,436,1,1,436,1,0,0.2,NaN,-1.07412472662132,-1.07412472662132,750,0,0,incongruent,1,4123.23986106723,2823.32459681493
65,104,3,323,0.5,0.5,0,2,NaN,0.4,1,483,0,1,NaN,0,0,0.6,NaN,-0.772924817986176,NaN,750,0,1,neutral,0,2446.56830077694,2042.70501735135
65,104,3,324,-0.5,-0.5,-0.5,4,4,0.4,4,400,1,1,400,0,0,0.6,0,-1.30483103961845,-1.30483103961845,750,1,0,congruent,0,9934.19130663754,4386.75504213964
65,104,3,325,-0.5,0.5,0,2,NaN,0.4,1,467,0,1,NaN,0,0,0.4,0.8,-0.875460957096011,NaN,750,0,1,neutral,0,2261.70999468617,8570.56728613073
65,104,3,326,-0.5,0.5,-0.5,1,1,0.4,4,367,0,1,NaN,0,0,0.4,0.6,-1.51631182653248,NaN,750,0,1,congruent,0,11622.4703125743,1952.26631738524
65,104,3,327,-0.5,-0.5,0,4,NaN,0.4,4,414,1,1,414,1,0,0.4,0,-1.21511191789734,-1.21511191789734,750,0,0,neutral,0.1,3688.17659789242,1897.52761990522
65,104,3,328,0.5,-0.5,-0.5,2,2,0.4,1,489,0,1,NaN,1,0,0.2,NaN,-0.734473765819988,NaN,750,0,1,congruent,1,3737.19373428022,2991.73240890129
65,104,3,330,-0.5,-0.5,-0.5,3,3,0.2,3,559,1,1,559,0,0,0.6,0.2,-0.285878157214459,-0.285878157214459,750,1,0,congruent,0,11066.7506586811,2954.03009071643
65,104,3,332,0.5,0.5,0.5,3,4,0.2,3,919,1,0,919,0,0,0.6,NaN,2.02118497275683,2.02118497275683,750,0,0,incongruent,0,2691.46879372862,5040.33913396452
65,104,3,333,0.5,0.5,0.5,2,3,0,2,692,1,1,692,1,0,0.4,NaN,0.566453499136046,0.566453499136046,750,0,0,incongruent,1,4032.84106621257,3127.14427727965
65,104,3,334,-0.5,-0.5,0,3,NaN,0.2,3,724,1,1,724,0,0,0.4,0.2,0.771525777355716,0.771525777355716,750,0,0,neutral,0,7613.65821291886,5577.27264643298
65,104,3,335,-0.5,-0.5,0.5,1,4,0.2,1,622,1,1,622,1,0,0.4,0.2,0.117857890530517,0.117857890530517,750,0,0,incongruent,0.1,19547.0297111772,4705.57905244885
65,104,3,336,0.5,0.5,-0.5,2,2,0.2,2,881,1,0,881,0,0,0.6,NaN,1.77766164237097,1.77766164237097,750,1,0,congruent,0,2283.85859314923,2281.32853800583
65,104,3,338,0.5,-0.5,0,2,NaN,0.2,2,889,1,0,889,0,0,0.6,NaN,1.82892971192589,1.82892971192589,750,0,0,neutral,0,3580.77065128622,972.084438013898
65,104,3,339,-0.5,0.5,0.5,1,4,0.2,1,763,1,0,763,0,0,0.2,0.2,1.02145761643594,1.02145761643594,750,0,0,incongruent,0,8045.58061658494,7809.04451336686
65,104,3,340,-0.5,0.5,0,4,NaN,0.2,4,334,1,1,334,1,0,0.2,0.2,-1.72779261344652,-1.72779261344652,750,0,0,neutral,0.1,1369.50186815477,4069.90518367609
65,104,3,341,-0.5,-0.5,-0.5,1,1,0.4,1,470,1,1,470,1,0,0.2,0.4,-0.856235431012917,-0.856235431012917,750,1,0,congruent,0.1,1730.65025323621,3425.39417529104
65,104,3,342,-0.5,0.5,-0.5,4,4,0.4,4,411,1,1,411,1,0,0.4,0.2,-1.23433744398043,-1.23433744398043,750,1,0,congruent,0.1,1079.78573120041,2417.87816962481
65,104,3,343,-0.5,-0.5,0,2,NaN,0.6,3,575,0,1,NaN,1,0,0.6,0.4,-0.183342018104624,NaN,750,0,1,neutral,0.1,6947.8743453282,2387.66367715727
65,104,3,344,-0.5,-0.5,-0.5,3,3,0.6,3,681,1,1,681,1,0,0.8,0.6,0.495959903498034,0.495959903498034,750,1,0,congruent,0.1,1665.91020816082,4775.17801260165
65,104,3,345,0.5,-0.5,-0.5,2,2,0.6,2,550,1,1,550,0,0,1,NaN,-0.343554735463741,-0.343554735463741,750,1,0,congruent,0,5029.49144306536,2222.91747928574
65,104,3,346,-0.5,0.5,0.5,3,4,0.6,2,0,0,1,NaN,0,0,0.8,0.4,-3.86823451736433,NaN,750,0,1,incongruent,0,3300.89258193293,1564.2066448191
65,104,3,347,-0.5,-0.5,-0.5,2,2,0.4,2,814,1,0,814,0,0,0.6,0.8,1.34829155984854,1.34829155984854,750,1,0,congruent,0,5244.97818200293,4338.5638781586
65,104,3,348,0.5,0.5,-0.5,1,1,0.4,1,605,1,1,605,1,0,0.4,NaN,0.00891324272631706,0.00891324272631706,750,1,0,congruent,1,1969.37600976877,3600.40501219954
65,104,3,349,-0.5,-0.5,-0.5,2,2,0.6,2,824,1,0,824,1,0,0.6,0.8,1.41237664679219,1.41237664679219,750,1,0,congruent,0.1,3682.45271193533,1252.11636769423
65,104,3,350,-0.5,0.5,-0.5,1,1,0.6,1,502,1,1,502,1,0,0.6,0.4,-0.651163152793247,-0.651163152793247,750,1,0,congruent,0.1,5117.49944983748,2140.72869294382
65,104,3,351,-0.5,-0.5,0,2,NaN,0.8,2,642,1,1,642,1,0,0.8,0.8,0.246028064417811,0.246028064417811,750,0,0,neutral,0.1,2867.45956540488,1586.49912217769
65,104,3,352,-0.5,0.5,0.5,4,3,0.8,4,745,1,1,745,1,0,1,0.6,0.906104459937375,0.906104459937375,750,0,0,incongruent,0.1,978.780586123392,3794.96267035205
65,104,3,353,0.5,0.5,0.5,3,4,0.8,3,616,1,1,616,1,0,1.2,NaN,0.0794068383643288,0.0794068383643288,750,0,0,incongruent,1,7055.70650213376,3399.86261981879
65,104,3,354,0.5,0.5,-0.5,2,2,0.8,2,490,1,1,490,1,0,1.2,NaN,-0.728065257125623,-0.728065257125623,750,1,0,congruent,1,4828.4733414591,5406.90296039017
65,104,3,355,-0.5,0.5,-0.5,3,3,1,3,565,1,1,565,1,0,1.4,0.8,-0.247427105048271,-0.247427105048271,750,1,0,congruent,0.1,3508.44944173415,1376.17912710591
65,104,3,356,-0.5,-0.5,0.5,2,4,1,2,818,1,0,818,1,0,1.4,0.8,1.373925594626,1.373925594626,750,0,0,incongruent,0.1,2811.30710759798,2745.73058848814
65,104,3,357,0.5,-0.5,0,1,NaN,1,1,602,1,1,602,1,0,1.4,NaN,-0.010312283356777,-0.010312283356777,750,0,0,neutral,1,9234.72721098288,6532.86588626019
65,104,3,358,-0.5,0.5,-0.5,2,2,1,2,759,1,0,759,0,0,1.6,0.8,0.995823581658481,0.995823581658481,750,1,0,congruent,0,2056.82852035836,1268.73665992709
65,104,3,359,0.5,0.5,0.5,1,3,0.8,1,810,1,0,810,0,0,1.2,NaN,1.32265752507108,1.32265752507108,750,0,0,incongruent,0,4159.31319847332,4473.69808957525
65,104,3,360,-0.5,-0.5,0.5,4,1,0.6,4,569,1,1,569,0,0,0.8,0.8,-0.221793070270812,-0.221793070270812,750,0,0,incongruent,0,7568.04365777445,1221.58220313625
65,104,3,362,0.5,0.5,0,4,NaN,0.6,4,370,1,1,370,1,0,0.6,NaN,-1.49708630044939,-1.49708630044939,750,0,0,neutral,1,7561.67967314324,12185.0491225095
65,104,3,363,0.5,0.5,-0.5,2,2,0.6,2,550,1,1,550,1,0,0.6,NaN,-0.343554735463741,-0.343554735463741,750,1,0,congruent,1,10857.6800636513,3090.17205750223
65,104,3,364,0.5,0.5,0.5,4,1,0.6,4,412,1,1,412,1,0,1,NaN,-1.22792893528607,-1.22792893528607,750,0,0,incongruent,1,5487.60125771944,409.864272186434
65,104,3,365,0.5,-0.5,0,1,NaN,0.6,1,505,1,1,505,0,0,1.4,NaN,-0.631937626710153,-0.631937626710153,750,0,0,neutral,0,5702.43071503967,5083.33371045133
65,104,3,366,0.5,-0.5,-0.5,2,2,0.6,2,680,1,1,680,1,0,1.4,NaN,0.48955139480367,0.48955139480367,750,1,0,congruent,1,6542.21322723443,4375.43539890599
65,104,3,367,-0.5,0.5,0,4,NaN,0.6,4,422,1,1,422,1,0,1.6,0.6,-1.16384384834242,-1.16384384834242,750,0,0,neutral,0.1,2057.80833300523,1836.98705471138
65,104,3,368,0.5,0.5,-0.5,3,3,0.8,3,489,1,1,489,1,0,1.4,NaN,-0.734473765819988,-0.734473765819988,750,1,0,congruent,1,6045.84733163018,1631.6220024258
65,104,3,369,0.5,0.5,0,1,NaN,1,1,551,1,1,551,1,0,1.4,NaN,-0.337146226769377,-0.337146226769377,750,0,0,neutral,1,1862.18021558626,1686.64424713116
65,104,3,370,-0.5,0.5,-0.5,4,4,1,4,442,1,1,442,1,0,1.4,0.8,-1.03567367445513,-1.03567367445513,750,1,0,congruent,0.1,3643.41989767983,3983.1322474247
65,104,3,371,0.5,0.5,0,1,NaN,1,1,494,1,1,494,1,0,1.6,NaN,-0.702431222348165,-0.702431222348165,750,0,0,neutral,1,3979.6827725019,2407.40459118841
65,104,3,372,0.5,-0.5,0.5,3,1,1,3,671,1,1,671,1,0,1.6,NaN,0.431874816554387,0.431874816554387,750,0,0,incongruent,1,6905.19804322717,775.300359576977
65,104,3,373,-0.5,-0.5,0.5,4,3,1,4,762,1,0,762,1,0,1.8,0.8,1.01504910774157,1.01504910774157,750,0,0,incongruent,0.1,4422.77592626139,1783.6499654764
65,104,3,374,-0.5,-0.5,0,1,NaN,1,1,979,1,0,979,1,0,1.6,0.8,2.40569549441871,2.40569549441871,750,0,0,neutral,0.1,1484.15601752893,4589.20810208514
65,104,3,376,0.5,-0.5,-0.5,1,1,1,1,879,1,0,879,1,0,1.6,NaN,1.76484462498224,1.76484462498224,750,1,0,congruent,1,2927.61373573572,6086.39396231972
65,104,3,377,0.5,-0.5,-0.5,4,4,1,4,633,1,1,633,1,0,1.6,NaN,0.188351486168529,0.188351486168529,750,1,0,congruent,1,4245.26510040363,3234.68683096828
65,104,3,378,-0.5,0.5,-0.5,3,3,1,3,452,1,1,452,1,0,1.6,0.8,-0.971588587511482,-0.971588587511482,750,1,0,congruent,0.1,2577.45217672987,1228.79992206726
65,104,3,379,-0.5,-0.5,-0.5,1,1,1,2,400,0,1,NaN,1,0,1.6,0.8,-1.30483103961845,NaN,750,0,1,congruent,0.1,1066.81416914047,4948.03262059736
65,104,3,381,0.5,-0.5,0.5,3,1,1,3,791,1,0,791,1,0,1.6,NaN,1.20089585987815,1.20089585987815,750,0,0,incongruent,1,3988.35071987065,10082.2055554747
65,104,3,382,0.5,0.5,0.5,1,4,1,4,450,0,1,NaN,0,0,1.6,NaN,-0.984405604900211,NaN,750,1,0,incongruent,0,5013.96111981201,1244.15778470876
65,104,3,383,-0.5,-0.5,0.5,4,3,0.8,4,777,1,0,777,1,0,1.2,0.8,1.11117673815705,1.11117673815705,750,0,0,incongruent,0.1,6651.94794917798,6519.99212769887
65,104,3,384,0.5,0.5,-0.5,1,1,0.8,1,518,1,1,518,1,0,1.2,NaN,-0.548627013683412,-0.548627013683412,750,1,0,congruent,1,3656.24002650052,5165.83876869769
65,104,3,387,-0.5,-0.5,0,4,NaN,0.6,4,516,1,1,516,1,0,0.8,1,-0.561444031072141,-0.561444031072141,750,0,0,neutral,0.1,2976.89891533886,3244.46786608778
65,104,3,389,-0.5,0.5,0,1,NaN,0.6,1,464,1,1,464,1,0,1,0.8,-0.894686483179106,-0.894686483179106,750,0,0,neutral,0.1,3550.65077623626,3458.82757419493
65,104,3,390,-0.5,0.5,-0.5,2,2,0.6,2,661,1,1,661,1,0,0.8,0.8,0.36778972961074,0.36778972961074,750,1,0,congruent,0.1,4936.30135930252,1206.03914357946
65,104,3,391,-0.5,-0.5,0.5,4,3,0.6,4,698,1,1,698,0,0,0.8,1,0.604904551302234,0.604904551302234,750,0,0,incongruent,0,1436.70908229312,4711.0581552704
65,104,3,392,0.5,-0.5,0,2,NaN,0.6,2,754,1,0,754,1,0,0.8,NaN,0.963781038186657,0.963781038186657,750,0,0,neutral,1,5351.1491468744,3119.49448853828
65,104,3,393,-0.5,-0.5,-0.5,4,4,0.6,4,571,1,1,571,1,0,1,0.8,-0.208976052882083,-0.208976052882083,750,1,0,congruent,0.1,7029.7220615536,3360.98786804798
65,104,3,396,-0.5,-0.5,-0.5,2,2,0.6,2,650,1,1,650,0,0,0.6,0.6,0.297296133972729,0.297296133972729,750,1,0,congruent,0,6211.78170065494,1262.03720588442
65,104,3,397,-0.5,-0.5,0,1,NaN,0.6,1,469,1,1,469,1,0,0.6,0.4,-0.862643939707282,-0.862643939707282,750,0,0,neutral,0.1,3548.53001230949,4605.22035626972
65,104,3,398,-0.5,-0.5,-0.5,2,2,0.6,2,603,1,1,603,1,0,0.4,0.4,-0.00390377466241234,-0.00390377466241234,750,1,0,congruent,0.1,5820.74130805792,1596.81539258055
65,104,3,399,-0.5,0.5,0.5,3,4,0.6,3,624,1,1,624,1,0,0.4,1,0.130674907919246,0.130674907919246,750,0,0,incongruent,0.1,11283.7441266909,1901.47278347081
65,104,3,400,-0.5,0.5,-0.5,1,1,0.8,1,425,1,1,425,1,0,0.6,1,-1.14461832225933,-1.14461832225933,750,1,0,congruent,0.1,6225.15150871839,2617.14153074529
65,104,3,402,-0.5,0.5,0,1,NaN,0.8,1,475,1,1,475,1,0,1,1,-0.824192887541094,-0.824192887541094,750,0,0,neutral,0.1,5876.10097123496,2006.17902984919
65,104,3,403,-0.5,-0.5,0.5,4,2,1,4,680,1,1,680,1,0,1,0.6,0.48955139480367,0.48955139480367,750,0,0,incongruent,0.1,1867.99584896131,1690.67134429026
65,104,3,404,0.5,-0.5,-0.5,1,1,1,1,671,1,1,671,1,0,1,NaN,0.431874816554387,0.431874816554387,750,1,0,congruent,1,1355.00296612049,2618.90687913468
65,104,3,405,-0.5,-0.5,0.5,4,3,1,4,465,1,1,465,1,0,1.2,0.8,-0.888277974484741,-0.888277974484741,750,0,0,incongruent,0.1,2470.64739820347,2475.21291565003
65,104,3,406,-0.5,-0.5,-0.5,2,2,1,1,254,0,1,NaN,1,0,1.2,1,-2.24047330899569,NaN,750,0,1,congruent,0.1,2462.9735225443,3231.52632109593
65,104,3,407,-0.5,-0.5,0.5,3,4,1,3,983,1,0,983,1,0,1.2,1,2.43132952919617,2.43132952919617,750,0,0,incongruent,0.1,6949.37665736564,5308.2061596476
65,104,3,408,0.5,-0.5,0.5,4,3,1,4,612,1,1,612,1,0,1.2,NaN,0.05377280358687,0.05377280358687,750,0,0,incongruent,1,1065.70003548679,911.036011498394
65,104,3,409,0.5,-0.5,-0.5,2,2,1,2,524,1,1,524,1,0,1.4,NaN,-0.510175961517224,-0.510175961517224,750,1,0,congruent,1,1916.98828092263,2070.9352344888
65,104,3,410,0.5,0.5,0.5,3,4,1,3,937,1,0,937,0,0,1.4,NaN,2.1365381292554,2.1365381292554,750,0,0,incongruent,0,1825.1529372135,1568.67437172787
65,104,3,411,-0.5,-0.5,-0.5,2,2,0.8,2,751,1,0,751,1,0,1.2,1,0.944555512103563,0.944555512103563,750,1,0,congruent,0.1,5027.62948064579,2459.5189459267
65,104,3,412,-0.5,0.5,-0.5,3,3,0.8,3,832,1,0,832,0,0,1.2,1,1.4636447163471,1.4636447163471,750,1,0,congruent,0,1428.22028917526,1294.33513875498
65,104,3,413,-0.5,0.5,0,4,NaN,0.6,4,404,1,1,404,1,0,1,0.8,-1.27919700484099,-1.27919700484099,750,0,0,neutral,0.1,5968.40068204033,2244.40157920107
65,104,3,414,0.5,-0.5,0.5,2,3,0.6,2,815,1,0,815,0,0,0.8,NaN,1.3547000685429,1.3547000685429,750,0,0,incongruent,0,2162.90309652071,7021.63989779143
65,104,3,415,0.5,0.5,0,1,NaN,0.6,1,586,1,1,586,1,0,0.4,NaN,-0.112848422466612,-0.112848422466612,750,0,0,neutral,1,2467.60803606081,4770.33813926777
65,104,3,416,-0.5,-0.5,0.5,4,3,0.6,3,639,0,1,NaN,1,0,0.8,1,0.226802538334717,NaN,750,1,0,incongruent,0.1,3010.34734033162,967.485187834572
65,104,3,417,-0.5,-0.5,0.5,2,1,0.6,1,544,0,1,NaN,0,0,0.8,1,-0.38200578762993,NaN,750,1,0,incongruent,0,5487.9143593665,4966.45282867107
65,104,3,418,-0.5,0.5,-0.5,4,4,0.6,4,327,1,1,327,1,0,0.8,0.8,-1.77265217430707,-1.77265217430707,750,1,0,congruent,0.1,4009.52015618827,2537.01753233682
65,104,3,419,0.5,0.5,0.5,3,1,0.6,3,469,1,1,469,1,0,0.8,NaN,-0.862643939707282,-0.862643939707282,750,0,0,incongruent,1,7370.12573148424,1522.26488106833
65,104,3,420,-0.5,0.5,0.5,2,4,0.8,2,758,1,0,758,0,0,1.2,0.8,0.989415072964116,0.989415072964116,750,0,0,incongruent,0,5550.80154505086,4624.29665304303
65,104,3,421,0.5,-0.5,0,4,NaN,0.8,4,497,1,1,497,1,0,0.8,NaN,-0.683205696265071,-0.683205696265071,750,0,0,neutral,1,4921.24168065338,4750.22878408963
65,104,3,422,-0.5,0.5,-0.5,1,1,0.8,1,436,1,1,436,1,0,1,0.6,-1.07412472662132,-1.07412472662132,750,1,0,congruent,0.1,5463.41865025785,953.759947909302
65,104,3,423,0.5,0.5,0,2,NaN,0.8,2,660,1,1,660,1,0,1.2,NaN,0.361381220916376,0.361381220916376,750,0,0,neutral,1,1427.19792052879,6727.3631375021
65,104,3,424,0.5,0.5,-0.5,1,1,0.8,1,498,1,1,498,1,0,1.4,NaN,-0.676797187570706,-0.676797187570706,750,1,0,congruent,1,2965.58055767308,2494.18853005897
65,104,3,425,0.5,0.5,0,2,NaN,0.8,2,527,1,1,527,1,0,1.4,NaN,-0.49095043543413,-0.49095043543413,750,0,0,neutral,1,7562.99717323396,1871.48857722546
65,104,3,426,0.5,-0.5,-0.5,1,1,0.8,1,468,1,1,468,1,0,1.8,NaN,-0.869052448401647,-0.869052448401647,750,1,0,congruent,1,856.890544004569,2968.42073041928
65,104,3,427,-0.5,-0.5,0,2,NaN,0.8,2,510,1,1,510,1,0,1.8,0.8,-0.599895083238329,-0.599895083238329,750,0,0,neutral,0.1,5088.21931716222,2045.14795978781
65,104,3,428,-0.5,-0.5,0.5,3,1,0.8,3,484,1,1,484,1,0,1.8,0.8,-0.766516309291812,-0.766516309291812,750,0,0,incongruent,0.1,4849.71291544138,2952.59669592819
65,104,3,429,-0.5,0.5,-0.5,2,2,0.8,2,463,1,1,463,1,0,1.6,0.6,-0.90109499187347,-0.90109499187347,750,1,0,congruent,0.1,2693.11642174398,1952.16685789406
65,104,3,430,0.5,-0.5,0.5,3,4,1,4,629,0,1,NaN,1,0,1.4,NaN,0.16271745139107,NaN,750,1,0,incongruent,1,2222.54659028131,2007.47722923398
65,104,3,431,-0.5,0.5,0,4,NaN,1,4,524,1,1,524,1,0,1.4,0.8,-0.510175961517224,-0.510175961517224,750,0,0,neutral,0.1,8595.97221064058,2324.56506818643
65,104,3,432,-0.5,0.5,-0.5,2,2,1,2,593,1,1,593,1,0,1.2,0.8,-0.0679888616060593,-0.0679888616060593,750,1,0,congruent,0.1,4602.18132982721,2087.09437444626
65,104,3,433,0.5,0.5,0.5,4,3,1,4,694,1,1,694,1,0,1.2,NaN,0.579270516524775,0.579270516524775,750,0,0,incongruent,1,5732.35671854448,1511.34708432762
65,104,3,434,0.5,-0.5,0,3,NaN,1,3,866,1,0,866,1,0,1.4,NaN,1.6815340119555,1.6815340119555,750,0,0,neutral,1,3557.18528148236,1878.13560595879
65,104,3,435,0.5,0.5,-0.5,1,1,1,1,425,1,1,425,1,0,1.6,NaN,-1.14461832225933,-1.14461832225933,750,1,0,congruent,1,5300.20544642214,1376.4196733061
65,104,3,436,-0.5,-0.5,0,4,NaN,1,4,492,1,1,492,1,0,1.6,0.8,-0.715248239736894,-0.715248239736894,750,0,0,neutral,0.1,1664.27257593491,1927.2642607174
65,104,3,437,-0.5,-0.5,-0.5,3,3,1,2,772,0,0,NaN,1,0,1.6,0.8,1.07913419468522,NaN,750,0,1,congruent,0.1,8455.63779656081,5278.41706734314
65,104,3,438,-0.5,-0.5,-0.5,2,2,1,2,579,1,1,579,1,0,1.6,0.8,-0.157707983327165,-0.157707983327165,750,1,0,congruent,0.1,4340.73918421986,2251.02988615325
65,104,3,439,-0.5,-0.5,0.5,4,3,1,3,707,0,1,NaN,1,0,1.4,1,0.662581129551516,NaN,750,1,0,incongruent,0.1,2124.02546171589,3691.11737952972
65,104,3,440,0.5,-0.5,0.5,2,1,1,1,698,0,1,NaN,1,0,1.2,NaN,0.604904551302234,NaN,750,1,0,incongruent,1,9002.6778410439,1369.72611967481
65,104,3,442,-0.5,0.5,-0.5,1,1,1,1,539,1,1,539,1,0,1.2,0.8,-0.414048331101753,-0.414048331101753,750,1,0,congruent,0.1,2179.26414762516,4759.17294629899
65,104,3,443,-0.5,-0.5,-0.5,4,4,1,4,403,1,1,403,1,0,1.2,1,-1.28560551353535,-1.28560551353535,750,1,0,congruent,0.1,4479.05386193028,1794.44716935169
65,104,3,444,0.5,0.5,0,1,NaN,1,1,436,1,1,436,1,0,1.2,NaN,-1.07412472662132,-1.07412472662132,750,0,0,neutral,1,7284.20056242862,4065.68308105138
65,104,3,445,-0.5,-0.5,0.5,4,3,1,4,574,1,1,574,1,0,1.4,1,-0.189750526798989,-0.189750526798989,750,0,0,incongruent,0.1,7235.19000960416,1414.05820932659
65,104,3,446,0.5,-0.5,0.5,1,2,1,2,858,0,0,NaN,1,0,1.2,NaN,1.63026594240059,NaN,750,1,0,incongruent,1,1602.40668113837,2915.99414488832
65,104,3,448,-0.5,0.5,0,1,NaN,1,1,402,1,1,402,1,0,1.4,1,-1.29201402222972,-1.29201402222972,750,0,0,neutral,0.1,7145.26510223183,5847.43080862513
65,104,3,449,-0.5,-0.5,-0.5,3,3,1,3,747,1,1,747,1,0,1.4,1,0.918921477326104,0.918921477326104,750,1,0,congruent,0.1,1513.16068703973,1794.67704157443
65,104,3,450,0.5,0.5,0,4,NaN,1,4,323,1,1,323,1,0,1.2,NaN,-1.79828620908453,-1.79828620908453,750,0,0,neutral,1,3985.87365864433,2335.11453771523
65,104,4,451,-0.5,0.5,-0.5,2,2,1,1,662,0,1,NaN,0,0,1.4,1,0.374198238305105,NaN,750,0,1,congruent,0,3951.11325799811,4262.07690000241
65,104,4,452,-0.5,-0.5,-0.5,3,3,0.8,3,490,1,1,490,1,0,1,1,-0.728065257125623,-0.728065257125623,750,1,0,congruent,0.1,3740.40540148165,2046.3474068929
65,104,4,453,-0.5,0.5,0,4,NaN,0.8,4,443,1,1,443,1,0,1,0.8,-1.02926516576076,-1.02926516576076,750,0,0,neutral,0.1,1777.45637554553,1921.14203043753
65,104,4,455,-0.5,-0.5,0,4,NaN,0.6,4,344,1,1,344,1,0,0.8,1,-1.66370752650287,-1.66370752650287,750,0,0,neutral,0.1,2608.30957015106,3363.14125598884
65,104,4,456,-0.5,0.5,0.5,3,2,0.6,3,690,1,1,690,1,0,0.6,0.6,0.553636481747317,0.553636481747317,750,0,0,incongruent,0.1,2458.54303648542,3106.34179081973
65,104,4,458,0.5,0.5,0,3,NaN,0.6,3,487,1,1,487,1,0,0.8,NaN,-0.747290783208718,-0.747290783208718,750,0,0,neutral,1,3294.71124888244,2157.81496928034
65,104,4,459,0.5,0.5,-0.5,1,1,0.6,1,473,1,1,473,1,0,1,NaN,-0.837009904929823,-0.837009904929823,750,1,0,congruent,1,4198.82400209146,1470.68702032093
65,104,4,460,0.5,0.5,0,2,NaN,0.8,2,479,1,1,479,1,0,1.4,NaN,-0.798558852763635,-0.798558852763635,750,0,0,neutral,1,4660.74666850945,6298.24670393288
65,104,4,461,0.5,0.5,-0.5,3,3,0.8,3,474,1,1,474,1,0,1.6,NaN,-0.830601396235459,-0.830601396235459,750,1,0,congruent,1,7340.25168157339,1915.36611787255
65,104,4,462,0.5,-0.5,0.5,1,4,1,1,807,1,0,807,1,0,1.8,NaN,1.30343199898799,1.30343199898799,750,0,0,incongruent,1,4489.69282640267,2170.62566501894
65,104,4,463,-0.5,0.5,0.5,4,3,1,4,645,1,1,645,1,0,2,0.6,0.265253590500905,0.265253590500905,750,0,0,incongruent,0.1,6817.01145104611,2672.61664506004
65,104,4,464,0.5,0.5,0,2,NaN,1,2,642,1,1,642,1,0,1.8,NaN,0.246028064417811,0.246028064417811,750,0,0,neutral,1,5456.62325346118,5741.99365862543
65,104,4,465,0.5,0.5,-0.5,3,3,1,3,534,1,1,534,1,0,1.8,NaN,-0.446090874573577,-0.446090874573577,750,1,0,congruent,1,19106.1388224048,3247.78227749586
65,104,4,466,0.5,-0.5,-0.5,1,1,1,1,386,1,1,386,1,0,1.8,NaN,-1.39455016133955,-1.39455016133955,750,1,0,congruent,1,13407.7984382129,6625.83271367054
65,104,4,467,-0.5,-0.5,-0.5,2,2,1,2,617,1,1,617,1,0,1.8,1,0.0858153470586935,0.0858153470586935,750,1,0,congruent,0.1,14477.5922712376,2800.48269947196
65,104,4,468,0.5,0.5,0.5,4,3,1,4,643,1,1,643,1,0,1.6,NaN,0.252436573112176,0.252436573112176,750,0,0,incongruent,1,3898.09023658175,2985.61290866098
65,104,4,470,0.5,0.5,-0.5,3,3,0.8,3,734,1,1,734,1,0,1.4,NaN,0.835610864299363,0.835610864299363,750,1,0,congruent,1,1316.3041541667,4503.50326901107
65,104,4,471,-0.5,0.5,0.5,1,2,0.8,1,655,1,1,655,1,0,1.4,0.6,0.329338677444552,0.329338677444552,750,0,0,incongruent,0.1,11974.9356091862,5121.70523558358
65,104,4,472,0.5,0.5,0,4,NaN,0.8,4,333,1,1,333,1,0,1.2,NaN,-1.73420112214088,-1.73420112214088,750,0,0,neutral,1,2358.00309620001,3669.5174860718
65,104,4,473,0.5,-0.5,-0.5,3,3,0.8,3,467,1,1,467,1,0,1.4,NaN,-0.875460957096011,-0.875460957096011,750,1,0,congruent,1,3665.4860073995,2924.9958329788
65,104,4,474,-0.5,-0.5,0,2,NaN,0.8,2,727,1,1,727,1,0,1.4,1,0.79075130343881,0.79075130343881,750,0,0,neutral,0.1,4363.20584115001,5837.22465978133
65,104,4,475,-0.5,0.5,-0.5,3,3,0.8,3,625,1,1,625,1,0,1.6,0.6,0.137083416613611,0.137083416613611,750,1,0,congruent,0.1,909.218092466441,1900.55021387171
65,104,4,476,-0.5,-0.5,0.5,4,2,0.8,4,511,1,1,511,1,0,1.4,1,-0.593486574543965,-0.593486574543965,750,0,0,incongruent,0.1,6768.47663346179,2519.34208546559
65,104,4,477,-0.5,-0.5,0.5,2,3,0.8,3,597,0,1,NaN,1,0,1.4,1,-0.0423548268286005,NaN,750,1,0,incongruent,0.1,3311.17644633521,3957.62190650918
65,104,4,478,-0.5,-0.5,0,4,NaN,0.8,4,541,1,1,541,1,0,1.2,1,-0.401231313713024,-0.401231313713024,750,0,0,neutral,0.1,1081.46829268431,1478.78302852283
65,104,4,480,-0.5,-0.5,-0.5,2,2,0.8,2,937,1,0,937,1,0,0.8,1,2.1365381292554,2.1365381292554,750,1,0,congruent,0.1,1893.6138318427,5360.464627108
65,104,4,481,-0.5,0.5,0.5,1,4,0.8,1,837,1,0,837,0,0,0.8,0.8,1.49568725981893,1.49568725981893,750,0,0,incongruent,0,4004.87813604742,2583.78280430133
65,104,4,482,0.5,-0.5,-0.5,2,2,0.6,3,529,0,1,NaN,0,0,0.6,NaN,-0.4781334180454,NaN,750,0,1,congruent,0,1776.79938379848,1230.4079933474
65,104,4,483,0.5,-0.5,0,3,NaN,0.6,3,702,1,1,702,1,0,0.4,NaN,0.630538586079693,0.630538586079693,750,0,0,neutral,1,8113.51712867177,7432.75361391113
65,104,4,484,0.5,0.5,0.5,1,2,0.6,1,383,1,1,383,1,0,0.6,NaN,-1.41377568742265,-1.41377568742265,750,0,0,incongruent,1,13466.5047186654,1583.23807291496
65,104,4,485,-0.5,-0.5,-0.5,4,4,0.6,4,452,1,1,452,1,0,1,1,-0.971588587511482,-0.971588587511482,750,1,0,congruent,0.1,2737.20593625409,1505.37568555122
65,104,4,486,-0.5,0.5,-0.5,1,1,0.6,1,581,1,1,581,1,0,1,0.6,-0.144890965938436,-0.144890965938436,750,1,0,congruent,0.1,6231.91755269527,1290.73625111962
65,104,4,487,0.5,-0.5,-0.5,2,2,0.6,2,605,1,1,605,1,0,1.2,NaN,0.00891324272631706,0.00891324272631706,750,1,0,congruent,1,6328.48586666271,2116.47397865329
65,104,4,488,0.5,0.5,0.5,4,1,0.6,4,996,1,0,996,0,0,1.6,NaN,2.51464014222291,2.51464014222291,750,0,0,incongruent,0,4356.57640525961,2221.39111008571
65,104,4,489,-0.5,0.5,0.5,1,3,0.4,1,731,1,1,731,1,0,1.2,0.6,0.816385338216269,0.816385338216269,750,0,0,incongruent,0.1,5585.95168580255,5655.17276009632
65,104,4,490,0.5,0.5,0,4,NaN,0.6,4,364,1,1,364,1,0,1,NaN,-1.53553735261558,-1.53553735261558,750,0,0,neutral,1,1995.38974968466,384.556484525408
65,104,4,491,-0.5,0.5,0.5,3,4,0.8,3,716,1,1,716,1,0,1.2,0.8,0.720257707800799,0.720257707800799,750,0,0,incongruent,0.1,4554.11185189753,4714.3938634119
65,104,4,493,-0.5,-0.5,0.5,1,3,0.8,1,649,1,1,649,1,0,1.2,1,0.290887625278364,0.290887625278364,750,0,0,incongruent,0.1,6853.40679068547,1590.64371305609
65,104,4,494,0.5,-0.5,-0.5,2,2,0.8,2,678,1,1,678,1,0,1.4,NaN,0.47673437741494,0.47673437741494,750,1,0,congruent,1,3483.1155726247,3962.39175227274
65,104,4,495,0.5,0.5,0,1,NaN,0.8,1,673,1,1,673,1,0,1.6,NaN,0.444691833943117,0.444691833943117,750,0,0,neutral,1,4124.59537115546,2999.0303010262
65,104,4,496,0.5,0.5,-0.5,3,3,1,3,342,1,1,342,1,0,1.6,NaN,-1.6765245438916,-1.6765245438916,750,1,0,congruent,1,1818.76016122677,1799.83154136385
65,104,4,497,-0.5,0.5,-0.5,1,1,1,1,500,1,1,500,1,0,1.8,0.8,-0.663980170181976,-0.663980170181976,750,1,0,congruent,0.1,1631.48182490509,1744.41192150166
65,104,4,498,-0.5,0.5,0.5,2,3,1,3,536,0,1,NaN,0,0,1.6,0.8,-0.433273857184847,NaN,750,1,0,incongruent,0,6815.8185370948,2725.88225433822
65,104,4,499,0.5,-0.5,0,1,NaN,0.8,4,489,0,1,NaN,1,0,1.4,NaN,-0.734473765819988,NaN,750,0,1,neutral,1,2620.70251267682,2641.10110538483
65,104,4,500,-0.5,-0.5,-0.5,2,2,0.8,2,845,1,0,845,1,0,1.4,1,1.54695532937384,1.54695532937384,750,1,0,congruent,0.1,6435.62544220619,3067.36386458468
65,104,4,501,0.5,-0.5,0,3,NaN,0.8,3,699,1,1,699,1,0,1.2,NaN,0.611313059996599,0.611313059996599,750,0,0,neutral,1,12281.6780748035,6681.8822311028
65,104,4,502,0.5,0.5,-0.5,1,1,0.8,1,748,1,1,748,1,0,1.2,NaN,0.925329986020469,0.925329986020469,750,1,0,congruent,1,6722.95997800321,9147.50748941531
65,104,4,503,0.5,-0.5,0,4,NaN,0.8,4,468,1,1,468,1,0,1.4,NaN,-0.869052448401647,-0.869052448401647,750,0,0,neutral,1,1549.64321147183,1700.96019866895
65,104,4,504,-0.5,0.5,-0.5,1,1,0.8,1,582,1,1,582,1,0,1.8,0.8,-0.138482457244071,-0.138482457244071,750,1,0,congruent,0.1,1843.47511779384,1044.56774986809
65,104,4,505,0.5,-0.5,0.5,3,4,0.8,3,691,1,1,691,0,0,1.6,NaN,0.560044990441681,0.560044990441681,750,0,0,incongruent,0,3358.02342175134,4401.88427122911
65,104,4,506,-0.5,0.5,0.5,4,2,0.8,4,496,1,1,496,1,0,1.4,0.8,-0.689614204959435,-0.689614204959435,750,0,0,incongruent,0.1,1679.92374955508,890.30912316396
65,104,4,507,0.5,0.5,0,1,NaN,0.8,1,440,1,1,440,1,0,1.2,NaN,-1.04849069184386,-1.04849069184386,750,0,0,neutral,1,2024.88509954415,1619.47666106309
65,104,4,508,0.5,0.5,-0.5,3,3,0.8,3,593,1,1,593,1,0,1.2,NaN,-0.0679888616060593,-0.0679888616060593,750,1,0,congruent,1,3383.1179865003,3663.10329339004
65,104,4,509,0.5,0.5,-0.5,2,2,1,2,482,1,1,482,1,0,1.2,NaN,-0.779333326680541,-0.779333326680541,750,1,0,congruent,1,6644.82824449514,3097.46797777216
65,104,4,510,0.5,0.5,0.5,4,3,1,4,601,1,1,601,1,0,1.4,NaN,-0.0167207920511417,-0.0167207920511417,750,0,0,incongruent,1,2841.69428429247,1795.54273531439
65,104,4,511,-0.5,0.5,0.5,3,1,1,1,585,0,1,NaN,0,0,1.8,0.8,-0.119256931160977,NaN,750,1,0,incongruent,0,5894.46791744569,2980.56019355857
65,104,4,512,0.5,0.5,-0.5,2,2,0.8,2,474,1,1,474,1,0,1.6,NaN,-0.830601396235459,-0.830601396235459,750,1,0,congruent,1,3970.57328444308,4630.43947640516
65,104,4,513,-0.5,0.5,0.5,4,3,0.8,4,664,1,1,664,1,0,1.6,0.6,0.387015255693834,0.387015255693834,750,0,0,incongruent,0.1,3963.8233131181,4418.90041496301
65,104,4,514,-0.5,0.5,-0.5,1,1,0.8,2,557,0,1,NaN,0,0,1.4,0.6,-0.298695174603189,NaN,750,0,1,congruent,0,9113.65387457315,2588.29592848717
65,104,4,515,0.5,0.5,0.5,3,4,0.6,3,982,1,0,982,0,0,1,NaN,2.42492102050181,2.42492102050181,750,0,0,incongruent,0,1736.45188952643,4822.84651095626
65,104,4,516,-0.5,-0.5,0,4,NaN,0.4,4,466,1,1,466,0,0,0.6,1,-0.881869465790376,-0.881869465790376,750,0,0,neutral,0,640.082652383664,1982.63775748824
65,104,4,517,-0.5,0.5,-0.5,2,2,0.4,2,541,1,1,541,1,0,0.6,0.6,-0.401231313713024,-0.401231313713024,750,1,0,congruent,0.1,8793.04438484413,8058.24063435622
65,104,4,518,-0.5,-0.5,-0.5,3,3,0.6,3,611,1,1,611,0,0,0.4,0.8,0.0473642948925053,0.0473642948925053,750,1,0,congruent,0,870.205302173482,858.70860736967
65,104,4,519,-0.5,0.5,0,1,NaN,0.6,1,535,1,1,535,1,0,0.2,0.6,-0.439682365879212,-0.439682365879212,750,0,0,neutral,0.1,4347.00263793785,3634.96484907413
65,104,4,520,0.5,-0.5,-0.5,2,2,0.6,2,661,1,1,661,1,0,0.4,NaN,0.36778972961074,0.36778972961074,750,1,0,congruent,1,6454.47081919605,1506.32529503802
65,104,4,521,-0.5,0.5,-0.5,1,1,0.6,1,513,1,1,513,1,0,0.8,0.6,-0.580669557155235,-0.580669557155235,750,1,0,congruent,0.1,2424.29532792554,3432.71813800926
65,104,4,523,0.5,-0.5,0.5,1,2,0.6,1,834,1,0,834,0,0,1.2,NaN,1.47646173373583,1.47646173373583,750,0,0,incongruent,0,6489.45566813818,8966.92538378506
65,104,4,524,-0.5,-0.5,0.5,2,3,0.6,3,838,0,0,NaN,1,0,1.2,0.6,1.50209576851329,NaN,750,1,0,incongruent,0.1,6971.01807440089,6941.81638845801
65,104,4,525,0.5,0.5,0.5,3,4,0.6,3,734,1,1,734,1,0,1.2,NaN,0.835610864299363,0.835610864299363,750,0,0,incongruent,1,3441.50779290747,5329.70850973868
65,104,4,526,0.5,0.5,-0.5,2,2,0.8,2,532,1,1,532,1,0,1.2,NaN,-0.458907891962306,-0.458907891962306,750,1,0,congruent,1,2918.09625355013,4638.98163065292
65,104,4,527,-0.5,0.5,0.5,3,1,1,3,603,1,1,603,1,0,1.4,0.8,-0.00390377466241234,-0.00390377466241234,750,0,0,incongruent,0.1,2299.28349286536,4671.62076472974
65,104,4,530,0.5,-0.5,0,3,NaN,1,3,615,1,1,615,1,0,1.6,NaN,0.0729983296699641,0.0729983296699641,750,0,0,neutral,1,3426.46496364063,5513.43844051815
65,104,4,531,0.5,0.5,-0.5,4,4,1,4,323,1,1,323,1,0,1.6,NaN,-1.79828620908453,-1.79828620908453,750,1,0,congruent,1,1337.69688162288,3099.0323790821
65,104,4,532,-0.5,0.5,0.5,2,3,1,2,463,1,1,463,1,0,1.6,1,-0.90109499187347,-0.90109499187347,750,0,0,incongruent,0.1,8856.11400302158,2206.77975643842
65,104,4,533,-0.5,0.5,-0.5,1,1,1,2,0,0,1,NaN,0,0,1.6,1,-3.86823451736433,NaN,750,0,1,congruent,0,4076.42434682243,4222.10210669011
65,104,4,534,0.5,0.5,0,3,NaN,0.8,3,584,1,1,584,1,0,1.4,NaN,-0.125665439855342,-0.125665439855342,750,0,0,neutral,1,8930.52631735421,710.281880258682
65,104,4,535,-0.5,0.5,0.5,4,1,0.8,4,445,1,1,445,1,0,1.4,0.8,-1.01644814837203,-1.01644814837203,750,0,0,incongruent,0.1,3747.73705035722,1748.73756769537
65,104,4,536,-0.5,0.5,-0.5,3,3,0.8,3,524,1,1,524,1,0,1.2,0.8,-0.510175961517224,-0.510175961517224,750,1,0,congruent,0.1,1489.19144167202,1206.69962007521
65,104,4,537,-0.5,0.5,0,4,NaN,0.8,4,460,1,1,460,1,0,1,0.8,-0.920320517956564,-0.920320517956564,750,0,0,neutral,0.1,2934.6120864798,1559.87357534311
65,104,4,538,-0.5,0.5,-0.5,2,2,0.8,3,531,0,1,NaN,0,0,1,0.8,-0.465316400656671,NaN,750,0,1,congruent,0,621.890027999598,3729.24653486596
65,104,4,539,-0.5,0.5,0.5,4,1,0.8,4,608,1,1,608,1,0,1,0.6,0.0281387688094112,0.0281387688094112,750,0,0,incongruent,0.1,2837.03258938214,3531.13255595878
65,104,4,540,-0.5,-0.5,-0.5,3,3,0.8,3,601,1,1,601,1,0,0.8,0.6,-0.0167207920511417,-0.0167207920511417,750,1,0,congruent,0.1,3357.10304413721,4299.45365058061
65,104,4,541,0.5,-0.5,-0.5,4,4,0.8,4,601,1,1,601,1,0,0.8,NaN,-0.0167207920511417,-0.0167207920511417,750,1,0,congruent,1,2374.07252589401,1037.38318155126
65,104,4,542,-0.5,-0.5,0,1,NaN,0.8,1,567,1,1,567,1,0,1,0.6,-0.234610087659542,-0.234610087659542,750,0,0,neutral,0.1,3257.24349691235,2161.53483323009
65,104,4,543,-0.5,0.5,-0.5,3,3,0.8,3,506,1,1,506,1,0,1,0.8,-0.625529118015788,-0.625529118015788,750,1,0,congruent,0.1,7826.2601377231,4988.71500382885
65,104,4,544,-0.5,-0.5,0.5,1,4,0.8,4,631,0,1,NaN,1,0,1.2,0.6,0.175534468779799,NaN,750,1,0,incongruent,0.1,17941.9048781753,3760.63461271242
65,104,4,545,0.5,0.5,-0.5,2,2,0.8,2,708,1,1,708,1,0,1.2,NaN,0.668989638245881,0.668989638245881,750,1,0,congruent,1,4238.36637057661,2220.49301472455
65,104,4,546,0.5,0.5,0.5,1,4,0.8,1,632,1,1,632,1,0,1.4,NaN,0.181942977474164,0.181942977474164,750,0,0,incongruent,1,1673.32190474468,6528.07009504684
65,104,4,547,-0.5,0.5,-0.5,3,3,0.8,3,764,1,0,764,0,0,1.4,0.8,1.0278661251303,1.0278661251303,750,1,0,congruent,0,3107.74902101976,2397.2547499989
65,104,4,548,-0.5,-0.5,0,4,NaN,0.8,4,484,1,1,484,1,0,1.2,0.8,-0.766516309291812,-0.766516309291812,750,0,0,neutral,0.1,2627.72922839866,1539.68383093157
65,104,4,549,-0.5,0.5,0.5,3,2,0.8,3,692,1,1,692,1,0,1.2,0.6,0.566453499136046,0.566453499136046,750,0,0,incongruent,0.1,2140.86896455486,3926.08070047254
65,104,4,550,-0.5,0.5,-0.5,4,4,0.8,4,477,1,1,477,1,0,1.2,0.6,-0.811375870152365,-0.811375870152365,750,1,0,congruent,0.1,4206.91950783523,5155.86942323871
65,104,4,551,0.5,0.5,0.5,2,3,0.8,2,718,1,1,718,1,0,1,NaN,0.733074725189528,0.733074725189528,750,0,0,incongruent,1,12029.7571044141,2316.6987153057
65,104,4,552,0.5,-0.5,0.5,1,2,0.8,1,625,1,1,625,1,0,1,NaN,0.137083416613611,0.137083416613611,750,0,0,incongruent,1,8198.09138404516,3999.12759293581
65,104,4,553,0.5,0.5,0,3,NaN,0.8,3,362,1,1,362,1,0,1.4,NaN,-1.5483543700043,-1.5483543700043,750,0,0,neutral,1,7602.58151160996,1883.46695783756
65,104,4,554,-0.5,0.5,-0.5,2,2,0.8,2,555,1,1,555,1,0,1.6,0.8,-0.311512191991918,-0.311512191991918,750,1,0,congruent,0.1,2049.24638165842,1712.08157984149
65,104,4,555,-0.5,-0.5,-0.5,1,1,1,1,633,1,1,633,1,0,1.6,1,0.188351486168529,0.188351486168529,750,1,0,congruent,0.1,5221.24228896203,3406.60226310744
65,104,4,557,0.5,0.5,-0.5,1,1,1,1,520,1,1,520,1,0,1.6,NaN,-0.535809996294682,-0.535809996294682,750,1,0,congruent,1,7198.30527958581,970.328618800358
65,104,4,558,-0.5,-0.5,-0.5,2,2,1,2,572,1,1,572,1,0,1.6,1,-0.202567544187718,-0.202567544187718,750,1,0,congruent,0.1,4909.39047849076,595.278287035538
65,104,4,559,0.5,0.5,-0.5,4,4,1,4,354,1,1,354,1,0,1.4,NaN,-1.59962243955922,-1.59962243955922,750,1,0,congruent,1,1249.39683126845,7677.29363729899
65,104,4,560,-0.5,0.5,0,3,NaN,1,3,651,1,1,651,1,0,1.6,0.8,0.303704642667093,0.303704642667093,750,0,0,neutral,0.1,6902.23750973129,3171.28987947891
65,104,4,562,0.5,-0.5,-0.5,3,3,1,3,747,1,1,747,1,0,1.6,NaN,0.918921477326104,0.918921477326104,750,1,0,congruent,1,1497.24026970305,3733.15136868304
65,104,4,563,-0.5,0.5,-0.5,4,4,1,4,421,1,1,421,1,0,1.6,0.8,-1.17025235703679,-1.17025235703679,750,1,0,congruent,0.1,2797.40069384361,8009.1121402978
65,104,4,564,0.5,0.5,0,1,NaN,1,1,733,1,1,733,1,0,1.6,NaN,0.829202355604999,0.829202355604999,750,0,0,neutral,1,6681.8836062898,2279.02814264059
65,104,4,565,0.5,0.5,-0.5,4,4,1,4,522,1,1,522,1,0,1.6,NaN,-0.522992978905953,-0.522992978905953,750,1,0,congruent,1,2890.62428736325,5372.80050978204
65,104,4,566,-0.5,0.5,0,1,NaN,1,1,461,1,1,461,1,0,1.8,1,-0.9139120092622,-0.9139120092622,750,0,0,neutral,0.1,4979.70348280518,4625.66127721859
65,104,4,567,-0.5,0.5,-0.5,3,3,1,3,636,1,1,636,1,0,1.6,1,0.207577012251623,0.207577012251623,750,1,0,congruent,0.1,2345.69259091837,2607.01408556224
65,104,4,568,0.5,-0.5,-0.5,1,1,1,1,469,1,1,469,1,0,1.4,NaN,-0.862643939707282,-0.862643939707282,750,1,0,congruent,1,6150.95994157054,2781.82290855165
65,104,4,569,-0.5,-0.5,0,2,NaN,1,2,586,1,1,586,1,0,1.6,1,-0.112848422466612,-0.112848422466612,750,0,0,neutral,0.1,3721.86849119546,4132.73250532352
65,104,4,570,0.5,0.5,0.5,3,1,1,3,591,1,1,591,1,0,1.4,NaN,-0.0808058789947887,-0.0808058789947887,750,0,0,incongruent,1,1963.64632774129,2884.21086542332
65,104,4,571,-0.5,0.5,0.5,4,3,1,4,580,1,1,580,1,0,1.4,1,-0.1512994746328,-0.1512994746328,750,0,0,incongruent,0.1,10031.9296691636,3710.99422280061
65,104,4,572,-0.5,-0.5,-0.5,2,2,1,2,536,1,1,536,1,0,1.4,1,-0.433273857184847,-0.433273857184847,750,1,0,congruent,0.1,2723.94107539013,510.175263212832
65,104,4,574,0.5,0.5,0.5,3,1,0.8,3,608,1,1,608,1,0,1,NaN,0.0281387688094112,0.0281387688094112,750,0,0,incongruent,1,3949.23342204478,1943.7986737825
65,104,4,575,0.5,-0.5,-0.5,2,2,0.8,3,507,0,1,NaN,1,0,1.2,NaN,-0.619120609321424,NaN,750,0,1,congruent,1,3168.94216839459,3924.57112853741
65,104,4,576,0.5,-0.5,0,1,NaN,0.8,1,609,1,1,609,1,0,1.2,NaN,0.0345472775037759,0.0345472775037759,750,0,0,neutral,1,1822.43895929934,2247.91966773678
65,104,4,577,0.5,0.5,-0.5,4,4,0.8,4,555,1,1,555,1,0,1.4,NaN,-0.311512191991918,-0.311512191991918,750,1,0,congruent,1,1086.60379072676,2694.28153979243
65,104,4,578,0.5,0.5,0,1,NaN,0.8,1,429,1,1,429,1,0,1.6,NaN,-1.11898428748187,-1.11898428748187,750,0,0,neutral,1,13321.5539300883,1999.93310822768
65,104,4,580,-0.5,0.5,0,3,NaN,0.8,3,532,1,1,532,1,0,1.8,0.8,-0.458907891962306,-0.458907891962306,750,0,0,neutral,0.1,7192.60197785421,2988.17401088249
65,104,4,581,-0.5,-0.5,-0.5,4,4,0.8,4,672,1,1,672,1,0,1.6,1,0.438283325248752,0.438283325248752,750,1,0,congruent,0.1,1603.20304793354,1393.03378226616
65,104,4,582,0.5,0.5,0.5,2,3,0.8,2,724,1,1,724,1,0,1.4,NaN,0.771525777355716,0.771525777355716,750,0,0,incongruent,1,6371.11898954925,4370.63727822562
65,104,4,583,0.5,0.5,0.5,3,2,1,3,490,1,1,490,1,0,1.4,NaN,-0.728065257125623,-0.728065257125623,750,0,0,incongruent,1,8599.30335896823,2055.68416079506
65,104,4,584,-0.5,0.5,-0.5,1,1,1,4,472,0,1,NaN,0,0,1.4,0.8,-0.843418413624188,NaN,750,0,1,congruent,0,1756.21670735526,1335.18801907487
65,104,4,585,0.5,-0.5,0,2,NaN,0.8,3,699,0,1,NaN,1,0,1.2,NaN,0.611313059996599,NaN,750,0,1,neutral,1,1216.56802986511,3048.89902464522
65,104,4,586,-0.5,-0.5,-0.5,4,4,0.8,4,501,1,1,501,1,0,1.4,1,-0.657571661487612,-0.657571661487612,750,1,0,congruent,0.1,6638.99746034738,3799.79535454683
65,104,4,587,0.5,-0.5,-0.5,1,1,0.8,1,636,1,1,636,1,0,1.4,NaN,0.207577012251623,0.207577012251623,750,1,0,congruent,1,3344.25565631474,1467.36110308117
65,104,4,590,-0.5,0.5,0.5,3,1,0.6,3,991,1,0,991,0,0,1.4,0.6,2.48259759875109,2.48259759875109,750,0,0,incongruent,0,1301.06130538746,8997.46268670121
65,104,4,591,-0.5,0.5,0,1,NaN,0.4,1,480,1,1,480,1,0,1,0.4,-0.79215034406927,-0.79215034406927,750,0,0,neutral,0.1,2970.58030275724,877.613423902535
65,104,4,592,-0.5,-0.5,-0.5,3,3,0.4,3,607,1,1,607,0,0,1,1,0.0217302601150465,0.0217302601150465,750,1,0,congruent,0,8818.22412937602,3188.27502439806
65,104,4,593,-0.5,-0.5,-0.5,4,4,0.4,4,525,1,1,525,0,0,0.6,0.8,-0.503767452822859,-0.503767452822859,750,1,0,congruent,0,5839.32922639937,3354.6058579573
65,104,4,594,-0.5,0.5,-0.5,1,1,0.4,1,452,1,1,452,1,0,0.6,0.4,-0.971588587511482,-0.971588587511482,750,1,0,congruent,0.1,3531.1390725958,1131.08816060253
65,104,4,596,0.5,0.5,0,2,NaN,0.4,3,605,0,1,NaN,0,0,0.4,NaN,0.00891324272631706,NaN,750,0,1,neutral,0,4523.7597877885,2813.72703687314
65,104,4,597,-0.5,0.5,-0.5,3,3,0.4,3,472,1,1,472,1,0,0.2,0.4,-0.843418413624188,-0.843418413624188,750,1,0,congruent,0.1,3568.39150705773,3080.93441677405
65,104,4,598,0.5,0.5,-0.5,1,1,0.6,1,552,1,1,552,1,0,0.4,NaN,-0.330737718075012,-0.330737718075012,750,1,0,congruent,1,4952.87118323277,1176.80283374913
65,104,4,600,-0.5,0.5,-0.5,3,3,0.6,3,566,1,1,566,1,0,0.6,0.6,-0.241018596353906,-0.241018596353906,750,1,0,congruent,0.1,6606.97072695313,1195.12032553347
