subid,vers,block,trial,rewlvl,efflvl,congruency,targetresp,distractorresp,rollingefflvl,resp,rt,acc,fast,accrt,isrewarded,ismiss,runavgrrgen,runavgrrcond,zrt,acczrt,rtthreshold,isdisterror,isranderror,congruence,feedback,fcz_resp_theta,fcz_resp_theta_baseline
66,104,1,1,-0.5,0.5,0,2,NaN,0.2,1,641,0,1,NaN,0,0,0,0,-0.0472336208328375,NaN,750,0,1,neutral,0,1442.77151722401,5960.30522213521
66,104,1,2,0.5,-0.5,0.5,4,1,0.2,4,817,1,0,817,0,0,0,NaN,1.14065544386207,1.14065544386207,750,0,0,incongruent,0,3942.76434981268,5658.04383862765
66,104,1,3,-0.5,-0.5,-0.5,3,3,0.2,3,387,1,1,387,0,0,0,0,-1.76157352101753,-1.76157352101753,750,1,0,congruent,0,3025.06568023866,2903.0757160907
66,104,1,4,0.5,-0.5,-0.5,1,1,0.2,1,441,1,1,441,1,0,0,NaN,-1.39710755798614,-1.39710755798614,750,1,0,congruent,1,5751.41759893934,949.427917576758
66,104,1,5,0.5,0.5,0,4,NaN,0.2,4,594,1,1,594,1,0,0.4,NaN,-0.364453996063864,-0.364453996063864,750,0,0,neutral,1,1803.72540265345,3446.23911457099
66,104,1,6,-0.5,0.5,-0.5,1,1,0.3,1,392,1,1,392,1,0,0.8,0,-1.7278266725887,-1.7278266725887,750,1,0,congruent,0.1,3266.01249282157,1336.14506787878
66,104,1,7,0.5,-0.5,0.5,4,2,0.4,4,602,1,1,602,0,0,1,NaN,-0.310459038577732,-0.310459038577732,750,0,0,incongruent,0,3342.34233528357,8355.63572807005
66,104,1,8,0.5,-0.5,0.5,1,3,0.4,1,768,1,0,768,0,0,1,NaN,0.80993632925951,0.80993632925951,750,0,0,incongruent,0,6122.8639198569,2117.86874443456
66,104,1,9,-0.5,-0.5,-0.5,2,2,0.4,3,862,0,0,NaN,1,0,1,0,1.44437707972156,NaN,750,0,1,congruent,0.1,6390.85047880661,4931.19374567756
66,104,1,10,0.5,0.5,0.5,4,1,0.4,1,653,0,1,NaN,0,0,0.8,NaN,0.0337588153963606,NaN,750,1,0,incongruent,0,20361.5224139579,5581.43689615763
66,104,1,11,0.5,0.5,-0.5,2,2,0.4,2,623,1,1,623,1,0,0.4,NaN,-0.168722275176635,-0.168722275176635,750,1,0,congruent,1,3710.79398248151,3908.1274637529
66,104,1,12,0.5,0.5,-0.5,4,4,0.6,4,625,1,1,625,1,0,0.6,NaN,-0.155223535805102,-0.155223535805102,750,1,0,congruent,1,2841.90372481327,2218.14890971053
66,104,1,13,-0.5,0.5,0,1,NaN,0.8,1,763,1,0,763,0,0,1,0.2,0.776189480830677,0.776189480830677,750,0,0,neutral,0,1498.48264822328,4060.75390712323
66,104,1,14,0.5,0.5,0.5,3,1,0.6,3,876,1,0,876,0,0,1,NaN,1.53886825532229,1.53886825532229,750,0,0,incongruent,0,6349.0100832589,1094.73417871618
66,104,1,15,0.5,-0.5,0.5,4,2,0.4,4,720,1,1,720,0,0,0.8,NaN,0.485966584342717,0.485966584342717,750,0,0,incongruent,0,1825.42095697802,2892.41352385738
66,104,1,16,-0.5,-0.5,-0.5,1,1,0.4,1,490,1,1,490,0,0,0.8,0.2,-1.06638844338358,-1.06638844338358,750,1,0,congruent,0,1597.1111101299,10055.0990939691
66,104,1,17,0.5,0.5,0.5,2,3,0.4,3,835,0,0,NaN,0,0,0.4,NaN,1.26214409820587,NaN,750,1,0,incongruent,0,4152.01954571098,1399.65245290253
66,104,1,18,0.5,0.5,0,4,NaN,0.4,4,584,1,1,584,1,0,0,NaN,-0.431947692921529,-0.431947692921529,750,0,0,neutral,1,5004.56518799914,5150.52152596149
66,104,1,19,-0.5,-0.5,-0.5,2,2,0.4,2,797,1,0,797,0,0,0.4,0.2,1.00566805014674,1.00566805014674,750,1,0,congruent,0,3084.24427496297,4631.21124292727
66,104,1,20,0.5,-0.5,0,1,NaN,0.4,1,789,1,0,789,0,0,0.4,NaN,0.951673092660607,0.951673092660607,750,0,0,neutral,0,1564.64270892807,4239.82854837683
66,104,1,21,-0.5,0.5,0.5,4,3,0.4,4,748,1,1,748,1,0,0.4,0.2,0.674948935544179,0.674948935544179,750,0,0,incongruent,0.1,3463.2234640305,2326.68292796081
66,104,1,22,-0.5,-0.5,0.5,3,2,0.4,3,871,1,0,871,0,0,0.6,0.2,1.50512140689346,1.50512140689346,750,0,0,incongruent,0,4413.43960858042,3897.96640452163
66,104,1,23,0.5,0.5,0,1,NaN,0.4,1,575,1,1,575,1,0,0.6,NaN,-0.492692020093427,-0.492692020093427,750,0,0,neutral,1,682.605223622657,635.343728911184
66,104,1,24,0.5,-0.5,-0.5,2,2,0.6,2,390,1,1,390,0,0,0.6,NaN,-1.74132541196023,-1.74132541196023,750,1,0,congruent,0,5390.67884099141,5233.22482278306
66,104,1,25,0.5,-0.5,0,1,NaN,0.6,1,630,1,1,630,1,0,0.6,NaN,-0.121476687376269,-0.121476687376269,750,0,0,neutral,1,2087.52497992763,4808.36648209985
66,104,1,26,0.5,-0.5,-0.5,4,4,0.6,4,767,1,0,767,0,0,1,NaN,0.803186959573743,0.803186959573743,750,1,0,congruent,0,2907.29655755,7359.65542783117
66,104,1,27,0.5,0.5,-0.5,2,2,0.6,2,570,1,1,570,1,0,0.8,NaN,-0.52643886852226,-0.52643886852226,750,1,0,congruent,1,3701.29303707219,2194.27839804302
66,104,1,28,0.5,-0.5,-0.5,1,1,0.8,1,492,1,1,492,1,0,1.2,NaN,-1.05288970401205,-1.05288970401205,750,1,0,congruent,1,1833.97642046938,2959.31141804782
66,104,1,29,0.5,0.5,0,3,NaN,0.8,3,544,1,1,544,1,0,1.2,NaN,-0.701922480352189,-0.701922480352189,750,0,0,neutral,1,6270.67773118616,7630.65030275273
66,104,1,30,-0.5,0.5,0.5,4,1,1,1,642,0,1,NaN,0,0,1.6,0.4,-0.040484251147071,NaN,750,1,0,incongruent,0,2264.03819153357,1750.45588851941
66,104,1,31,-0.5,0.5,0,3,NaN,0.8,3,538,1,1,538,1,0,1.2,0.4,-0.742418698466788,-0.742418698466788,750,0,0,neutral,0.1,7062.57633359894,4230.42337387925
66,104,1,32,-0.5,-0.5,0.5,4,1,0.8,4,816,1,0,816,1,0,1.4,0.2,1.1339060741763,1.1339060741763,750,0,0,incongruent,0.1,3219.63347285742,771.814724707549
66,104,1,33,0.5,0.5,0.5,3,4,0.8,3,814,1,0,814,0,0,1.2,NaN,1.12040733480477,1.12040733480477,750,0,0,incongruent,0,3178.53314155959,1660.58543884602
66,104,1,34,0.5,0.5,-0.5,2,2,0.6,2,483,1,1,483,1,0,0.8,NaN,-1.11363403118395,-1.11363403118395,750,1,0,congruent,1,1310.04778587481,1318.23745623066
66,104,1,35,-0.5,-0.5,0.5,3,4,0.6,3,757,1,0,757,1,0,0.8,0.4,0.735693262716078,0.735693262716078,750,0,0,incongruent,0.1,5927.07094029871,1463.38791626409
66,104,1,36,0.5,0.5,0,4,NaN,0.6,4,772,1,0,772,0,0,1,NaN,0.836933808002576,0.836933808002576,750,0,0,neutral,0,7321.1926394272,2907.00774122944
66,104,1,37,0.5,0.5,0.5,1,4,0.4,1,782,1,0,782,0,0,0.8,NaN,0.904427504860241,0.904427504860241,750,0,0,incongruent,0,1779.6978277394,2413.39162033276
66,104,1,38,0.5,0.5,-0.5,2,2,0.4,2,886,1,0,886,0,0,0.6,NaN,1.60636195217996,1.60636195217996,750,1,0,congruent,0,2084.13817732912,4402.1018708765
66,104,1,39,0.5,-0.5,0,1,NaN,0.2,1,591,1,1,591,0,0,0.6,NaN,-0.384702105121163,-0.384702105121163,750,0,0,neutral,0,1068.29199139191,4940.69703829269
66,104,1,40,-0.5,-0.5,-0.5,2,2,0.2,2,614,1,1,614,0,0,0.2,0.4,-0.229466602348533,-0.229466602348533,750,1,0,congruent,0,10423.0567025067,5860.10684943019
66,104,1,42,-0.5,0.5,-0.5,1,1,0.2,1,902,1,0,902,0,0,0,0.6,1.71435186715222,1.71435186715222,750,1,0,congruent,0,2558.29094327882,1833.06843586365
66,104,1,43,0.5,-0.5,0,4,NaN,0.2,4,600,1,1,600,0,0,0,NaN,-0.323957777949265,-0.323957777949265,750,0,0,neutral,0,3245.1377726377,7755.48180788743
66,104,1,44,0.5,-0.5,0.5,3,1,0.2,3,710,1,1,710,0,0,0,NaN,0.418472887485052,0.418472887485052,750,0,0,incongruent,0,2294.17624995667,2165.01450032302
66,104,1,45,0.5,0.5,0,4,NaN,0.2,4,682,1,1,682,1,0,0,NaN,0.22949053628359,0.22949053628359,750,0,0,neutral,1,3599.64499695775,795.895826619306
66,104,1,46,-0.5,0.5,-0.5,1,1,0.2,1,517,1,1,517,1,0,0.4,0.4,-0.884155461867885,-0.884155461867885,750,1,0,congruent,0.1,4846.49827080485,1911.48319514166
66,104,1,47,-0.5,0.5,0.5,2,4,0.4,3,898,0,0,NaN,0,0,0.6,0.6,1.68735438840916,NaN,750,0,1,incongruent,0,2608.38431893978,1521.22423114479
66,104,1,48,0.5,0.5,-0.5,3,3,0.4,3,896,1,0,896,0,0,0.6,NaN,1.67385564903762,1.67385564903762,750,1,0,congruent,0,4731.10586608005,1023.83123996324
66,104,1,49,0.5,-0.5,0.5,2,4,0.4,2,927,1,0,927,0,0,0.6,NaN,1.88308610929639,1.88308610929639,750,0,0,incongruent,0,8658.4748081539,3771.48420622398
66,104,1,50,-0.5,-0.5,0,3,NaN,0.4,3,835,1,0,835,1,0,0.6,0.4,1.26214409820587,1.26214409820587,750,0,0,neutral,0.1,14673.7471829906,2888.10885333993
66,104,1,51,-0.5,-0.5,-0.5,4,4,0.4,4,710,1,1,710,1,0,0.4,0.6,0.418472887485052,0.418472887485052,750,1,0,congruent,0.1,2349.59141736306,8948.51754630727
66,104,1,52,-0.5,0.5,0,2,NaN,0.4,2,598,1,1,598,1,0,0.4,0.4,-0.337456517320798,-0.337456517320798,750,0,0,neutral,0.1,5083.02976837989,2277.52835758419
66,104,1,53,-0.5,-0.5,-0.5,3,3,0.6,3,550,1,1,550,1,0,0.6,0.6,-0.66142626223759,-0.66142626223759,750,1,0,congruent,0.1,2272.17807674666,2927.73399791263
66,104,1,54,-0.5,0.5,0,1,NaN,0.6,1,566,1,1,566,1,0,0.8,0.6,-0.553436347265326,-0.553436347265326,750,0,0,neutral,0.1,808.466505424981,4428.08940081719
66,104,1,55,0.5,-0.5,-0.5,3,3,0.6,3,554,1,1,554,1,0,1,NaN,-0.634428783494524,-0.634428783494524,750,1,0,congruent,1,5778.64816927983,4669.97506170359
66,104,1,56,0.5,-0.5,-0.5,2,2,0.6,2,775,1,0,775,1,0,1.2,NaN,0.857181917059875,0.857181917059875,750,1,0,congruent,1,8303.21494430872,2316.03662419273
66,104,1,57,-0.5,-0.5,0,3,NaN,0.6,3,801,1,0,801,1,0,1.4,0.6,1.0326655288898,1.0326655288898,750,0,0,neutral,0.1,3892.55823778087,3241.02841530237
66,104,1,58,0.5,-0.5,-0.5,1,1,0.6,1,584,1,1,584,0,0,1.4,NaN,-0.431947692921529,-0.431947692921529,750,1,0,congruent,0,1360.75388206418,1954.74543130398
66,104,1,60,-0.5,0.5,-0.5,3,3,0.4,3,660,1,1,660,1,0,1,0.6,0.0810044031967262,0.0810044031967262,750,1,0,congruent,0.1,2789.95007879682,5062.41533754356
66,104,1,61,-0.5,0.5,-0.5,4,4,0.6,4,628,1,1,628,1,0,0.8,0.8,-0.134975426747802,-0.134975426747802,750,1,0,congruent,0.1,8619.36263135842,1107.12706925381
66,104,1,62,0.5,-0.5,-0.5,2,2,0.8,2,709,1,1,709,1,0,0.6,NaN,0.411723517799285,0.411723517799285,750,1,0,congruent,1,4905.41854075146,6597.59423477627
66,104,1,63,-0.5,-0.5,0.5,3,1,0.8,3,945,1,0,945,1,0,0.8,0.8,2.00457476364018,2.00457476364018,750,0,0,incongruent,0.1,1806.17132894387,1955.67704596072
66,104,1,64,0.5,0.5,0.5,1,3,0.8,1,944,1,0,944,0,0,1,NaN,1.99782539395442,1.99782539395442,750,0,0,incongruent,0,4027.99412724673,3872.53717738988
66,104,1,65,-0.5,-0.5,0.5,2,4,0.6,3,829,0,0,NaN,0,0,1,1,1.22164788009127,NaN,750,0,1,incongruent,0,4495.1087936455,1576.94134769148
66,104,1,66,0.5,0.5,0,1,NaN,0.6,1,576,1,1,576,1,0,0.8,NaN,-0.485942650407661,-0.485942650407661,750,0,0,neutral,1,1271.05618385605,5275.7610712922
66,104,1,68,0.5,-0.5,-0.5,2,2,0.6,3,705,0,1,NaN,0,0,0.6,NaN,0.384726039056219,NaN,750,0,1,congruent,0,11906.6096788143,2940.63467416402
66,104,1,69,0.5,0.5,0.5,4,1,0.6,1,702,0,1,NaN,0,0,0.4,NaN,0.36447792999892,NaN,750,1,0,incongruent,0,5056.39370974049,2760.03335477719
66,104,1,70,-0.5,0.5,-0.5,2,2,0.6,2,821,1,0,821,0,0,0.4,0.8,1.16765292260513,1.16765292260513,750,1,0,congruent,0,8273.18630834578,2211.35449614678
66,104,1,71,-0.5,-0.5,0.5,1,4,0.4,3,642,0,1,NaN,0,0,0.4,0.8,-0.040484251147071,NaN,750,0,1,incongruent,0,12908.9742321225,1599.27418694054
66,104,1,72,0.5,-0.5,0,3,NaN,0.4,3,734,1,1,734,0,0,0,NaN,0.580457759943448,0.580457759943448,750,0,0,neutral,0,2127.06533872008,4253.60895212408
66,104,1,74,-0.5,0.5,0.5,3,2,0.2,3,640,1,1,640,1,0,0,0.6,-0.053982990518604,-0.053982990518604,750,0,0,incongruent,0.1,2704.69627129759,3504.60170241417
66,104,1,75,-0.5,-0.5,0.5,4,1,0.4,4,713,1,1,713,0,0,0.2,0.6,0.438720996542351,0.438720996542351,750,0,0,incongruent,0,5278.53957879466,3507.85016203658
66,104,1,77,0.5,0.5,-0.5,3,3,0.4,3,603,1,1,603,1,0,0.2,NaN,-0.303709668891965,-0.303709668891965,750,1,0,congruent,1,4205.87640057362,1577.80556199074
66,104,1,78,0.5,-0.5,0,2,NaN,0.4,3,549,0,1,NaN,0,0,0.6,NaN,-0.668175631923357,NaN,750,0,1,neutral,0,9798.81500582888,2588.5934405293
66,104,1,79,0.5,0.5,-0.5,3,3,0.4,1,647,0,1,NaN,0,0,0.6,NaN,-0.00673740271823844,NaN,750,0,1,congruent,0,2810.29836483419,3156.55183239194
66,104,1,80,0.5,0.5,0,1,NaN,0.4,1,669,1,1,669,1,0,0.4,NaN,0.141748730368625,0.141748730368625,750,0,0,neutral,1,1498.55626004617,1247.90512284299
66,104,1,81,0.5,-0.5,-0.5,3,3,0.6,3,475,1,1,475,0,0,0.8,NaN,-1.16762898867008,-1.16762898867008,750,1,0,congruent,0,5424.11354714063,2904.5230114351
66,104,1,82,-0.5,0.5,-0.5,4,4,0.6,4,448,1,1,448,1,0,0.8,0.6,-1.34986197018577,-1.34986197018577,750,1,0,congruent,0.1,4110.14048330135,5305.9808399048
66,104,1,83,0.5,-0.5,-0.5,1,1,0.8,1,687,1,1,687,1,0,0.6,NaN,0.263237384712422,0.263237384712422,750,1,0,congruent,1,1984.50404444368,5520.452944783
66,104,1,84,0.5,0.5,0.5,3,4,0.8,3,738,1,1,738,1,0,1,NaN,0.607455238686514,0.607455238686514,750,0,0,incongruent,1,2209.32195809424,1399.11251479653
66,104,1,85,0.5,0.5,0.5,4,1,0.8,4,940,1,0,940,0,0,1.4,NaN,1.97082791521135,1.97082791521135,750,0,0,incongruent,0,3645.24640351641,2646.7273417476
66,104,1,86,0.5,-0.5,0.5,3,4,0.6,3,779,1,0,779,1,0,1,NaN,0.884179395802941,0.884179395802941,750,0,0,incongruent,1,1691.27812751139,2020.38428615254
66,104,1,87,-0.5,-0.5,0,2,NaN,0.6,2,994,1,0,994,1,0,1.4,0.2,2.33529387824274,2.33529387824274,750,0,0,neutral,0.1,7971.84206399623,2246.12404541783
66,104,1,88,0.5,-0.5,-0.5,3,3,0.6,3,701,1,1,701,1,0,1.4,NaN,0.357728560313153,0.357728560313153,750,1,0,congruent,1,2446.94115320995,5262.92079454978
66,104,1,89,0.5,0.5,-0.5,1,1,0.6,1,495,1,1,495,1,0,1.4,NaN,-1.03264159495475,-1.03264159495475,750,1,0,congruent,1,3105.19690301357,2452.71903631834
66,104,1,90,-0.5,0.5,0,3,NaN,0.8,3,652,1,1,652,1,0,1.4,0.6,0.0270094457105941,0.0270094457105941,750,0,0,neutral,0.1,2593.35646719338,2068.53307355234
66,104,1,91,0.5,0.5,0.5,4,3,0.8,4,664,1,1,664,1,0,1.6,NaN,0.108001881939792,0.108001881939792,750,0,0,incongruent,1,1699.39842267314,1529.11561784188
66,104,1,92,-0.5,0.5,0,2,NaN,0.8,4,630,0,1,NaN,0,0,1.6,0.6,-0.121476687376269,NaN,750,0,1,neutral,0,5349.37974094913,5917.16756526497
66,104,1,93,-0.5,-0.5,-0.5,1,1,0.6,1,608,1,1,608,1,0,1.4,0.2,-0.269962820463132,-0.269962820463132,750,1,0,congruent,0.1,4244.5978715743,1558.19451517153
66,104,1,94,0.5,0.5,0.5,2,4,0.6,3,713,0,1,NaN,0,0,1.2,NaN,0.438720996542351,NaN,750,0,1,incongruent,0,1419.94609598669,1764.28073082708
66,104,1,95,-0.5,-0.5,0,4,NaN,0.6,4,673,1,1,673,1,0,0.8,0.4,0.168746209111691,0.168746209111691,750,0,0,neutral,0.1,2691.39424983207,1198.33725771721
66,104,1,96,0.5,0.5,0.5,1,4,0.6,1,953,1,0,953,0,0,0.8,NaN,2.05856972112631,2.05856972112631,750,0,0,incongruent,0,5720.20693185076,2046.29036668503
66,104,1,97,-0.5,0.5,0.5,3,1,0.4,3,785,1,0,785,0,0,0.4,0.6,0.92467561391754,0.92467561391754,750,0,0,incongruent,0,2573.01531718787,1484.64465704849
66,104,1,98,-0.5,-0.5,-0.5,4,4,0.2,4,628,1,1,628,0,0,0.4,0.6,-0.134975426747802,-0.134975426747802,750,1,0,congruent,0,6259.18440752812,816.27609872478
66,104,1,99,-0.5,0.5,0,1,NaN,0.2,1,596,1,1,596,1,0,0.2,0.6,-0.350955256692331,-0.350955256692331,750,0,0,neutral,0.1,4283.0558526381,2225.03087822033
66,104,1,100,0.5,-0.5,-0.5,2,2,0.2,2,959,1,0,959,0,0,0.4,NaN,2.09906593924091,2.09906593924091,750,1,0,congruent,0,6883.92780403702,2335.3811922405
66,104,1,101,-0.5,-0.5,0,1,NaN,0.2,1,621,1,1,621,0,0,0.2,0.6,-0.182221014548168,-0.182221014548168,750,0,0,neutral,0,2599.03953406251,1651.82750548341
66,104,1,102,0.5,0.5,-0.5,2,2,0.2,2,711,1,1,711,1,0,0.2,NaN,0.425222257170818,0.425222257170818,750,1,0,congruent,1,2669.81014624329,2093.46320894264
66,104,1,103,0.5,-0.5,0,3,NaN,0.4,3,763,1,0,763,0,0,0.6,NaN,0.776189480830677,0.776189480830677,750,0,0,neutral,0,3124.89932656676,4452.72091077245
66,104,1,106,-0.5,0.5,0.5,3,2,0.4,3,977,1,0,977,0,0,0.6,0.4,2.22055459358471,2.22055459358471,750,0,0,incongruent,0,5812.5240191273,1017.94978328336
66,104,1,107,-0.5,-0.5,0.5,1,3,0.4,1,694,1,1,694,0,0,0.6,0.6,0.310482972512788,0.310482972512788,750,0,0,incongruent,0,3868.95306581289,6199.32956000187
66,104,1,109,0.5,0.5,0,3,NaN,0.4,3,870,1,0,870,0,0,0.2,NaN,1.49837203720769,1.49837203720769,750,0,0,neutral,0,3202.89713916932,1895.27263220647
66,104,1,111,0.5,-0.5,-0.5,2,2,0.2,2,855,1,0,855,0,0,0.4,NaN,1.3971314919212,1.3971314919212,750,1,0,congruent,0,5604.8878663227,3166.02867095727
66,104,1,112,-0.5,0.5,0.5,1,4,0.2,1,806,1,0,806,0,0,0.4,0.2,1.06641237731864,1.06641237731864,750,0,0,incongruent,0,10093.5595885394,3415.23777185995
66,104,1,113,0.5,0.5,0.5,4,1,0,4,712,1,1,712,1,0,0.4,NaN,0.431971626856585,0.431971626856585,750,0,0,incongruent,1,15316.285387309,5180.96663829281
66,104,1,114,-0.5,-0.5,0.5,1,3,0.2,1,660,1,1,660,0,0,0.8,0.4,0.0810044031967262,0.0810044031967262,750,0,0,incongruent,0,12112.7297730014,4003.50211916812
66,104,1,115,-0.5,0.5,-0.5,2,2,0.2,2,942,1,0,942,0,0,0.8,0.2,1.98432665458288,1.98432665458288,750,1,0,congruent,0,3383.25992172161,5677.2913306698
66,104,1,116,0.5,0.5,0.5,1,4,0.2,1,731,1,1,731,1,0,0.4,NaN,0.560209650886149,0.560209650886149,750,0,0,incongruent,1,779.412764326,2010.54161237559
66,104,1,117,0.5,-0.5,0,2,NaN,0.4,2,667,1,1,667,1,0,0.8,NaN,0.128249990997092,0.128249990997092,750,0,0,neutral,1,2171.76724084699,3710.16574008237
66,104,1,118,0.5,0.5,-0.5,1,1,0.4,1,549,1,1,549,1,0,1.2,NaN,-0.668175631923357,-0.668175631923357,750,1,0,congruent,1,2563.55562047934,2656.04997849341
66,104,1,119,-0.5,-0.5,-0.5,3,3,0.6,3,516,1,1,516,1,0,1.2,0.2,-0.890904831553652,-0.890904831553652,750,1,0,congruent,0.1,2047.97538883121,3736.98759045131
66,104,1,120,0.5,-0.5,0.5,2,4,0.6,2,976,1,0,976,1,0,1.4,NaN,2.21380522389894,2.21380522389894,750,0,0,incongruent,1,4197.13080127048,833.74582803782
66,104,1,121,0.5,0.5,-0.5,3,3,0.6,3,627,1,1,627,1,0,1.8,NaN,-0.141724796433569,-0.141724796433569,750,1,0,congruent,1,7949.78791846823,3350.24502306612
66,104,1,122,0.5,-0.5,0,4,NaN,0.8,4,627,1,1,627,1,0,1.8,NaN,-0.141724796433569,-0.141724796433569,750,0,0,neutral,1,2387.75683673609,2342.65191800251
66,104,1,123,-0.5,0.5,0.5,3,2,0.8,3,699,1,1,699,1,0,1.8,0,0.34422982094162,0.34422982094162,750,0,0,incongruent,0.1,7695.16041242387,6155.08131109939
66,104,1,124,0.5,0.5,-0.5,1,1,0.8,1,494,1,1,494,1,0,1.6,NaN,-1.03939096464052,-1.03939096464052,750,1,0,congruent,1,2256.91376672119,1062.98839514667
66,104,1,125,0.5,-0.5,-0.5,4,4,1,4,517,1,1,517,1,0,1.8,NaN,-0.884155461867885,-0.884155461867885,750,1,0,congruent,1,4545.17900325568,4105.36470728527
66,104,1,126,-0.5,0.5,0.5,3,2,1,3,555,1,1,555,1,0,1.8,0.2,-0.627679413808758,-0.627679413808758,750,0,0,incongruent,0.1,2417.17659834608,418.232029446141
66,104,1,128,0.5,0.5,-0.5,4,4,0.8,4,509,1,1,509,1,0,1.2,NaN,-0.938150419354017,-0.938150419354017,750,1,0,congruent,1,4149.02139389105,1285.56848816612
66,104,1,129,-0.5,-0.5,0,1,NaN,0.8,1,596,1,1,596,1,0,1.4,0.4,-0.350955256692331,-0.350955256692331,750,0,0,neutral,0.1,665.737858655338,4706.5033980142
66,104,1,130,0.5,0.5,-0.5,2,2,0.8,2,552,1,1,552,1,0,1.2,NaN,-0.647927522866057,-0.647927522866057,750,1,0,congruent,1,6884.22003379689,3194.6061627628
66,104,1,131,0.5,0.5,0.5,3,1,0.8,3,691,1,1,691,1,0,1.2,NaN,0.290234863455488,0.290234863455488,750,0,0,incongruent,1,909.223645309608,1955.73782308298
66,104,1,132,0.5,0.5,0,2,NaN,0.8,2,412,1,1,412,1,0,1.4,NaN,-1.59283927887337,-1.59283927887337,750,0,0,neutral,1,1646.41392638479,1997.36829004956
66,104,1,133,-0.5,0.5,0.5,1,2,0.8,1,912,1,0,912,0,0,1.8,0.4,1.78184556400989,1.78184556400989,750,0,0,incongruent,0,2651.06871403491,3968.77158193788
66,104,1,134,-0.5,-0.5,0.5,3,1,0.8,3,568,1,1,568,1,0,1.4,0.6,-0.539937607893793,-0.539937607893793,750,0,0,incongruent,0.1,2183.57244875691,1385.97112994562
66,104,1,135,0.5,0.5,0,1,NaN,0.8,1,650,1,1,650,1,0,1.4,NaN,0.0135107063390611,0.0135107063390611,750,0,0,neutral,1,8161.47863616882,2026.23645023368
66,104,1,136,0.5,-0.5,-0.5,3,3,0.8,3,507,1,1,507,0,0,1.4,NaN,-0.95164915872555,-0.95164915872555,750,1,0,congruent,0,5886.0081183494,3399.25692120798
66,104,1,137,-0.5,0.5,-0.5,4,4,0.8,4,563,1,1,563,1,0,1,0.4,-0.573684456322626,-0.573684456322626,750,1,0,congruent,0.1,2319.96379791843,3402.03504004438
66,104,1,138,-0.5,0.5,0.5,3,1,0.8,3,903,1,0,903,0,0,0.8,0.6,1.72110123683799,1.72110123683799,750,0,0,incongruent,0,4977.01587181166,1639.34768840809
66,104,1,140,-0.5,0.5,0.5,4,3,0.4,4,609,1,1,609,1,0,0.6,0.2,-0.263213450777366,-0.263213450777366,750,0,0,incongruent,0.1,803.207955663557,3498.73903004069
66,104,1,141,0.5,-0.5,-0.5,2,2,0.6,2,816,1,0,816,1,0,0.4,NaN,1.1339060741763,1.1339060741763,750,1,0,congruent,1,4750.55599659657,735.764313969187
66,104,1,142,0.5,-0.5,0.5,4,1,0.6,4,820,1,0,820,1,0,0.8,NaN,1.16090355291937,1.16090355291937,750,0,0,incongruent,1,3997.99380783134,1996.63073321815
66,104,1,143,0.5,0.5,-0.5,3,3,0.6,3,596,1,1,596,1,0,1,NaN,-0.350955256692331,-0.350955256692331,750,1,0,congruent,1,3535.85087110916,4068.81798595293
66,104,1,144,0.5,-0.5,0,1,NaN,0.6,2,966,0,0,NaN,1,0,1.4,NaN,2.14631152704128,NaN,750,0,1,neutral,1,5258.53301918036,4120.17298586134
66,104,1,145,0.5,0.5,0.5,4,2,0.6,4,598,1,1,598,1,0,1.8,NaN,-0.337456517320798,-0.337456517320798,750,0,0,incongruent,1,2301.57145537927,1082.46458810616
66,104,1,146,0.5,0.5,0,2,NaN,0.6,1,678,0,1,NaN,0,0,2,NaN,0.202493057540523,NaN,750,0,1,neutral,0,2643.79341683425,2028.53039626228
66,104,1,147,-0.5,-0.5,-0.5,1,1,0.6,1,790,1,0,790,1,0,1.6,0.6,0.958422462346373,0.958422462346373,750,1,0,congruent,0.1,4692.94963172501,2899.03538855021
66,104,1,148,0.5,0.5,-0.5,3,3,0.6,3,919,1,0,919,0,0,1.4,NaN,1.82909115181025,1.82909115181025,750,1,0,congruent,0,6970.01571136502,2108.89119416213
66,104,1,149,-0.5,0.5,-0.5,1,1,0.6,1,581,1,1,581,1,0,1,0.4,-0.452195801978828,-0.452195801978828,750,1,0,congruent,0.1,2329.89846027311,2034.13406836732
66,104,1,150,-0.5,0.5,0,2,NaN,0.6,2,400,1,1,400,1,0,0.8,0.6,-1.67383171510257,-1.67383171510257,750,0,0,neutral,0.1,655.871193015545,1115.18736623271
66,104,2,152,0.5,0.5,0,3,NaN,0.4,3,563,1,1,563,1,0,0.6,NaN,-0.573684456322626,-0.573684456322626,750,0,0,neutral,1,1841.28453379431,3594.39337538764
66,104,2,153,-0.5,-0.5,-0.5,2,2,0.6,2,815,1,0,815,1,0,0.8,0.8,1.12715670449054,1.12715670449054,750,1,0,congruent,0.1,5538.02439123077,4047.20202907415
66,104,2,154,0.5,0.5,0.5,1,3,0.6,1,751,1,0,751,0,0,1,NaN,0.695197044601479,0.695197044601479,750,0,0,incongruent,0,4727.58021852336,845.09796276188
66,104,2,155,-0.5,-0.5,0,2,NaN,0.6,2,592,1,1,592,0,0,0.8,1,-0.377952735435397,-0.377952735435397,750,0,0,neutral,0,3281.94205272377,4455.89070241334
66,104,2,156,-0.5,-0.5,-0.5,4,4,0.6,4,725,1,1,725,1,0,0.6,0.8,0.51971343277155,0.51971343277155,750,1,0,congruent,0.1,3018.80949022653,4060.88578411861
66,104,2,157,0.5,0.5,0.5,3,2,0.6,3,885,1,0,885,0,0,0.8,NaN,1.59961258249419,1.59961258249419,750,0,0,incongruent,0,5748.326200929,2551.50611347176
66,104,2,158,-0.5,-0.5,-0.5,1,1,0.4,1,670,1,1,670,0,0,0.4,0.8,0.148498100054391,0.148498100054391,750,1,0,congruent,0,1514.43301138075,3192.40531071875
66,104,2,159,0.5,0.5,-0.5,3,3,0.4,3,763,1,0,763,0,0,0.2,NaN,0.776189480830677,0.776189480830677,750,1,0,congruent,0,2128.7496345637,1627.31269242318
66,104,2,160,-0.5,-0.5,0.5,1,4,0.2,4,657,0,1,NaN,0,0,0.2,0.6,0.0607562941394267,NaN,750,1,0,incongruent,0,35241.3058850669,3035.16253102736
66,104,2,161,0.5,-0.5,0,3,NaN,0.2,3,858,1,0,858,0,0,0.2,NaN,1.4173796009785,1.4173796009785,750,0,0,neutral,0,9176.40399731935,1334.95741598907
66,104,2,162,0.5,0.5,0.5,1,3,0.2,1,664,1,1,664,1,0,0,NaN,0.108001881939792,0.108001881939792,750,0,0,incongruent,1,2126.34710956148,4154.38044325384
66,104,2,163,0.5,0.5,0.5,2,4,0.4,2,328,1,1,328,1,0,0.4,NaN,-2.15978633247776,-2.15978633247776,750,0,0,incongruent,1,3273.75730187509,1092.70480972951
66,104,2,164,0.5,0.5,-0.5,3,3,0.4,3,409,1,1,409,1,0,0.8,NaN,-1.61308738793067,-1.61308738793067,750,1,0,congruent,1,4788.896989179,2838.49672356682
66,104,2,165,0.5,-0.5,-0.5,1,1,0.6,3,856,0,0,NaN,1,0,1.2,NaN,1.40388086160696,NaN,750,0,1,congruent,1,2158.2056573627,3440.57273305394
66,104,2,166,-0.5,0.5,0,4,NaN,0.6,4,593,1,1,593,1,0,1.6,0.6,-0.37120336574963,-0.37120336574963,750,0,0,neutral,0.1,10179.0068700414,4092.37392271038
66,104,2,167,0.5,0.5,-0.5,3,3,0.8,3,548,1,1,548,1,0,1.8,NaN,-0.674925001609123,-0.674925001609123,750,1,0,congruent,1,2781.97259260625,2126.03198822233
66,104,2,168,-0.5,0.5,0.5,1,4,1,1,619,1,1,619,1,0,1.8,0.8,-0.195719753919701,-0.195719753919701,750,0,0,incongruent,0.1,2353.57343304234,1584.32042070735
66,104,2,169,-0.5,0.5,0.5,4,3,1,4,543,1,1,543,1,0,1.6,1,-0.708671850037956,-0.708671850037956,750,0,0,incongruent,0.1,5775.6241191632,904.853858828139
66,104,2,170,0.5,-0.5,-0.5,1,1,1,1,850,1,0,850,1,0,1.4,NaN,1.36338464349236,1.36338464349236,750,1,0,congruent,1,1501.72117936757,1479.11326905441
66,104,2,171,0.5,0.5,0.5,2,3,1,2,330,1,1,330,1,0,1.4,NaN,-2.14628759310622,-2.14628759310622,750,0,0,incongruent,1,4050.2611708792,2500.84504533598
66,104,2,172,-0.5,0.5,-0.5,4,4,1,4,506,1,1,506,1,0,1.6,1,-0.958398528411317,-0.958398528411317,750,1,0,congruent,0.1,1889.6361572344,797.863331072235
66,104,2,173,-0.5,-0.5,0,3,NaN,1,3,604,1,1,604,1,0,1.4,0.4,-0.296960299206199,-0.296960299206199,750,0,0,neutral,0.1,982.654105932308,2836.42027160518
66,104,2,174,-0.5,-0.5,-0.5,4,4,1,4,784,1,0,784,1,0,1.4,0.4,0.917926244231774,0.917926244231774,750,1,0,congruent,0.1,1985.02203100174,2764.60902956743
66,104,2,175,-0.5,0.5,0.5,3,2,1,3,568,1,1,568,1,0,1.4,1,-0.539937607893793,-0.539937607893793,750,0,0,incongruent,0.1,1054.573349571,2545.51790509303
66,104,2,176,0.5,-0.5,0.5,2,1,1,1,834,0,0,NaN,1,0,1.2,NaN,1.2553947285201,NaN,750,1,0,incongruent,1,18245.5207849553,4058.74142168209
66,104,2,177,0.5,-0.5,0,1,NaN,1,1,750,1,1,750,1,0,1.2,NaN,0.688447674915712,0.688447674915712,750,0,0,neutral,1,5872.24203993595,2698.1977562373
66,104,2,178,0.5,0.5,-0.5,2,2,1,2,441,1,1,441,1,0,1.4,NaN,-1.39710755798614,-1.39710755798614,750,1,0,congruent,1,1327.65419180596,3388.42564704254
66,104,2,179,0.5,-0.5,-0.5,3,3,1,3,600,1,1,600,1,0,1.6,NaN,-0.323957777949265,-0.323957777949265,750,1,0,congruent,1,3774.56169407988,1971.22489450832
66,104,2,180,-0.5,0.5,-0.5,4,4,1,4,488,1,1,488,1,0,1.8,1,-1.07988718275511,-1.07988718275511,750,1,0,congruent,0.1,3441.63588949905,1493.12292992392
66,104,2,181,0.5,0.5,0,3,NaN,1,3,566,1,1,566,1,0,1.8,NaN,-0.553436347265326,-0.553436347265326,750,0,0,neutral,1,1818.65866748547,1055.16702460969
66,104,2,182,0.5,-0.5,-0.5,1,1,1,1,588,1,1,588,1,0,1.8,NaN,-0.404950214178463,-0.404950214178463,750,1,0,congruent,1,1685.03246407574,665.094540159385
66,104,2,183,-0.5,-0.5,0,4,NaN,1,4,661,1,1,661,1,0,1.8,0.6,0.0877537728824928,0.0877537728824928,750,0,0,neutral,0.1,1286.44166422773,3011.02322827777
66,104,2,184,0.5,0.5,-0.5,2,2,1,2,558,1,1,558,1,0,1.6,NaN,-0.607431304751458,-0.607431304751458,750,1,0,congruent,1,2451.21700749525,2150.22628698619
66,104,2,185,-0.5,0.5,0,3,NaN,1,3,495,1,1,495,1,0,1.6,1,-1.03264159495475,-1.03264159495475,750,0,0,neutral,0.1,3338.54618118077,2152.46919070056
66,104,2,186,0.5,0.5,-0.5,1,1,1,1,593,1,1,593,1,0,1.6,NaN,-0.37120336574963,-0.37120336574963,750,1,0,congruent,1,1410.17863551771,1911.01405383779
66,104,2,187,0.5,-0.5,0.5,4,2,1,4,666,1,1,666,1,0,1.6,NaN,0.121500621311325,0.121500621311325,750,0,0,incongruent,1,3314.69476748036,9723.91628814117
66,104,2,188,-0.5,-0.5,0,3,NaN,1,1,679,0,1,NaN,1,0,1.6,0.6,0.20924242722629,NaN,750,0,1,neutral,0.1,3464.65650910583,2730.73023115644
66,104,2,189,0.5,0.5,-0.5,2,2,1,2,313,1,1,313,1,0,1.6,NaN,-2.26102687776425,-2.26102687776425,750,1,0,congruent,1,565.529209188211,2105.27762005992
66,104,2,190,0.5,0.5,0,3,NaN,1,1,578,0,1,NaN,0,0,1.6,NaN,-0.472443911036128,NaN,750,0,1,neutral,0,3562.67390833797,4315.78567667705
66,104,2,191,-0.5,0.5,0.5,4,1,0.8,4,609,1,1,609,1,0,1.4,1,-0.263213450777366,-0.263213450777366,750,0,0,incongruent,0.1,2338.5023474016,5151.9736721396
66,104,2,192,0.5,0.5,-0.5,3,3,0.8,3,776,1,0,776,0,0,1.2,NaN,0.863931286745642,0.863931286745642,750,1,0,congruent,0,4010.17244580149,3855.1627490783
66,104,2,193,0.5,0.5,-0.5,4,4,0.6,4,558,1,1,558,1,0,0.8,NaN,-0.607431304751458,-0.607431304751458,750,1,0,congruent,1,723.656120647923,1336.87115389205
66,104,2,194,0.5,0.5,0.5,3,2,0.6,3,747,1,1,747,1,0,1,NaN,0.668199565858413,0.668199565858413,750,0,0,incongruent,1,1830.24756231414,8621.76381644877
66,104,2,196,0.5,-0.5,0.5,2,3,0.6,2,843,1,0,843,1,0,1.2,NaN,1.316139055692,1.316139055692,750,0,0,incongruent,1,1232.72251234841,966.900404040278
66,104,2,197,0.5,0.5,0,3,NaN,0.6,3,547,1,1,547,1,0,1.4,NaN,-0.68167437129489,-0.68167437129489,750,0,0,neutral,1,1377.28323566419,1237.44937936277
66,104,2,198,0.5,0.5,-0.5,2,2,0.8,2,417,1,1,417,1,0,1.8,NaN,-1.55909243044454,-1.55909243044454,750,1,0,congruent,1,750.286043889699,468.112160916935
66,104,2,199,-0.5,-0.5,-0.5,1,1,0.8,1,762,1,0,762,1,0,1.8,1,0.769440111144911,0.769440111144911,750,1,0,congruent,0.1,832.385129047553,8305.57604100357
66,104,2,200,-0.5,-0.5,0.5,4,3,0.8,4,918,1,0,918,1,0,1.6,1,1.82234178212449,1.82234178212449,750,0,0,incongruent,0.1,2728.87470998576,3654.88089799129
66,104,2,201,0.5,-0.5,0,3,NaN,0.8,3,565,1,1,565,1,0,1.6,NaN,-0.560185716951093,-0.560185716951093,750,0,0,neutral,1,13218.970377104,969.004746798899
66,104,2,202,0.5,0.5,-0.5,1,1,0.8,3,827,0,0,NaN,0,0,1.6,NaN,1.20814914071973,NaN,750,0,1,congruent,0,6135.98552602164,5058.67153087084
66,104,2,203,-0.5,0.5,0.5,2,3,0.8,3,907,0,0,NaN,0,0,1.2,1,1.74809871558106,NaN,750,1,0,incongruent,0,24264.3199594024,2916.20584161292
66,104,2,204,0.5,-0.5,0,3,NaN,0.6,3,648,1,1,648,1,0,0.8,NaN,1.19669675280745e-05,1.19669675280745e-05,750,0,0,neutral,1,4496.85224255588,909.41506484321
66,104,2,205,0.5,-0.5,0.5,2,3,0.6,2,720,1,1,720,0,0,1,NaN,0.485966584342717,0.485966584342717,750,0,0,incongruent,0,4476.63105490903,1641.92481060051
66,104,2,206,0.5,0.5,0,1,NaN,0.6,1,514,1,1,514,1,0,0.8,NaN,-0.904403570925185,-0.904403570925185,750,0,0,neutral,1,3110.06630791396,3423.85951561865
66,104,2,207,0.5,-0.5,0.5,2,3,0.6,4,627,0,1,NaN,1,0,0.8,NaN,-0.141724796433569,NaN,750,0,1,incongruent,1,1280.83937486028,4116.69437395876
66,104,2,208,-0.5,0.5,-0.5,4,4,0.6,4,633,1,1,633,1,0,1.2,0.8,-0.10122857831897,-0.10122857831897,750,1,0,congruent,0.1,2297.9697449605,2471.96985568532
66,104,2,211,-0.5,-0.5,-0.5,2,2,0.6,2,562,1,1,562,0,0,1.2,0.8,-0.580433826008392,-0.580433826008392,750,1,0,congruent,0,8704.71025971238,2321.65386641459
66,104,2,212,-0.5,0.5,0.5,1,4,0.6,1,897,1,0,897,0,0,0.8,0.8,1.68060501872339,1.68060501872339,750,0,0,incongruent,0,3641.15580228827,1828.75904205996
66,104,2,213,0.5,-0.5,0,2,NaN,0.4,2,691,1,1,691,1,0,0.4,NaN,0.290234863455488,0.290234863455488,750,0,0,neutral,1,8339.78487962025,4478.67798876347
66,104,2,214,0.5,0.5,0.5,1,3,0.4,1,718,1,1,718,1,0,0.6,NaN,0.472467844971184,0.472467844971184,750,0,0,incongruent,1,4555.75423555943,2035.7021040755
66,104,2,215,-0.5,-0.5,-0.5,4,4,0.6,4,548,1,1,548,1,0,0.8,0.6,-0.674925001609123,-0.674925001609123,750,1,0,congruent,0.1,5029.85501712361,2092.70529745226
66,104,2,216,-0.5,0.5,0.5,3,1,0.6,1,878,0,0,NaN,0,0,1,0.6,1.55236699469383,NaN,750,1,0,incongruent,0,2587.26107932805,1858.16271952608
66,104,2,217,0.5,0.5,0,1,NaN,0.6,4,517,0,1,NaN,0,0,1,NaN,-0.884155461867885,NaN,750,0,1,neutral,0,6387.02528711912,3299.91734058038
66,104,2,218,0.5,-0.5,-0.5,3,3,0.4,3,499,1,1,499,0,0,1,NaN,-1.00564411621168,-1.00564411621168,750,1,0,congruent,0,1309.64159856928,3268.61583135075
66,104,2,219,0.5,-0.5,0,2,NaN,0.4,2,922,1,0,922,1,0,0.6,NaN,1.84933926086755,1.84933926086755,750,0,0,neutral,1,4845.96943073176,1614.01438372518
66,104,2,220,0.5,0.5,0.5,4,2,0.4,4,627,1,1,627,1,0,0.6,NaN,-0.141724796433569,-0.141724796433569,750,0,0,incongruent,1,5170.59712242452,4496.21190891503
66,104,2,221,0.5,-0.5,-0.5,1,1,0.4,1,557,1,1,557,0,0,0.8,NaN,-0.614180674437225,-0.614180674437225,750,1,0,congruent,0,2325.10122573187,3545.97906784822
66,104,2,222,0.5,0.5,0.5,3,4,0.4,3,664,1,1,664,1,0,0.8,NaN,0.108001881939792,0.108001881939792,750,0,0,incongruent,1,3200.76009476067,2141.78178494284
66,104,2,223,-0.5,-0.5,-0.5,1,1,0.6,1,678,1,1,678,1,0,1.2,0.6,0.202493057540523,0.202493057540523,750,1,0,congruent,0.1,7865.08665394865,1666.97080795654
66,104,2,224,0.5,0.5,0,3,NaN,0.6,3,505,1,1,505,1,0,1.4,NaN,-0.965147898097083,-0.965147898097083,750,0,0,neutral,1,9580.05110872645,1099.97222295478
66,104,2,225,-0.5,0.5,0.5,4,2,0.6,4,552,1,1,552,1,0,1.4,0.4,-0.647927522866057,-0.647927522866057,750,0,0,incongruent,0.1,2932.92175678391,2081.6631600521
66,104,2,227,-0.5,-0.5,0,2,NaN,0.8,1,724,0,1,NaN,1,0,1.4,0.6,0.512964063085783,NaN,750,0,1,neutral,0.1,2263.4603470538,1682.50733354528
66,104,2,228,-0.5,-0.5,-0.5,4,4,0.8,4,461,1,1,461,1,0,1.2,0.8,-1.26212016427081,-1.26212016427081,750,1,0,congruent,0.1,2355.25902766862,1637.22744492702
66,104,2,229,-0.5,0.5,0.5,3,2,0.8,3,644,1,1,644,1,0,1.2,0.4,-0.026985511775538,-0.026985511775538,750,0,0,incongruent,0.1,3083.44809785264,858.645294589731
66,104,2,231,-0.5,-0.5,0,4,NaN,0.8,4,529,1,1,529,1,0,0.8,1,-0.803163025638687,-0.803163025638687,750,0,0,neutral,0.1,4101.19768397278,2430.8307014587
66,104,2,232,-0.5,-0.5,-0.5,3,3,0.8,3,845,1,0,845,1,0,0.8,1,1.32963779506353,1.32963779506353,750,1,0,congruent,0.1,5161.81256577207,3461.43749028439
66,104,2,234,-0.5,-0.5,0.5,3,2,0.6,3,916,1,0,916,1,0,0.6,1,1.80884304275295,1.80884304275295,750,0,0,incongruent,0.1,13361.297450312,1112.59288287774
66,104,2,237,-0.5,0.5,0.5,2,3,0.4,1,505,0,1,NaN,0,0,0.4,0.4,-0.965147898097083,NaN,750,0,1,incongruent,0,5219.37815016195,1274.32561395791
66,104,2,239,0.5,-0.5,-0.5,4,4,0,4,589,1,1,589,0,0,0.2,NaN,-0.398200844492696,-0.398200844492696,750,1,0,congruent,0,1215.04689744955,1086.4502772781
66,104,2,240,0.5,0.5,0,3,NaN,0,3,761,1,0,761,0,0,0,NaN,0.762690741459144,0.762690741459144,750,0,0,neutral,0,1432.2234671359,5967.85921786304
66,104,2,241,0.5,0.5,-0.5,2,2,0,2,255,1,1,255,1,0,0,NaN,-2.65249031953871,-2.65249031953871,750,1,0,congruent,1,6869.23103546227,1124.17452874583
66,104,2,242,-0.5,0.5,0.5,4,1,0.2,4,672,1,1,672,1,0,0.4,0.4,0.161996839425924,0.161996839425924,750,0,0,incongruent,0.1,2012.90615104476,4795.89015068111
66,104,2,243,-0.5,-0.5,-0.5,3,3,0.4,3,619,1,1,619,0,0,0.6,1,-0.195719753919701,-0.195719753919701,750,1,0,congruent,0,3371.14165585377,6377.38565010019
66,104,2,244,0.5,-0.5,0.5,2,1,0.4,4,873,0,0,NaN,0,0,0.6,NaN,1.51862014626499,NaN,750,0,1,incongruent,0,8781.77684200826,1568.24769461506
66,104,2,245,-0.5,-0.5,0,4,NaN,0.4,4,585,1,1,585,1,0,0.6,0.8,-0.425198323235762,-0.425198323235762,750,0,0,neutral,0.1,3539.27671081626,3941.75464258964
66,104,2,246,-0.5,-0.5,0.5,2,3,0.4,2,913,1,0,913,1,0,0.8,0.8,1.78859493369565,1.78859493369565,750,0,0,incongruent,0.1,4407.52192715668,1596.96532952192
66,104,2,247,-0.5,0.5,0.5,1,4,0.4,1,808,1,0,808,0,0,0.6,0.4,1.07991111669017,1.07991111669017,750,0,0,incongruent,0,3836.50915803492,3396.63061082265
66,104,2,248,-0.5,0.5,0,3,NaN,0.4,3,628,1,1,628,1,0,0.4,0.2,-0.134975426747802,-0.134975426747802,750,0,0,neutral,0.1,2627.31360807637,1224.99524246131
66,104,2,249,0.5,-0.5,-0.5,2,2,0.6,3,806,0,0,NaN,1,0,0.6,NaN,1.06641237731864,NaN,750,0,1,congruent,1,5972.60357735739,2417.87972508972
66,104,2,250,-0.5,-0.5,0.5,4,1,0.6,4,576,1,1,576,0,0,1,0.8,-0.485942650407661,-0.485942650407661,750,0,0,incongruent,0,2719.87301485008,2091.99640608866
66,104,2,251,-0.5,0.5,-0.5,2,2,0.6,2,532,1,1,532,1,0,0.8,0.4,-0.782914916581387,-0.782914916581387,750,1,0,congruent,0.1,3049.82083433585,1038.12686106985
66,104,2,252,0.5,0.5,-0.5,1,1,0.8,1,854,1,0,854,0,0,0.8,NaN,1.39038212223543,1.39038212223543,750,1,0,congruent,0,6344.22991651458,7808.18155758458
66,104,2,253,0.5,0.5,0.5,4,3,0.6,4,741,1,1,741,1,0,0.8,NaN,0.627703347743814,0.627703347743814,750,0,0,incongruent,1,5163.2045445784,4577.0301344214
66,104,2,254,-0.5,0.5,0.5,3,2,0.6,3,804,1,0,804,0,0,1,0.6,1.0529136379471,1.0529136379471,750,0,0,incongruent,0,4969.72461514242,1910.93653819571
66,104,2,255,0.5,0.5,-0.5,4,4,0.6,4,550,1,1,550,1,0,0.6,NaN,-0.66142626223759,-0.66142626223759,750,1,0,congruent,1,7592.60002523058,6690.01674562312
66,104,2,257,-0.5,0.5,-0.5,2,2,0.6,2,977,1,0,977,0,0,1,0.6,2.22055459358471,2.22055459358471,750,1,0,congruent,0,3999.38761271966,3960.2569503323
66,104,2,258,-0.5,-0.5,0.5,4,3,0.4,4,553,1,1,553,0,0,1,0.6,-0.641178153180291,-0.641178153180291,750,0,0,incongruent,0,5286.4213039672,6639.05137175351
66,104,2,259,0.5,0.5,-0.5,2,2,0.4,2,357,1,1,357,1,0,0.6,NaN,-1.96405461159053,-1.96405461159053,750,1,0,congruent,1,2682.17165371213,1910.45231384921
66,104,2,260,0.5,-0.5,0.5,1,3,0.6,3,0,0,1,NaN,1,0,1,NaN,-4.37357958940917,NaN,750,1,0,incongruent,1,1395.94005516486,2810.26573752311
66,104,2,261,-0.5,0.5,0.5,4,1,0.6,1,781,0,0,NaN,0,0,1,0.4,0.897678135174474,NaN,750,1,0,incongruent,0,13430.4199755142,1125.89467331745
66,104,2,262,-0.5,-0.5,0,2,NaN,0.4,3,919,0,0,NaN,1,0,0.8,0.6,1.82909115181025,NaN,750,0,1,neutral,0.1,5180.53109129026,3932.74647053867
66,104,2,263,0.5,0.5,-0.5,3,3,0.4,3,773,1,0,773,0,0,1,NaN,0.843683177688342,0.843683177688342,750,1,0,congruent,0,9271.81876424518,2816.8118703221
66,104,2,264,0.5,-0.5,0,1,NaN,0.4,1,694,1,1,694,0,0,1,NaN,0.310482972512788,0.310482972512788,750,0,0,neutral,0,2139.30657450787,3780.67077283228
66,104,2,265,-0.5,-0.5,-0.5,4,4,0.4,4,564,1,1,564,1,0,0.6,0.6,-0.566935086636859,-0.566935086636859,750,1,0,congruent,0.1,8524.17635273477,6852.97377494502
66,104,2,266,-0.5,-0.5,0,2,NaN,0.4,2,464,1,1,464,0,0,0.4,0.6,-1.24187205521351,-1.24187205521351,750,0,0,neutral,0,888.779821527383,6530.39892584071
66,104,2,267,-0.5,0.5,-0.5,1,1,0.4,1,655,1,1,655,1,0,0.4,0.4,0.0472575547678937,0.0472575547678937,750,1,0,congruent,0.1,10785.5429048675,7678.66909854497
66,104,2,268,-0.5,0.5,-0.5,2,2,0.4,3,888,0,0,NaN,0,0,0.4,0.4,1.61986069155149,NaN,750,0,1,congruent,0,4888.64937960695,4705.56490021567
66,104,2,269,0.5,-0.5,0,3,NaN,0.4,3,662,1,1,662,0,0,0.4,NaN,0.0945031425682593,0.0945031425682593,750,0,0,neutral,0,6337.51398728169,1873.07439415393
66,104,2,270,0.5,-0.5,-0.5,2,2,0.4,2,925,1,0,925,0,0,0.4,NaN,1.86958736992485,1.86958736992485,750,1,0,congruent,0,1555.25032856145,968.669488265468
66,104,2,271,0.5,-0.5,-0.5,3,3,0.4,3,615,1,1,615,1,0,0.2,NaN,-0.222717232662767,-0.222717232662767,750,1,0,congruent,1,7861.8373567347,12447.1674836037
66,104,2,272,-0.5,0.5,-0.5,4,4,0.4,4,522,1,1,522,1,0,0.6,0.2,-0.850408613439053,-0.850408613439053,750,1,0,congruent,0.1,4161.88577346877,1266.48484518049
66,104,2,273,-0.5,0.5,-0.5,2,2,0.4,2,726,1,1,726,1,0,0.6,0.4,0.526462802457316,0.526462802457316,750,1,0,congruent,0.1,4266.39663686278,607.789387558769
66,104,2,274,-0.5,0.5,0,1,NaN,0.6,4,511,0,1,NaN,0,0,0.8,0.6,-0.924651679982484,NaN,750,0,1,neutral,0,6517.87906201661,2813.7876572057
66,104,2,277,0.5,-0.5,-0.5,2,2,0.4,2,687,1,1,687,1,0,0.6,NaN,0.263237384712422,0.263237384712422,750,1,0,congruent,1,10351.5306518642,3418.65620071026
66,104,2,278,0.5,0.5,0.5,3,1,0.4,4,915,0,0,NaN,0,0,0.8,NaN,1.80209367306719,NaN,750,0,1,incongruent,0,6844.64869875923,2366.71561681929
66,104,2,279,-0.5,-0.5,-0.5,2,2,0.4,2,728,1,1,728,0,0,0.6,0.6,0.539961541828849,0.539961541828849,750,1,0,congruent,0,3089.99560150573,3687.02646809432
66,104,2,280,-0.5,0.5,0.5,1,3,0.4,1,667,1,1,667,1,0,0.6,0.4,0.128249990997092,0.128249990997092,750,0,0,incongruent,0.1,3616.45817051751,3007.66734892472
66,104,2,281,0.5,0.5,-0.5,2,2,0.4,2,769,1,0,769,0,0,0.6,NaN,0.816685698945276,0.816685698945276,750,1,0,congruent,0,5350.06565975793,2429.77164701028
66,104,2,282,0.5,0.5,0,1,NaN,0.2,1,692,1,1,692,1,0,0.6,NaN,0.296984233141255,0.296984233141255,750,0,0,neutral,1,2737.0313911919,8570.37633143257
66,104,2,283,-0.5,0.5,-0.5,2,2,0.4,2,499,1,1,499,1,0,0.6,0.6,-1.00564411621168,-1.00564411621168,750,1,0,congruent,0.1,1425.52463017842,3084.35866848048
66,104,2,284,0.5,0.5,0,4,NaN,0.6,4,583,1,1,583,1,0,0.8,NaN,-0.438697062607295,-0.438697062607295,750,0,0,neutral,1,3501.38089850066,2397.29725232832
66,104,2,285,0.5,0.5,-0.5,3,3,0.8,3,560,1,1,560,1,0,1.2,NaN,-0.593932565379925,-0.593932565379925,750,1,0,congruent,1,8689.62475407611,3722.00885201017
66,104,2,286,0.5,-0.5,0,2,NaN,0.8,2,442,1,1,442,1,0,1.4,NaN,-1.39035818830037,-1.39035818830037,750,0,0,neutral,1,1840.15177719538,1147.26202824285
66,104,2,287,-0.5,-0.5,-0.5,3,3,0.8,3,488,1,1,488,1,0,1.8,0.6,-1.07988718275511,-1.07988718275511,750,1,0,congruent,0.1,2775.78195785006,1835.76712741066
66,104,2,288,0.5,0.5,-0.5,1,1,0.8,1,510,1,1,510,1,0,1.6,NaN,-0.931401049668251,-0.931401049668251,750,1,0,congruent,1,11938.6507963222,2871.83979586405
66,104,2,289,0.5,-0.5,0,3,NaN,1,3,510,1,1,510,1,0,1.8,NaN,-0.931401049668251,-0.931401049668251,750,0,0,neutral,1,6461.09494363702,1437.72338420999
66,104,2,290,0.5,-0.5,-0.5,4,4,1,4,502,1,1,502,1,0,1.8,NaN,-0.985396007154383,-0.985396007154383,750,1,0,congruent,1,2798.23383380824,6758.16571695251
66,104,2,291,-0.5,-0.5,0,1,NaN,1,3,676,0,1,NaN,1,0,1.8,0.6,0.18899431816899,NaN,750,0,1,neutral,0.1,16393.2350100234,3219.63732854997
66,104,2,292,-0.5,-0.5,-0.5,2,2,1,2,739,1,1,739,1,0,1.6,0.6,0.614204608372281,0.614204608372281,750,1,0,congruent,0.1,2490.51035165908,797.696746641059
66,104,2,293,0.5,0.5,0.5,4,3,1,4,597,1,1,597,1,0,1.6,NaN,-0.344205887006564,-0.344205887006564,750,0,0,incongruent,1,1693.71171326634,799.517537083062
66,104,2,294,0.5,-0.5,0.5,1,2,1,1,894,1,0,894,1,0,1.6,NaN,1.66035690966609,1.66035690966609,750,0,0,incongruent,1,6681.51311705532,5314.88340575162
66,104,2,295,-0.5,0.5,0,3,NaN,1,3,913,1,0,913,0,0,1.6,0.6,1.78859493369565,1.78859493369565,750,0,0,neutral,0,2003.64148295849,2725.55127145267
66,104,2,296,0.5,-0.5,0.5,4,3,0.8,4,732,1,1,732,0,0,1.2,NaN,0.566959020571915,0.566959020571915,750,0,0,incongruent,0,2192.24218620445,6377.46358859269
66,104,2,298,-0.5,-0.5,0,3,NaN,0.6,3,711,1,1,711,1,0,0.8,0.8,0.425222257170818,0.425222257170818,750,0,0,neutral,0.1,6431.80955898141,2648.15178928242
66,104,2,299,-0.5,-0.5,-0.5,2,2,0.6,2,624,1,1,624,1,0,0.6,0.8,-0.161972905490868,-0.161972905490868,750,1,0,congruent,0.1,540.161226063603,1930.22618594128
66,104,2,300,0.5,0.5,0.5,1,4,0.6,1,773,1,0,773,0,0,0.4,NaN,0.843683177688342,0.843683177688342,750,0,0,incongruent,0,3221.24086256639,13816.4589103805
66,104,3,301,0.5,-0.5,-0.5,2,2,0.4,2,836,1,0,836,1,0,0.4,NaN,1.26889346789163,1.26889346789163,750,1,0,congruent,1,7853.81198728785,1510.9643533667
66,104,3,302,0.5,0.5,0.5,1,4,0.4,1,643,1,1,643,1,0,0.8,NaN,-0.0337348814613045,-0.0337348814613045,750,0,0,incongruent,1,2757.11325966933,2038.53245890201
66,104,3,303,-0.5,0.5,-0.5,2,2,0.4,2,519,1,1,519,1,0,1.2,0.4,-0.870656722496352,-0.870656722496352,750,1,0,congruent,0.1,526.701776547419,2004.63401929182
66,104,3,304,-0.5,0.5,-0.5,4,4,0.4,4,590,1,1,590,1,0,1.2,0.6,-0.39145147480693,-0.39145147480693,750,1,0,congruent,0.1,2027.45831695171,11077.7029882691
66,104,3,305,-0.5,-0.5,-0.5,2,2,0.6,2,543,1,1,543,1,0,1.2,1,-0.708671850037956,-0.708671850037956,750,1,0,congruent,0.1,4570.40997766539,2226.09141288089
66,104,3,306,-0.5,-0.5,0.5,3,4,0.6,3,816,1,0,816,1,0,1.4,1,1.1339060741763,1.1339060741763,750,0,0,incongruent,0.1,7709.84980513353,1113.21354993204
66,104,3,307,0.5,-0.5,0.5,4,2,0.6,4,696,1,1,696,1,0,1.2,NaN,0.323981711884321,0.323981711884321,750,0,0,incongruent,1,3865.7669280211,1668.59942540217
66,104,3,308,0.5,0.5,0,2,NaN,0.6,2,684,1,1,684,1,0,1.2,NaN,0.242989275655123,0.242989275655123,750,0,0,neutral,1,5543.51542677197,2513.26041071825
66,104,3,309,-0.5,-0.5,-0.5,1,1,0.8,1,597,1,1,597,0,0,1.4,1,-0.344205887006564,-0.344205887006564,750,1,0,congruent,0,833.334279063973,2099.86038162567
66,104,3,310,0.5,0.5,-0.5,3,3,0.8,3,664,1,1,664,1,0,1.2,NaN,0.108001881939792,0.108001881939792,750,1,0,congruent,1,8738.19775949163,4987.08709728322
66,104,3,311,-0.5,-0.5,0,4,NaN,1,4,604,1,1,604,1,0,1.4,0.8,-0.296960299206199,-0.296960299206199,750,0,0,neutral,0.1,714.708772844524,5507.38454026134
66,104,3,312,0.5,0.5,-0.5,1,1,1,1,598,1,1,598,1,0,1.4,NaN,-0.337456517320798,-0.337456517320798,750,1,0,congruent,1,4819.04732168172,1844.66095598476
66,104,3,313,-0.5,-0.5,-0.5,3,3,1,3,617,1,1,617,1,0,1.4,0.8,-0.209218493291234,-0.209218493291234,750,1,0,congruent,0.1,5396.91789507605,1783.34462794188
66,104,3,315,-0.5,-0.5,0,3,NaN,0.8,3,629,1,1,629,1,0,1.2,0.8,-0.128226057062036,-0.128226057062036,750,0,0,neutral,0.1,2407.70334655123,1050.50386928336
66,104,3,316,0.5,-0.5,0.5,2,4,0.8,2,848,1,0,848,1,0,1,NaN,1.34988590412083,1.34988590412083,750,0,0,incongruent,1,9097.97981243358,1536.77889633165
66,104,3,317,0.5,-0.5,0.5,4,2,0.8,4,528,1,1,528,0,0,1.2,NaN,-0.809912395324454,-0.809912395324454,750,0,0,incongruent,0,1512.43629271122,1500.47759351268
66,104,3,318,0.5,-0.5,0,3,NaN,0.8,3,500,1,1,500,0,0,0.8,NaN,-0.998894746525916,-0.998894746525916,750,0,0,neutral,0,5546.89226080127,1856.10318007657
66,104,3,319,0.5,0.5,0.5,1,4,0.8,4,580,0,1,NaN,0,0,0.6,NaN,-0.458945171664595,NaN,750,1,0,incongruent,0,7466.04243507244,3248.91729054588
66,104,3,320,0.5,-0.5,0.5,3,1,0.6,3,913,1,0,913,1,0,0.6,NaN,1.78859493369565,1.78859493369565,750,0,0,incongruent,1,4367.14612758551,1572.84739019618
66,104,3,321,0.5,0.5,0,2,NaN,0.6,2,344,1,1,344,1,0,0.8,NaN,-2.05179641750549,-2.05179641750549,750,0,0,neutral,1,3420.82294033826,1401.5618396639
66,104,3,322,-0.5,0.5,0.5,1,2,0.6,1,839,1,0,839,0,0,0.8,0.6,1.28914157694893,1.28914157694893,750,0,0,incongruent,0,2732.88566988815,3612.95526972998
66,104,3,323,-0.5,-0.5,0,3,NaN,0.4,3,680,1,1,680,0,0,0.8,0.8,0.215991796912056,0.215991796912056,750,0,0,neutral,0,2092.44260022211,4287.69786976888
66,104,3,324,-0.5,0.5,-0.5,1,1,0.4,1,590,1,1,590,1,0,0.8,0.4,-0.39145147480693,-0.39145147480693,750,1,0,congruent,0.1,1586.5580367857,3027.99601324361
66,104,3,325,-0.5,0.5,-0.5,4,4,0.4,4,553,1,1,553,1,0,1,0.6,-0.641178153180291,-0.641178153180291,750,1,0,congruent,0.1,2819.25395254026,3926.64114136468
66,104,3,326,0.5,0.5,-0.5,2,2,0.6,2,301,1,1,301,1,0,0.8,NaN,-2.34201931399345,-2.34201931399345,750,1,0,congruent,1,4279.1245249338,1388.92032233529
66,104,3,327,-0.5,0.5,0.5,1,3,0.8,1,827,1,0,827,0,0,0.8,0.8,1.20814914071973,1.20814914071973,750,0,0,incongruent,0,3455.32449662482,2189.12401920073
66,104,3,328,-0.5,0.5,0,4,NaN,0.6,4,697,1,1,697,1,0,0.8,0.6,0.330731081570087,0.330731081570087,750,0,0,neutral,0.1,2693.24208173059,2188.28160357239
66,104,3,329,-0.5,0.5,0.5,3,2,0.8,3,642,1,1,642,1,0,1,0.6,-0.040484251147071,-0.040484251147071,750,0,0,incongruent,0.1,4462.67206855992,2009.08244455494
66,104,3,330,-0.5,-0.5,0,4,NaN,0.8,4,561,1,1,561,0,0,1,0.6,-0.587183195694159,-0.587183195694159,750,0,0,neutral,0,1987.80206773282,9253.17122266017
66,104,3,333,0.5,0.5,-0.5,3,3,0.4,3,590,1,1,590,1,0,0.4,NaN,-0.39145147480693,-0.39145147480693,750,1,0,congruent,1,2281.33872154314,1159.04360971328
66,104,3,334,-0.5,-0.5,0.5,1,4,0.6,1,883,1,0,883,1,0,0.6,0.6,1.58611384312266,1.58611384312266,750,0,0,incongruent,0.1,2091.65292463371,4912.82989550486
66,104,3,335,0.5,0.5,0,4,NaN,0.6,4,593,1,1,593,1,0,0.6,NaN,-0.37120336574963,-0.37120336574963,750,0,0,neutral,1,3714.7975225594,1581.95310325299
66,104,3,336,0.5,0.5,0.5,3,2,0.6,3,694,1,1,694,1,0,1,NaN,0.310482972512788,0.310482972512788,750,0,0,incongruent,1,2347.53852273915,799.299803695048
66,104,3,337,0.5,0.5,-0.5,1,1,0.6,1,693,1,1,693,1,0,1.4,NaN,0.303733602827021,0.303733602827021,750,1,0,congruent,1,2703.83261131296,2432.20310368227
66,104,3,338,0.5,0.5,0,3,NaN,0.8,3,584,1,1,584,1,0,1.8,NaN,-0.431947692921529,-0.431947692921529,750,0,0,neutral,1,935.816106669712,11215.9970009772
66,104,3,339,0.5,-0.5,0.5,4,3,1,4,573,1,1,573,1,0,1.8,NaN,-0.50619075946496,-0.50619075946496,750,0,0,incongruent,1,942.683813505724,1963.90336149901
66,104,3,340,-0.5,0.5,-0.5,2,2,1,2,877,1,0,877,0,0,2,0.4,1.54561762500806,1.54561762500806,750,1,0,congruent,0,7278.90957770295,4547.08820847268
66,104,3,341,0.5,-0.5,0.5,3,1,0.8,3,405,1,1,405,1,0,1.6,NaN,-1.64008486667373,-1.64008486667373,750,0,0,incongruent,1,10944.1141221207,2662.33017175624
66,104,3,342,0.5,0.5,0,1,NaN,0.8,1,666,1,1,666,1,0,1.6,NaN,0.121500621311325,0.121500621311325,750,0,0,neutral,1,4019.70206158109,802.463611461996
66,104,3,343,-0.5,0.5,-0.5,3,3,0.8,3,666,1,1,666,1,0,1.6,0.4,0.121500621311325,0.121500621311325,750,1,0,congruent,0.1,7981.60956501713,7583.30758778329
66,104,3,344,0.5,0.5,-0.5,2,2,0.8,2,980,1,0,980,0,0,1.4,NaN,2.24080270264201,2.24080270264201,750,1,0,congruent,0,1312.35470415054,2111.66196258028
66,104,3,345,0.5,0.5,0,1,NaN,0.6,1,760,1,0,760,0,0,1,NaN,0.755941371773378,0.755941371773378,750,0,0,neutral,0,7506.5776845944,2528.67565993049
66,104,3,346,-0.5,0.5,-0.5,3,3,0.4,3,738,1,1,738,1,0,1,0.4,0.607455238686514,0.607455238686514,750,1,0,congruent,0.1,4700.52793283436,808.133471009188
66,104,3,347,-0.5,0.5,0,2,NaN,0.6,1,705,0,1,NaN,0,0,0.8,0.4,0.384726039056219,NaN,750,0,1,neutral,0,7230.41534636253,1977.32924656424
66,104,3,348,-0.5,-0.5,-0.5,1,1,0.4,1,479,1,1,479,0,0,0.4,0.6,-1.14063150992701,-1.14063150992701,750,1,0,congruent,0,5323.51233191971,2839.55697618954
66,104,3,349,0.5,-0.5,0,2,NaN,0.4,2,341,1,1,341,0,0,0.2,NaN,-2.07204452656279,-2.07204452656279,750,0,0,neutral,0,1564.98122162723,1524.14497462279
66,104,3,350,0.5,0.5,-0.5,4,4,0.4,4,540,1,1,540,1,0,0.2,NaN,-0.728919959095255,-0.728919959095255,750,1,0,congruent,1,2268.90868752799,760.360711028804
66,104,3,351,0.5,-0.5,0.5,2,1,0.4,2,576,1,1,576,0,0,0.6,NaN,-0.485942650407661,-0.485942650407661,750,0,0,incongruent,0,4604.29650219529,1223.50630032462
66,104,3,352,-0.5,-0.5,0,1,NaN,0.4,1,736,1,1,736,1,0,0.4,0.4,0.593956499314981,0.593956499314981,750,0,0,neutral,0.1,2657.89269796607,3342.46465102412
66,104,3,353,-0.5,-0.5,-0.5,4,4,0.4,4,825,1,0,825,0,0,0.6,0.4,1.1946504013482,1.1946504013482,750,1,0,congruent,0,1610.27011703882,3833.89027817555
66,104,3,354,0.5,0.5,0.5,2,1,0.4,2,302,1,1,302,1,0,0.6,NaN,-2.33526994430769,-2.33526994430769,750,0,0,incongruent,1,1658.63815183428,3345.8486220004
66,104,3,355,-0.5,-0.5,0,3,NaN,0.6,3,621,1,1,621,1,0,1,0.4,-0.182221014548168,-0.182221014548168,750,0,0,neutral,0.1,3079.5156379904,2433.32356789179
66,104,3,356,0.5,-0.5,-0.5,4,4,0.6,4,461,1,1,461,0,0,0.8,NaN,-1.26212016427081,-1.26212016427081,750,1,0,congruent,0,4665.5708405239,2739.54470504077
66,104,3,357,-0.5,-0.5,0,2,NaN,0.6,2,591,1,1,591,1,0,0.8,0.6,-0.384702105121163,-0.384702105121163,750,0,0,neutral,0.1,4027.13962223307,1673.24393715048
66,104,3,359,-0.5,0.5,0,2,NaN,0.8,2,385,1,1,385,1,0,1.2,0.4,-1.77507226038906,-1.77507226038906,750,0,0,neutral,0.1,3346.4849694945,1556.83076206604
66,104,3,360,0.5,-0.5,0.5,3,2,0.8,3,506,1,1,506,1,0,1,NaN,-0.958398528411317,-0.958398528411317,750,0,0,incongruent,1,4583.73427433082,3981.19164782068
66,104,3,362,0.5,0.5,0.5,1,3,0.8,3,460,0,1,NaN,0,0,1.4,NaN,-1.26886953395658,NaN,750,1,0,incongruent,0,3879.55418903051,2062.5378413719
66,104,3,364,-0.5,-0.5,-0.5,1,1,0.8,1,777,1,0,777,0,0,1,0.8,0.870680656431408,0.870680656431408,750,1,0,congruent,0,4574.1013560223,6521.12997415514
66,104,3,365,0.5,-0.5,0.5,3,2,0.8,3,537,1,1,537,1,0,0.8,NaN,-0.749168068152555,-0.749168068152555,750,0,0,incongruent,1,6253.12968537821,1655.26548850138
66,104,3,366,0.5,0.5,0.5,2,1,0.8,2,708,1,1,708,1,0,0.8,NaN,0.404974148113519,0.404974148113519,750,0,0,incongruent,1,5336.22806361861,2434.6369948231
66,104,3,368,-0.5,0.5,0.5,4,1,0.6,4,801,1,0,801,0,0,1,0.6,1.0326655288898,1.0326655288898,750,0,0,incongruent,0,3455.59893260327,2818.2910031391
66,104,3,369,-0.5,0.5,-0.5,2,2,0.4,3,630,0,1,NaN,0,0,0.8,0.6,-0.121476687376269,NaN,750,0,1,congruent,0,1873.71731913267,1231.52998851754
66,104,3,370,-0.5,-0.5,0,3,NaN,0.2,3,569,1,1,569,0,0,0.8,0.8,-0.533188238208027,-0.533188238208027,750,0,0,neutral,0,2437.45162006317,2895.91527970132
66,104,3,371,-0.5,-0.5,0.5,4,2,0.2,4,559,1,1,559,0,0,0.4,0.6,-0.600681935065692,-0.600681935065692,750,0,0,incongruent,0,3667.9065522201,1766.59484983781
66,104,3,372,-0.5,0.5,0.5,1,4,0.2,1,882,1,0,882,0,0,0,0.4,1.57936447343689,1.57936447343689,750,0,0,incongruent,0,4337.62202574512,3014.65084154744
66,104,3,373,0.5,-0.5,0.5,4,2,0.2,4,614,1,1,614,0,0,0,NaN,-0.229466602348533,-0.229466602348533,750,0,0,incongruent,0,717.415315343422,1234.0913012191
66,104,3,374,-0.5,0.5,0.5,1,4,0.2,1,694,1,1,694,1,0,0,0.2,0.310482972512788,0.310482972512788,750,0,0,incongruent,0.1,4448.48726571166,5610.81477667157
66,104,3,375,0.5,0.5,0.5,2,1,0.2,2,317,1,1,317,1,0,0.2,NaN,-2.23402939902119,-2.23402939902119,750,0,0,incongruent,1,4723.59035109104,535.867314885763
66,104,3,376,0.5,0.5,0.5,4,2,0.4,4,990,1,0,990,0,0,0.6,NaN,2.30829639949968,2.30829639949968,750,0,0,incongruent,0,3564.31980710373,6761.69383736705
66,104,3,377,-0.5,0.5,0.5,2,3,0.4,2,758,1,0,758,0,0,0.6,0.4,0.742442632401844,0.742442632401844,750,0,0,incongruent,0,3329.12787319409,1103.95306471746
66,104,3,378,0.5,-0.5,0,4,NaN,0.4,4,479,1,1,479,0,0,0.6,NaN,-1.14063150992701,-1.14063150992701,750,0,0,neutral,0,1427.10841556981,456.245656110298
66,104,3,379,-0.5,-0.5,0.5,1,3,0.4,1,955,1,0,955,0,0,0.6,0.4,2.07206846049785,2.07206846049785,750,0,0,incongruent,0,1593.26878173153,3959.02686056992
66,104,3,380,0.5,-0.5,0.5,3,1,0.4,3,607,1,1,607,1,0,0.4,NaN,-0.276712190148899,-0.276712190148899,750,0,0,incongruent,1,6449.40841872128,1928.10948842343
66,104,3,381,-0.5,-0.5,-0.5,4,4,0.4,4,632,1,1,632,1,0,0.4,0.2,-0.107977948004736,-0.107977948004736,750,1,0,congruent,0.1,11866.6363484231,4423.84041195426
66,104,3,382,-0.5,0.5,0.5,1,2,0.4,1,532,1,1,532,1,0,0.6,0.2,-0.782914916581387,-0.782914916581387,750,0,0,incongruent,0.1,3739.7799399536,4002.35747189941
66,104,3,383,0.5,-0.5,0.5,3,4,0.6,4,496,0,1,NaN,0,0,0.8,NaN,-1.02589222526898,NaN,750,1,0,incongruent,0,2935.9324033474,4809.59141607275
66,104,3,384,0.5,0.5,0.5,2,1,0.6,4,835,0,0,NaN,0,0,0.8,NaN,1.26214409820587,NaN,750,0,1,incongruent,0,8669.68313710786,2040.51282730295
66,104,3,385,0.5,-0.5,0,4,NaN,0.4,4,552,1,1,552,0,0,0.8,NaN,-0.647927522866057,-0.647927522866057,750,0,0,neutral,0,3792.42364181157,4502.96463667075
66,104,3,386,0.5,-0.5,-0.5,2,2,0.4,2,399,1,1,399,1,0,0.4,NaN,-1.68058108478833,-1.68058108478833,750,1,0,congruent,1,5813.25471429358,1974.29605825569
66,104,3,387,0.5,-0.5,0.5,1,4,0.4,1,915,1,0,915,0,0,0.6,NaN,1.80209367306719,1.80209367306719,750,0,0,incongruent,0,17961.0694513127,2662.31432454586
66,104,3,388,-0.5,-0.5,0,3,NaN,0.4,3,494,1,1,494,1,0,0.4,0.2,-1.03939096464052,-1.03939096464052,750,0,0,neutral,0.1,7932.4666902894,4722.2545851588
66,104,3,389,-0.5,0.5,-0.5,1,1,0.4,3,950,0,0,NaN,0,0,0.6,0.4,2.03832161206902,NaN,750,0,1,congruent,0,10743.4712417255,750.732446502893
66,104,3,390,0.5,0.5,-0.5,4,4,0.2,4,492,1,1,492,1,0,0.6,NaN,-1.05288970401205,-1.05288970401205,750,1,0,congruent,1,2046.30779743193,2519.9079191244
66,104,3,391,0.5,0.5,0,1,NaN,0.4,1,653,1,1,653,1,0,1,NaN,0.0337588153963606,0.0337588153963606,750,0,0,neutral,1,13286.1342969586,3127.26001887087
66,104,3,392,-0.5,-0.5,0.5,4,1,0.6,4,916,1,0,916,0,0,1,0.4,1.80884304275295,1.80884304275295,750,0,0,incongruent,0,1387.97065816918,3212.06744416064
66,104,3,393,-0.5,-0.5,0,3,NaN,0.6,3,516,1,1,516,1,0,1,0.4,-0.890904831553652,-0.890904831553652,750,0,0,neutral,0.1,1075.93198463626,2708.45898670738
66,104,3,394,-0.5,-0.5,-0.5,2,2,0.6,2,596,1,1,596,0,0,1,0.6,-0.350955256692331,-0.350955256692331,750,1,0,congruent,0,4081.77590204006,2630.79815403302
66,104,3,395,-0.5,0.5,-0.5,3,3,0.6,3,769,1,0,769,0,0,1,0.4,0.816685698945276,0.816685698945276,750,1,0,congruent,0,6826.98288174129,3492.84168292409
66,104,3,396,-0.5,-0.5,0,1,NaN,0.4,1,593,1,1,593,1,0,0.6,0.6,-0.37120336574963,-0.37120336574963,750,0,0,neutral,0.1,4730.78707968552,2735.71062270147
66,104,3,397,0.5,-0.5,0.5,4,2,0.4,4,544,1,1,544,0,0,0.4,NaN,-0.701922480352189,-0.701922480352189,750,0,0,incongruent,0,3634.84313174454,1750.27358107489
66,104,3,398,0.5,-0.5,-0.5,3,3,0.4,3,431,1,1,431,1,0,0.4,NaN,-1.46460125484381,-1.46460125484381,750,1,0,congruent,1,5575.8783688847,5700.64873811375
66,104,3,399,-0.5,0.5,0,4,NaN,0.4,4,669,1,1,669,1,0,0.6,0.4,0.141748730368625,0.141748730368625,750,0,0,neutral,0.1,3697.23152491805,5768.00605892812
66,104,3,400,0.5,0.5,-0.5,3,3,0.6,3,656,1,1,656,1,0,0.8,NaN,0.0540069244536602,0.0540069244536602,750,1,0,congruent,1,1672.85750142084,2123.28400909543
66,104,3,401,0.5,0.5,-0.5,4,4,0.8,4,568,1,1,568,1,0,1.2,NaN,-0.539937607893793,-0.539937607893793,750,1,0,congruent,1,14339.3162530107,1260.80445264106
66,104,3,402,-0.5,0.5,-0.5,3,3,0.8,3,591,1,1,591,1,0,1.4,0.4,-0.384702105121163,-0.384702105121163,750,1,0,congruent,0.1,5391.33185797781,1044.41671805001
66,104,3,403,0.5,-0.5,0.5,2,1,0.8,3,794,0,0,NaN,0,0,1.6,NaN,0.985419941089439,NaN,750,0,1,incongruent,0,3300.3477590537,2001.79625101012
66,104,3,404,0.5,0.5,0.5,4,3,0.8,4,690,1,1,690,1,0,1.2,NaN,0.283485493769722,0.283485493769722,750,0,0,incongruent,1,1116.46234353222,2724.17716954659
66,104,3,405,0.5,-0.5,0,3,NaN,1,3,492,1,1,492,1,0,1.4,NaN,-1.05288970401205,-1.05288970401205,750,0,0,neutral,1,2720.64835921052,1645.7844096671
66,104,3,406,0.5,-0.5,-0.5,4,4,1,4,576,1,1,576,1,0,1.4,NaN,-0.485942650407661,-0.485942650407661,750,1,0,congruent,1,1038.83086048522,4438.46171520258
66,104,3,407,0.5,-0.5,-0.5,2,2,1,2,527,1,1,527,1,0,1.4,NaN,-0.81666176501022,-0.81666176501022,750,1,0,congruent,1,2245.03955156396,6486.4735680678
66,104,3,408,0.5,0.5,-0.5,4,4,1,4,600,1,1,600,1,0,1.6,NaN,-0.323957777949265,-0.323957777949265,750,1,0,congruent,1,4322.50985021395,472.030061378125
66,104,3,409,-0.5,0.5,0,3,NaN,1,3,593,1,1,593,1,0,2,0.6,-0.37120336574963,-0.37120336574963,750,0,0,neutral,0.1,3820.5482383289,1968.92582355297
66,104,3,410,-0.5,-0.5,0.5,4,2,1,4,570,1,1,570,1,0,1.8,0.6,-0.52643886852226,-0.52643886852226,750,0,0,incongruent,0.1,1942.28054073081,5617.52433047498
66,104,3,411,-0.5,0.5,0.5,2,4,1,2,651,1,1,651,1,0,1.6,0.6,0.0202600760248276,0.0202600760248276,750,0,0,incongruent,0.1,3482.32199535871,3028.45315414001
66,104,3,412,-0.5,-0.5,-0.5,3,3,1,3,588,1,1,588,1,0,1.4,0.6,-0.404950214178463,-0.404950214178463,750,1,0,congruent,0.1,853.162983503253,3142.13662886804
66,104,3,413,-0.5,-0.5,0.5,4,2,1,4,691,1,1,691,1,0,1.2,0.8,0.290234863455488,0.290234863455488,750,0,0,incongruent,0.1,3633.10408244684,1973.82600383158
66,104,3,414,0.5,0.5,-0.5,1,1,1,1,544,1,1,544,1,0,1,NaN,-0.701922480352189,-0.701922480352189,750,1,0,congruent,1,2889.22708566146,1128.31736885034
66,104,3,416,0.5,-0.5,-0.5,3,3,0.8,3,616,1,1,616,0,0,1,NaN,-0.215967862977,-0.215967862977,750,1,0,congruent,0,2328.79798014655,1459.55049940419
66,104,3,417,-0.5,-0.5,-0.5,2,2,0.8,2,552,1,1,552,1,0,0.8,0.8,-0.647927522866057,-0.647927522866057,750,1,0,congruent,0.1,1503.60082647806,3825.58028750659
66,104,3,418,0.5,-0.5,-0.5,3,3,0.8,3,388,1,1,388,0,0,0.8,NaN,-1.75482415133177,-1.75482415133177,750,1,0,congruent,0,4883.87152597403,2781.9607508013
66,104,3,419,0.5,0.5,0.5,4,2,0.8,1,600,0,1,NaN,0,0,0.6,NaN,-0.323957777949265,NaN,750,0,1,incongruent,0,3189.64277869777,3715.54084586542
66,104,3,420,-0.5,0.5,0.5,1,4,0.6,1,875,1,0,875,0,0,0.2,0.8,1.53211888563653,1.53211888563653,750,0,0,incongruent,0,2092.63946350583,3336.79257523153
66,104,3,421,-0.5,-0.5,0,3,NaN,0.4,3,792,1,0,792,1,0,0.2,1,0.971921201717906,0.971921201717906,750,0,0,neutral,0.1,2793.58461100217,4957.32946377346
66,104,3,422,0.5,-0.5,-0.5,1,1,0.4,1,568,1,1,568,0,0,0.4,NaN,-0.539937607893793,-0.539937607893793,750,1,0,congruent,0,8011.81821436599,2216.23540978428
66,104,3,423,-0.5,-0.5,-0.5,2,2,0.4,2,535,1,1,535,0,0,0.2,1,-0.762666807524088,-0.762666807524088,750,1,0,congruent,0,12634.6218641532,6266.05840844645
66,104,3,424,-0.5,0.5,0,1,NaN,0.4,1,775,1,0,775,0,0,0.2,0.6,0.857181917059875,0.857181917059875,750,0,0,neutral,0,2008.64688821571,4552.62678593996
66,104,3,425,-0.5,-0.5,0.5,3,1,0.2,3,622,1,1,622,0,0,0.2,0.8,-0.175471644862401,-0.175471644862401,750,0,0,incongruent,0,4140.94043746538,9877.03777147908
66,104,3,426,0.5,0.5,-0.5,2,2,0.2,2,298,1,1,298,1,0,0.2,NaN,-2.36226742305075,-2.36226742305075,750,1,0,congruent,1,1342.67361507579,1318.59872342167
66,104,3,427,0.5,-0.5,0.5,1,3,0.2,1,785,1,0,785,0,0,0.4,NaN,0.92467561391754,0.92467561391754,750,0,0,incongruent,0,1870.95741774394,5663.13359560504
66,104,3,428,-0.5,0.5,0.5,3,2,0.2,3,608,1,1,608,1,0,0.4,0.4,-0.269962820463132,-0.269962820463132,750,0,0,incongruent,0.1,3878.79388815832,2768.89606487094
66,104,3,429,-0.5,0.5,0,4,NaN,0.4,4,758,1,0,758,0,0,0.6,0.4,0.742442632401844,0.742442632401844,750,0,0,neutral,0,1832.82494733068,2842.14062232184
66,104,3,430,-0.5,-0.5,0.5,3,1,0.4,3,721,1,1,721,1,0,0.6,0.6,0.492715954028484,0.492715954028484,750,0,0,incongruent,0.1,1165.70291240484,2121.2510643665
66,104,3,431,-0.5,0.5,0.5,1,2,0.4,1,666,1,1,666,1,0,0.8,0.2,0.121500621311325,0.121500621311325,750,0,0,incongruent,0.1,6124.89129270959,1648.77032889064
66,104,3,432,-0.5,-0.5,-0.5,4,4,0.6,4,514,1,1,514,1,0,0.6,0.6,-0.904403570925185,-0.904403570925185,750,1,0,congruent,0.1,2480.94975011424,7229.30123766015
66,104,3,433,0.5,0.5,0.5,1,2,0.6,1,524,1,1,524,1,0,0.8,NaN,-0.83690987406752,-0.83690987406752,750,0,0,incongruent,1,922.611495634133,2356.64133529003
66,104,3,434,-0.5,-0.5,0.5,2,3,0.8,2,710,1,1,710,1,0,1,0.6,0.418472887485052,0.418472887485052,750,0,0,incongruent,0.1,5944.96965045861,2009.87455644429
66,104,3,435,0.5,-0.5,0.5,3,1,0.8,3,653,1,1,653,1,0,1.2,NaN,0.0337588153963606,0.0337588153963606,750,0,0,incongruent,1,4122.78850771675,7019.80000180748
66,104,3,436,0.5,-0.5,0.5,4,3,0.8,4,635,1,1,635,1,0,1.4,NaN,-0.0877298389474366,-0.0877298389474366,750,0,0,incongruent,1,4193.53137769305,2300.73499277319
66,104,3,437,-0.5,0.5,0.5,3,4,0.8,3,554,1,1,554,1,0,1.6,0.4,-0.634428783494524,-0.634428783494524,750,0,0,incongruent,0.1,5500.64615387433,2258.94562314018
66,104,3,438,0.5,0.5,0,2,NaN,0.8,4,563,0,1,NaN,0,0,1.6,NaN,-0.573684456322626,NaN,750,0,1,neutral,0,9783.33411349779,4288.47220233826
66,104,3,439,-0.5,-0.5,0.5,1,2,0.6,1,853,1,0,853,0,0,1.2,0.6,1.38363275254966,1.38363275254966,750,0,0,incongruent,0,2380.14980924884,3802.75209158007
66,104,3,440,-0.5,0.5,0.5,4,3,0.6,4,556,1,1,556,1,0,1,0.6,-0.620930044122991,-0.620930044122991,750,0,0,incongruent,0.1,4412.35125231149,5847.44120682825
66,104,3,441,-0.5,0.5,0.5,3,2,0.8,3,560,1,1,560,1,0,0.8,0.8,-0.593932565379925,-0.593932565379925,750,0,0,incongruent,0.1,1414.78319734447,2278.75236615049
66,104,3,443,0.5,-0.5,-0.5,1,1,0.8,1,813,1,0,813,1,0,0.6,NaN,1.113657965119,1.113657965119,750,1,0,congruent,1,1242.8193717668,3558.57884545265
66,104,3,444,-0.5,-0.5,0,2,NaN,0.8,2,721,1,1,721,1,0,1,0.6,0.492715954028484,0.492715954028484,750,0,0,neutral,0.1,1687.91347429363,1334.49967309892
66,104,3,445,0.5,-0.5,0.5,4,1,0.8,4,640,1,1,640,1,0,1.2,NaN,-0.053982990518604,-0.053982990518604,750,0,0,incongruent,1,6670.75739224417,2600.50187796913
66,104,3,446,0.5,-0.5,-0.5,3,3,0.8,3,566,1,1,566,1,0,1.4,NaN,-0.553436347265326,-0.553436347265326,750,1,0,congruent,1,1112.13131976559,1367.2768255704
66,104,3,447,0.5,-0.5,0,2,NaN,0.8,2,781,1,0,781,1,0,1.6,NaN,0.897678135174474,0.897678135174474,750,0,0,neutral,1,6605.61718206977,4872.50225006888
66,104,3,448,0.5,-0.5,-0.5,1,1,0.8,1,473,1,1,473,1,0,1.8,NaN,-1.18112772804161,-1.18112772804161,750,1,0,congruent,1,4227.73009873037,1997.07127827818
66,104,3,449,0.5,0.5,-0.5,2,2,0.8,2,614,1,1,614,1,0,1.8,NaN,-0.229466602348533,-0.229466602348533,750,1,0,congruent,1,9437.57387484067,2373.67954311553
66,104,3,450,0.5,0.5,-0.5,4,4,0.8,4,469,1,1,469,1,0,2,NaN,-1.20812520678468,-1.20812520678468,750,1,0,congruent,1,1689.41718693517,1915.05027049222
66,104,4,451,-0.5,-0.5,-0.5,2,2,1,2,920,1,0,920,1,0,2,0.8,1.83584052149602,1.83584052149602,750,1,0,congruent,0.1,15034.8467147186,6224.33115401274
66,104,4,452,-0.5,0.5,0.5,4,1,1,4,555,1,1,555,1,0,1.8,1,-0.627679413808758,-0.627679413808758,750,0,0,incongruent,0.1,3363.67414385952,1126.27089162085
66,104,4,453,-0.5,-0.5,0,3,NaN,1,3,687,1,1,687,1,0,1.6,0.8,0.263237384712422,0.263237384712422,750,0,0,neutral,0.1,2856.78912824963,1353.54171335044
66,104,4,454,-0.5,0.5,-0.5,4,4,1,4,507,1,1,507,1,0,1.4,1,-0.95164915872555,-0.95164915872555,750,1,0,congruent,0.1,1308.3528520987,2162.20898010224
66,104,4,455,0.5,0.5,0,1,NaN,1,1,500,1,1,500,1,0,1.2,NaN,-0.998894746525916,-0.998894746525916,750,0,0,neutral,1,4297.52583964656,3620.00840649073
66,104,4,456,0.5,0.5,0.5,3,1,1,3,695,1,1,695,1,0,1.2,NaN,0.317232342198554,0.317232342198554,750,0,0,incongruent,1,4481.61441079771,3274.91467962769
66,104,4,457,0.5,-0.5,-0.5,2,2,1,2,347,1,1,347,1,0,1.4,NaN,-2.03154830844819,-2.03154830844819,750,1,0,congruent,1,2298.99629784353,2235.80847725553
66,104,4,459,-0.5,-0.5,-0.5,2,2,1,2,580,1,1,580,1,0,1.8,0.8,-0.458945171664595,-0.458945171664595,750,1,0,congruent,0.1,1751.39624646858,21112.8649999771
66,104,4,460,0.5,0.5,-0.5,4,4,1,4,547,1,1,547,1,0,1.8,NaN,-0.68167437129489,-0.68167437129489,750,1,0,congruent,1,4325.64669514045,3885.90626926099
66,104,4,461,-0.5,0.5,0,2,NaN,1,2,698,1,1,698,1,0,1.8,1,0.337480451255854,0.337480451255854,750,0,0,neutral,0.1,4231.25017701172,2672.19838790845
66,104,4,462,-0.5,0.5,-0.5,4,4,1,4,549,1,1,549,1,0,1.6,1,-0.668175631923357,-0.668175631923357,750,1,0,congruent,0.1,3858.14922541575,4814.125520253
66,104,4,463,-0.5,-0.5,-0.5,3,3,1,3,534,1,1,534,1,0,1.4,0.8,-0.769416177209854,-0.769416177209854,750,1,0,congruent,0.1,3025.67182446917,3185.9089299965
66,104,4,464,0.5,-0.5,-0.5,4,4,1,4,517,1,1,517,1,0,1.2,NaN,-0.884155461867885,-0.884155461867885,750,1,0,congruent,1,6764.94684834472,2819.94476850911
66,104,4,465,-0.5,0.5,0.5,1,2,1,1,901,1,0,901,0,0,1.4,1,1.70760249746646,1.70760249746646,750,0,0,incongruent,0,5865.41312840873,2346.68882327124
66,104,4,466,0.5,-0.5,-0.5,3,3,0.8,3,419,1,1,419,1,0,1,NaN,-1.545593691073,-1.545593691073,750,1,0,congruent,1,930.365734304297,2358.70893042484
66,104,4,467,-0.5,0.5,0.5,2,4,0.8,2,702,1,1,702,1,0,1.2,0.8,0.36447792999892,0.36447792999892,750,0,0,incongruent,0.1,1359.32282985249,1013.1721146902
66,104,4,468,0.5,0.5,-0.5,1,1,0.8,1,386,1,1,386,1,0,1.2,NaN,-1.7683228907033,-1.7683228907033,750,1,0,congruent,1,2427.81614845945,2063.65687016158
66,104,4,469,0.5,0.5,0.5,3,2,0.8,3,580,1,1,580,1,0,1.4,NaN,-0.458945171664595,-0.458945171664595,750,0,0,incongruent,1,8785.96720453882,6552.27963784688
66,104,4,470,-0.5,-0.5,0.5,4,3,0.8,4,673,1,1,673,1,0,1.4,1,0.168746209111691,0.168746209111691,750,0,0,incongruent,0.1,8171.22110256507,9745.22786399628
66,104,4,471,-0.5,-0.5,0.5,2,4,0.8,2,557,1,1,557,1,0,1.6,1,-0.614180674437225,-0.614180674437225,750,0,0,incongruent,0.1,1322.51928172088,5803.91807568672
66,104,4,472,-0.5,-0.5,-0.5,3,3,0.8,3,650,1,1,650,1,0,1.4,1,0.0135107063390611,0.0135107063390611,750,1,0,congruent,0.1,718.043640812542,784.501424868627
66,104,4,473,-0.5,0.5,-0.5,4,4,0.8,4,587,1,1,587,1,0,1.4,0.8,-0.411699583864229,-0.411699583864229,750,1,0,congruent,0.1,3215.7972969741,7521.9830246184
66,104,4,474,-0.5,-0.5,-0.5,1,1,0.8,1,885,1,0,885,0,0,1.2,1,1.59961258249419,1.59961258249419,750,1,0,congruent,0,8391.6739231217,1946.64157301033
66,104,4,475,0.5,0.5,-0.5,3,3,0.8,3,492,1,1,492,1,0,0.8,NaN,-1.05288970401205,-1.05288970401205,750,1,0,congruent,1,647.700411218611,1796.56365377199
66,104,4,476,0.5,0.5,0,1,NaN,1,1,662,1,1,662,1,0,1,NaN,0.0945031425682593,0.0945031425682593,750,0,0,neutral,1,5387.56728280908,2116.00884377258
66,104,4,477,-0.5,-0.5,-0.5,2,2,1,2,673,1,1,673,1,0,1.2,0.8,0.168746209111691,0.168746209111691,750,1,0,congruent,0.1,4926.95218955612,5090.43509289061
66,104,4,479,0.5,-0.5,0.5,1,2,1,1,810,1,0,810,1,0,1.4,NaN,1.0934098560617,1.0934098560617,750,0,0,incongruent,1,2449.95092760874,3706.32139026037
66,104,4,480,-0.5,-0.5,-0.5,4,4,1,4,510,1,1,510,1,0,1.8,0.8,-0.931401049668251,-0.931401049668251,750,1,0,congruent,0.1,4789.79557086305,5218.01934152934
66,104,4,481,0.5,0.5,-0.5,2,2,1,2,285,1,1,285,1,0,1.6,NaN,-2.45000922896572,-2.45000922896572,750,1,0,congruent,1,2581.82653478302,2956.89572451456
66,104,4,482,0.5,0.5,0.5,4,3,1,4,654,1,1,654,1,0,1.6,NaN,0.0405081850821272,0.0405081850821272,750,0,0,incongruent,1,3911.89130122542,2230.68815179472
66,104,4,483,0.5,-0.5,-0.5,1,1,1,1,590,1,1,590,1,0,1.8,NaN,-0.39145147480693,-0.39145147480693,750,1,0,congruent,1,2011.00949946842,11501.7751813244
66,104,4,484,-0.5,0.5,-0.5,4,4,1,4,546,1,1,546,1,0,1.8,0.8,-0.688423740980656,-0.688423740980656,750,1,0,congruent,0.1,2923.82218796023,5437.56965810736
66,104,4,485,-0.5,-0.5,0,3,NaN,1,3,785,1,0,785,1,0,1.6,0.8,0.92467561391754,0.92467561391754,750,0,0,neutral,0.1,2062.46193184711,2879.9545785201
66,104,4,486,0.5,-0.5,0.5,1,3,1,1,727,1,1,727,1,0,1.6,NaN,0.533212172143083,0.533212172143083,750,0,0,incongruent,1,1786.2999412629,4314.28450660901
66,104,4,488,-0.5,0.5,-0.5,3,3,0.8,3,487,1,1,487,1,0,1.2,0.6,-1.08663655244088,-1.08663655244088,750,1,0,congruent,0.1,4982.3312124748,3480.35582295862
66,104,4,489,-0.5,-0.5,-0.5,1,1,0.8,1,566,1,1,566,1,0,1,0.8,-0.553436347265326,-0.553436347265326,750,1,0,congruent,0.1,1564.9101884985,2032.3677300909
66,104,4,490,-0.5,0.5,-0.5,3,3,0.8,3,452,1,1,452,1,0,1,0.8,-1.32286449144271,-1.32286449144271,750,1,0,congruent,0.1,2054.84269406662,3281.98895170117
66,104,4,491,0.5,-0.5,-0.5,1,1,0.8,1,514,1,1,514,0,0,1,NaN,-0.904403570925185,-0.904403570925185,750,1,0,congruent,0,6484.85906023763,3594.33358979462
66,104,4,492,-0.5,-0.5,0.5,2,4,0.8,2,627,1,1,627,1,0,0.6,0.8,-0.141724796433569,-0.141724796433569,750,0,0,incongruent,0.1,4450.71412314664,4006.0048272558
66,104,4,493,0.5,0.5,0.5,4,3,0.8,4,672,1,1,672,1,0,0.8,NaN,0.161996839425924,0.161996839425924,750,0,0,incongruent,1,5293.12990707289,2760.86679121676
66,104,4,494,0.5,0.5,0,2,NaN,0.8,3,745,0,1,NaN,0,0,1,NaN,0.65470082648688,NaN,750,0,1,neutral,0,13400.123468666,6025.5299041927
66,104,4,495,-0.5,0.5,-0.5,1,1,0.6,1,833,1,0,833,0,0,0.8,0.8,1.24864535883433,1.24864535883433,750,1,0,congruent,0,2088.76149554345,3199.02864203473
66,104,4,496,-0.5,0.5,-0.5,4,4,0.6,4,574,1,1,574,1,0,0.6,0.6,-0.499441389779194,-0.499441389779194,750,1,0,congruent,0.1,8152.02724491188,4424.78321819472
66,104,4,497,-0.5,-0.5,0,3,NaN,0.6,3,728,1,1,728,1,0,0.8,1,0.539961541828849,0.539961541828849,750,0,0,neutral,0.1,8062.77182753134,1426.12422348574
66,104,4,498,0.5,0.5,-0.5,2,2,0.6,2,490,1,1,490,1,0,0.8,NaN,-1.06638844338358,-1.06638844338358,750,1,0,congruent,1,3039.73129432727,5086.13268764533
66,104,4,499,-0.5,-0.5,-0.5,4,4,0.6,4,529,1,1,529,1,0,0.8,1,-0.803163025638687,-0.803163025638687,750,1,0,congruent,0.1,4133.22608928337,1807.06455056835
66,104,4,500,0.5,0.5,0,2,NaN,0.6,2,589,1,1,589,1,0,1,NaN,-0.398200844492696,-0.398200844492696,750,0,0,neutral,1,3333.13003232035,1698.38905844031
66,104,4,501,0.5,-0.5,-0.5,4,4,0.6,4,521,1,1,521,1,0,1.4,NaN,-0.857157983124819,-0.857157983124819,750,1,0,congruent,1,9333.22639089562,4093.41774150347
66,104,4,502,0.5,0.5,-0.5,2,2,0.6,2,431,1,1,431,1,0,1.6,NaN,-1.46460125484381,-1.46460125484381,750,1,0,congruent,1,5013.34279099604,1873.53789242305
66,104,4,503,-0.5,-0.5,-0.5,1,1,0.8,3,699,0,1,NaN,1,0,1.8,1,0.34422982094162,NaN,750,0,1,congruent,0.1,7286.07450593244,1251.04341303864
66,104,4,504,0.5,0.5,0,2,NaN,0.8,2,490,1,1,490,1,0,1.6,NaN,-1.06638844338358,-1.06638844338358,750,0,0,neutral,1,8093.29555022567,3834.01959331212
66,104,4,505,0.5,-0.5,0.5,1,3,1,2,677,0,1,NaN,1,0,1.8,NaN,0.195743687854757,NaN,750,0,1,incongruent,1,10540.12081623,2384.74068230548
66,104,4,507,-0.5,0.5,-0.5,1,1,1,1,614,1,1,614,1,0,1.6,0.6,-0.229466602348533,-0.229466602348533,750,1,0,congruent,0.1,4781.23105108965,2459.25150341231
66,104,4,508,0.5,0.5,0.5,4,2,1,4,693,1,1,693,1,0,1.4,NaN,0.303733602827021,0.303733602827021,750,0,0,incongruent,1,882.693459590581,4903.30762236568
66,104,4,509,0.5,0.5,0,1,NaN,1,1,591,1,1,591,1,0,1.6,NaN,-0.384702105121163,-0.384702105121163,750,0,0,neutral,1,1867.76211709359,2102.18200982041
66,104,4,510,-0.5,0.5,-0.5,3,3,1,3,578,1,1,578,1,0,1.6,0.8,-0.472443911036128,-0.472443911036128,750,1,0,congruent,0.1,12288.4873858917,813.726755135651
66,104,4,511,0.5,0.5,-0.5,4,4,1,4,823,1,0,823,0,0,1.4,NaN,1.18115166197667,1.18115166197667,750,1,0,congruent,0,4255.25928196319,4615.26390482403
66,104,4,512,-0.5,0.5,-0.5,1,1,0.8,1,616,1,1,616,1,0,1.2,0.8,-0.215967862977,-0.215967862977,750,1,0,congruent,0.1,6270.77089211407,1750.1729937539
66,104,4,513,-0.5,0.5,0.5,3,2,0.8,3,717,1,1,717,1,0,1.2,0.8,0.465718475285417,0.465718475285417,750,0,0,incongruent,0.1,2763.33781508976,2406.12863616124
66,104,4,514,-0.5,-0.5,0,1,NaN,0.8,1,872,1,0,872,1,0,1,1,1.51187077657923,1.51187077657923,750,0,0,neutral,0.1,5477.50335836208,3143.7232534075
66,104,4,515,-0.5,-0.5,-0.5,3,3,0.8,3,682,1,1,682,1,0,0.8,1,0.22949053628359,0.22949053628359,750,1,0,congruent,0.1,3241.83582028983,1199.12404942439
66,104,4,516,0.5,0.5,0,1,NaN,0.8,1,554,1,1,554,1,0,0.8,NaN,-0.634428783494524,-0.634428783494524,750,0,0,neutral,1,3919.18106272849,1686.88668385452
66,104,4,517,0.5,-0.5,-0.5,3,3,0.8,3,576,1,1,576,1,0,1.2,NaN,-0.485942650407661,-0.485942650407661,750,1,0,congruent,1,2796.85204652149,1472.32400022859
66,104,4,518,0.5,0.5,0,4,NaN,0.8,4,519,1,1,519,1,0,1.4,NaN,-0.870656722496352,-0.870656722496352,750,0,0,neutral,1,1599.50819436275,1150.48499660059
66,104,4,519,-0.5,-0.5,-0.5,2,2,0.8,2,633,1,1,633,1,0,1.6,1,-0.10122857831897,-0.10122857831897,750,1,0,congruent,0.1,1517.51306416373,10364.9451334191
66,104,4,520,-0.5,-0.5,-0.5,4,4,0.8,4,510,1,1,510,1,0,1.6,1,-0.931401049668251,-0.931401049668251,750,1,0,congruent,0.1,6475.13396530094,4904.69334651039
66,104,4,521,-0.5,0.5,-0.5,1,1,0.8,1,970,1,0,970,0,0,1.6,1,2.17330900578435,2.17330900578435,750,1,0,congruent,0,2228.36749502489,1066.75563307747
66,104,4,522,-0.5,-0.5,0.5,4,3,0.8,4,894,1,0,894,1,0,1.2,1,1.66035690966609,1.66035690966609,750,0,0,incongruent,0.1,4750.21559118708,1288.88551705391
66,104,4,523,0.5,-0.5,0,1,NaN,0.8,1,609,1,1,609,1,0,1,NaN,-0.263213450777366,-0.263213450777366,750,0,0,neutral,1,6829.29887991445,1677.76671200416
66,104,4,524,0.5,0.5,-0.5,4,4,0.8,4,494,1,1,494,1,0,1,NaN,-1.03939096464052,-1.03939096464052,750,1,0,congruent,1,2844.3906157173,2093.0314038855
66,104,4,525,-0.5,-0.5,0,1,NaN,0.8,1,502,1,1,502,1,0,1.2,1,-0.985396007154383,-0.985396007154383,750,0,0,neutral,0.1,3082.68721062522,5662.49367151006
66,104,4,526,0.5,0.5,-0.5,4,4,0.8,4,565,1,1,565,1,0,1.2,NaN,-0.560185716951093,-0.560185716951093,750,1,0,congruent,1,2318.64005504193,3293.93312765878
66,104,4,527,-0.5,0.5,0.5,3,1,0.8,3,382,1,1,382,1,0,1.6,0.8,-1.79532036944636,-1.79532036944636,750,0,0,incongruent,0.1,2920.15808342648,2094.6210117713
66,104,4,528,0.5,0.5,0,4,NaN,0.8,4,541,1,1,541,1,0,1.6,NaN,-0.722170589409489,-0.722170589409489,750,0,0,neutral,1,1071.87861996243,1382.18632239389
66,104,4,529,0.5,0.5,-0.5,3,3,0.8,3,433,1,1,433,1,0,1.6,NaN,-1.45110251547227,-1.45110251547227,750,1,0,congruent,1,3905.46060332988,6040.31918269455
66,104,4,530,-0.5,0.5,0,4,NaN,1,4,669,1,1,669,1,0,1.6,0.8,0.141748730368625,0.141748730368625,750,0,0,neutral,0.1,2946.6739809163,3036.28698897755
66,104,4,531,0.5,-0.5,-0.5,2,2,1,2,505,1,1,505,1,0,1.6,NaN,-0.965147898097083,-0.965147898097083,750,1,0,congruent,1,3986.39421910332,2430.26516711854
66,104,4,532,-0.5,-0.5,0,1,NaN,1,1,357,1,1,357,1,0,1.6,1,-1.96405461159053,-1.96405461159053,750,0,0,neutral,0.1,4219.67957526343,1173.14603778309
66,104,4,533,-0.5,-0.5,-0.5,2,2,1,2,547,1,1,547,1,0,1.6,1,-0.68167437129489,-0.68167437129489,750,1,0,congruent,0.1,1799.39257541713,2448.74991922944
66,104,4,534,-0.5,-0.5,0,4,NaN,1,4,501,1,1,501,1,0,1.4,1,-0.992145376840149,-0.992145376840149,750,0,0,neutral,0.1,6393.67483184505,8269.14010161458
66,104,4,535,-0.5,0.5,-0.5,3,3,1,3,628,1,1,628,1,0,1.2,0.8,-0.134975426747802,-0.134975426747802,750,1,0,congruent,0.1,6062.17349347985,2761.12521383996
66,104,4,536,0.5,0.5,0.5,4,1,1,4,589,1,1,589,1,0,1.2,NaN,-0.398200844492696,-0.398200844492696,750,0,0,incongruent,1,2373.95671537561,1254.92064454749
66,104,4,537,-0.5,-0.5,-0.5,2,2,1,2,538,1,1,538,1,0,1.2,1,-0.742418698466788,-0.742418698466788,750,1,0,congruent,0.1,4229.28254046569,1560.97455823073
66,104,4,538,0.5,0.5,-0.5,1,1,1,3,664,0,1,NaN,0,0,1.2,NaN,0.108001881939792,NaN,750,0,1,congruent,0,7826.04803559123,1650.36004152501
66,104,4,539,0.5,0.5,-0.5,4,4,0.8,4,475,1,1,475,1,0,1,NaN,-1.16762898867008,-1.16762898867008,750,1,0,congruent,1,1464.14760537935,3131.04744676719
66,104,4,542,-0.5,0.5,-0.5,2,2,0.8,2,548,1,1,548,1,0,0.8,0.8,-0.674925001609123,-0.674925001609123,750,1,0,congruent,0.1,5558.32982433428,2935.19602214555
66,104,4,544,0.5,0.5,-0.5,2,2,0.6,2,625,1,1,625,1,0,0.8,NaN,-0.155223535805102,-0.155223535805102,750,1,0,congruent,1,3276.90423385037,1582.03254611134
66,104,4,545,0.5,0.5,-0.5,3,3,0.6,3,589,1,1,589,1,0,0.8,NaN,-0.398200844492696,-0.398200844492696,750,1,0,congruent,1,2346.73482729308,3626.21638862082
66,104,4,546,0.5,-0.5,-0.5,2,2,0.8,2,493,1,1,493,1,0,1.2,NaN,-1.04614033432628,-1.04614033432628,750,1,0,congruent,1,4104.33522763597,4634.31910822979
66,104,4,547,0.5,-0.5,0.5,4,1,0.8,4,635,1,1,635,1,0,1.4,NaN,-0.0877298389474366,-0.0877298389474366,750,0,0,incongruent,1,3345.07956248446,4918.24277524874
66,104,4,548,0.5,-0.5,0.5,2,4,0.8,2,710,1,1,710,1,0,1.6,NaN,0.418472887485052,0.418472887485052,750,0,0,incongruent,1,2848.94604145464,989.001679940373
66,104,4,550,-0.5,0.5,0,4,NaN,0.8,4,680,1,1,680,1,0,1.8,0.8,0.215991796912056,0.215991796912056,750,0,0,neutral,0.1,4295.28323163067,252.207140182387
66,104,4,551,-0.5,-0.5,0.5,3,1,0.8,3,862,1,0,862,1,0,1.6,1,1.44437707972156,1.44437707972156,750,0,0,incongruent,0.1,5838.08507288806,3691.31267216229
66,104,4,552,0.5,-0.5,0,2,NaN,0.8,2,629,1,1,629,0,0,1.4,NaN,-0.128226057062036,-0.128226057062036,750,0,0,neutral,0,1326.53643567839,2390.8006128961
66,104,4,553,0.5,0.5,0.5,4,1,0.8,4,608,1,1,608,1,0,1,NaN,-0.269962820463132,-0.269962820463132,750,0,0,incongruent,1,4195.74090723961,4185.41698657732
66,104,4,554,0.5,0.5,0,3,NaN,0.8,2,552,0,1,NaN,0,0,1,NaN,-0.647927522866057,NaN,750,0,1,neutral,0,11132.524663875,1099.46615859353
66,104,4,556,0.5,0.5,0,2,NaN,0.8,2,729,1,1,729,1,0,0.8,NaN,0.546710911514616,0.546710911514616,750,0,0,neutral,1,1959.22228384982,4300.76036141136
66,104,4,559,0.5,-0.5,-0.5,1,1,0.8,2,738,0,1,NaN,1,0,1,NaN,0.607455238686514,NaN,750,0,1,congruent,1,5957.40983184744,5931.99502355621
66,104,4,560,-0.5,0.5,0,2,NaN,0.8,2,580,1,1,580,1,0,1.4,1,-0.458945171664595,-0.458945171664595,750,0,0,neutral,0.1,6683.83725033671,5210.19100451937
66,104,4,561,0.5,0.5,-0.5,1,1,0.8,1,520,1,1,520,1,0,1.4,NaN,-0.863907352810586,-0.863907352810586,750,1,0,congruent,1,2393.65045403132,2641.51261311921
66,104,4,562,-0.5,-0.5,0,2,NaN,0.8,2,561,1,1,561,1,0,1.4,1,-0.587183195694159,-0.587183195694159,750,0,0,neutral,0.1,8678.28491984971,1570.42288435704
66,104,4,563,0.5,0.5,-0.5,1,1,0.8,1,503,1,1,503,1,0,1.4,NaN,-0.978646637468616,-0.978646637468616,750,1,0,congruent,1,11749.0663450641,1655.31721124426
66,104,4,564,0.5,0.5,-0.5,3,3,0.8,3,568,1,1,568,1,0,1.6,NaN,-0.539937607893793,-0.539937607893793,750,1,0,congruent,1,10114.7063923459,6370.38312727988
66,104,4,565,0.5,-0.5,0.5,2,1,1,1,734,0,1,NaN,1,0,1.6,NaN,0.580457759943448,NaN,750,1,0,incongruent,1,4938.92407792509,2366.48188764067
66,104,4,566,0.5,0.5,0,1,NaN,1,1,829,1,0,829,0,0,1.8,NaN,1.22164788009127,1.22164788009127,750,0,0,neutral,0,3070.71111749571,1577.17765233267
66,104,4,567,-0.5,0.5,0.5,2,4,0.8,4,689,0,1,NaN,0,0,1.4,1,0.276736124083955,NaN,750,1,0,incongruent,0,4361.90195241682,4239.19892490253
66,104,4,568,0.5,-0.5,0.5,1,2,0.6,4,641,0,1,NaN,0,0,1.2,NaN,-0.0472336208328375,NaN,750,0,1,incongruent,0,6860.36641282814,1265.17933350384
66,104,4,570,-0.5,0.5,0.5,1,4,0.6,2,894,0,0,NaN,0,0,0.8,0.8,1.66035690966609,NaN,750,0,1,incongruent,0,8774.73673297607,3466.93297194374
66,104,4,572,0.5,0.5,-0.5,1,1,0.2,1,557,1,1,557,1,0,0.4,NaN,-0.614180674437225,-0.614180674437225,750,1,0,congruent,1,2338.09339667205,3805.6107356271
66,104,4,574,0.5,0.5,-0.5,1,1,0.4,1,613,1,1,613,1,0,1.2,NaN,-0.2362159720343,-0.2362159720343,750,1,0,congruent,1,3384.05711988061,4045.99727581191
66,104,4,575,0.5,-0.5,0.5,2,4,0.6,2,564,1,1,564,0,0,1.2,NaN,-0.566935086636859,-0.566935086636859,750,0,0,incongruent,0,4265.53630517896,1057.42863380818
66,104,4,576,0.5,0.5,0,1,NaN,0.6,1,620,1,1,620,1,0,1.2,NaN,-0.188970384233934,-0.188970384233934,750,0,0,neutral,1,9691.26886846694,2303.752495142
66,104,4,577,0.5,0.5,-0.5,3,3,0.8,3,648,1,1,648,1,0,1.6,NaN,1.19669675280745e-05,1.19669675280745e-05,750,1,0,congruent,1,3251.57532130133,1681.85388224258
66,104,4,578,0.5,0.5,-0.5,1,1,1,1,900,1,0,900,0,0,1.6,NaN,1.70085312778069,1.70085312778069,750,1,0,congruent,0,3851.53870630619,2640.72323056756
66,104,4,579,-0.5,-0.5,-0.5,3,3,0.8,3,525,1,1,525,0,0,1.2,1,-0.830160504381753,-0.830160504381753,750,1,0,congruent,0,1479.09364255534,1717.74195418635
66,104,4,580,-0.5,0.5,-0.5,1,1,0.8,1,527,1,1,527,1,0,0.8,0.4,-0.81666176501022,-0.81666176501022,750,1,0,congruent,0.1,2904.14157135149,3646.13226431122
66,104,4,581,0.5,0.5,0.5,2,3,0.8,4,681,0,1,NaN,0,0,1,NaN,0.222741166597823,NaN,750,0,1,incongruent,0,2490.59685926451,4219.06964918134
66,104,4,582,-0.5,-0.5,0.5,3,4,0.6,3,907,1,0,907,0,0,0.6,0.8,1.74809871558106,1.74809871558106,750,0,0,incongruent,0,2230.0957951938,9628.49867320566
66,104,4,583,-0.5,0.5,-0.5,1,1,0.6,1,615,1,1,615,1,0,0.2,0.4,-0.222717232662767,-0.222717232662767,750,1,0,congruent,0.1,5057.58447378845,7398.63762846279
66,104,4,584,0.5,-0.5,0.5,4,3,0.6,4,634,1,1,634,1,0,0.4,NaN,-0.0944792086332031,-0.0944792086332031,750,0,0,incongruent,1,2273.69717783968,1954.81334504771
66,104,4,585,-0.5,-0.5,0,1,NaN,0.6,1,615,1,1,615,0,0,0.8,0.6,-0.222717232662767,-0.222717232662767,750,0,0,neutral,0,3130.9263631879,1913.99775132451
66,104,4,586,0.5,0.5,0.5,2,1,0.6,2,708,1,1,708,1,0,0.6,NaN,0.404974148113519,0.404974148113519,750,0,0,incongruent,1,6300.0486091897,2334.79906388952
66,104,4,588,0.5,0.5,0,3,NaN,0.6,3,679,1,1,679,1,0,1.2,NaN,0.20924242722629,0.20924242722629,750,0,0,neutral,1,2272.73913856995,2586.35379161164
66,104,4,589,-0.5,0.5,0.5,4,3,0.8,4,731,1,1,731,1,0,1.4,0.4,0.560209650886149,0.560209650886149,750,0,0,incongruent,0.1,9200.79505107319,1917.9079783152
66,104,4,590,0.5,0.5,-0.5,2,2,0.8,3,539,0,1,NaN,0,0,1.2,NaN,-0.735669328781022,NaN,750,0,1,congruent,0,4142.33817347479,1929.12084845041
66,104,4,591,0.5,-0.5,-0.5,1,1,0.8,1,682,1,1,682,1,0,1.2,NaN,0.22949053628359,0.22949053628359,750,1,0,congruent,1,2070.93885499024,4458.2278025255
66,104,4,592,-0.5,-0.5,-0.5,2,2,0.8,2,510,1,1,510,1,0,1.2,0.4,-0.931401049668251,-0.931401049668251,750,1,0,congruent,0.1,1577.89871402518,3356.25505121208
66,104,4,593,-0.5,0.5,0.5,1,3,0.8,1,788,1,0,788,0,0,1.2,0.6,0.94492372297484,0.94492372297484,750,0,0,incongruent,0,3009.69883751512,4279.45572044255
66,104,4,594,0.5,0.5,0,3,NaN,0.6,3,778,1,0,778,0,0,0.8,NaN,0.877430026117175,0.877430026117175,750,0,0,neutral,0,2314.30023013094,2354.21118909846
66,104,4,595,-0.5,0.5,-0.5,1,1,0.4,1,527,1,1,527,1,0,0.6,0.6,-0.81666176501022,-0.81666176501022,750,1,0,congruent,0.1,9121.43501695169,6728.24869634708
66,104,4,596,-0.5,-0.5,0,3,NaN,0.4,3,560,1,1,560,0,0,0.8,0.4,-0.593932565379925,-0.593932565379925,750,0,0,neutral,0,3018.35112520043,7185.88646932067
66,104,4,597,0.5,-0.5,-0.5,4,4,0.4,4,478,1,1,478,1,0,0.4,NaN,-1.14738087961278,-1.14738087961278,750,1,0,congruent,1,4701.4849318299,13921.7630525606
66,104,4,598,0.5,0.5,-0.5,2,2,0.4,2,701,1,1,701,1,0,0.6,NaN,0.357728560313153,0.357728560313153,750,1,0,congruent,1,8233.69059243088,1707.45117416135
66,104,4,599,-0.5,0.5,0,4,NaN,0.4,4,504,1,1,504,1,0,1,0.8,-0.97189726778285,-0.97189726778285,750,0,0,neutral,0.1,3610.57897760355,2799.87805526894
66,104,4,600,-0.5,-0.5,-0.5,2,2,0.6,2,665,1,1,665,1,0,1.2,0.4,0.114751251625559,0.114751251625559,750,1,0,congruent,0.1,3490.1500807899,5349.22463870547
