subid,vers,block,trial,rewlvl,efflvl,congruency,targetresp,distractorresp,rollingefflvl,resp,rt,acc,fast,accrt,isrewarded,ismiss,runavgrrgen,runavgrrcond,zrt,acczrt,rtthreshold,isdisterror,isranderror,congruence,feedback,fcz_resp_theta,fcz_resp_theta_baseline
67,104,1,1,0.5,-0.5,0.5,3,4,0.6,3,760,1,0,760,1,0,0,NaN,1.25564777107064,1.25564777107064,750,0,0,incongruent,1,1821.14100284037,875.873336681428
67,104,1,2,-0.5,0.5,0,2,NaN,0.6,1,780,0,0,NaN,0,0,0.4,0,1.41674808938027,NaN,750,0,1,neutral,0,1869.22555558462,1503.97731712302
67,104,1,3,0.5,-0.5,-0.5,4,4,0.5,4,639,1,1,639,1,0,0.4,NaN,0.28099084529739,0.28099084529739,750,1,0,congruent,1,6614.73309687133,2486.60499549256
67,104,1,4,-0.5,0.5,-0.5,3,3,0.5,2,500,0,1,NaN,0,0,0.8,0,-0.838656366954524,NaN,750,0,1,congruent,0,704.74804213985,570.425622654801
67,104,1,5,0.5,0.5,-0.5,1,1,0.4,1,710,1,1,710,1,0,0.8,NaN,0.852896975296569,0.852896975296569,750,1,0,congruent,1,2683.37352194898,3008.06860895099
67,104,1,6,0.5,-0.5,0.5,3,4,0.4,3,515,1,1,515,0,0,1.2,NaN,-0.717831128222303,-0.717831128222303,750,0,0,incongruent,0,4929.2917032651,2585.2745157719
67,104,1,7,-0.5,0.5,-0.5,2,2,0.4,2,389,1,1,389,1,0,0.8,0,-1.73276313357296,-1.73276313357296,750,1,0,congruent,0.1,1991.53799924135,1303.4543605891
67,104,1,8,0.5,0.5,0.5,4,3,0.5,4,701,1,1,701,1,0,1,NaN,0.780401832057237,0.780401832057237,750,0,0,incongruent,1,6732.66152359408,967.366219918143
67,104,1,9,0.5,0.5,0,2,NaN,0.6,2,499,1,1,499,1,0,1,NaN,-0.846711382870005,-0.846711382870005,750,0,0,neutral,1,3327.33144514627,1056.81216987166
67,104,1,10,-0.5,0.5,-0.5,4,4,0.8,4,724,1,1,724,1,0,1.4,0.2,0.965667198113309,0.965667198113309,750,1,0,congruent,0.1,1629.99029571783,1097.00202423334
67,104,1,11,-0.5,0.5,0.5,2,3,1,2,678,1,1,678,1,0,1.2,0.4,0.595136466001164,0.595136466001164,750,0,0,incongruent,0.1,1668.65132102264,1908.7576224111
67,104,1,12,-0.5,0.5,-0.5,4,4,1,4,603,1,1,603,1,0,1.4,0.6,-0.00898972765994026,-0.00898972765994026,750,1,0,congruent,0.1,676.787148211497,1322.4984551782
67,104,1,13,-0.5,0.5,-0.5,2,2,1,2,609,1,1,609,1,0,1.4,0.8,0.0393403678329481,0.0393403678329481,750,1,0,congruent,0.1,1051.68150789132,638.379230733431
67,104,1,14,-0.5,0.5,-0.5,1,1,1,1,739,1,1,739,1,0,1.2,1,1.08649243684553,1.08649243684553,750,1,0,congruent,0.1,1313.90593478335,1933.43461218955
67,104,1,15,-0.5,-0.5,0,2,NaN,1,2,550,1,1,550,1,0,1,0,-0.435905571180454,-0.435905571180454,750,0,0,neutral,0.1,1115.52106418977,727.873672211841
67,104,1,16,0.5,-0.5,-0.5,3,3,1,4,466,0,1,NaN,1,0,1,NaN,-1.11252690808089,NaN,750,0,1,congruent,1,1074.84783003887,1713.57078917057
67,104,1,17,0.5,-0.5,0,1,NaN,1,1,544,1,1,544,1,0,1.2,NaN,-0.484235666673343,-0.484235666673343,750,0,0,neutral,1,1285.35411444569,2395.43051481113
67,104,1,18,0.5,0.5,0.5,3,1,1,4,883,0,0,NaN,0,0,1.4,NaN,2.24641472867485,NaN,750,0,1,incongruent,0,5627.92279543076,3610.84118592536
67,104,1,19,-0.5,0.5,0,2,NaN,0.8,2,611,1,1,611,1,0,1.2,1,0.0554503996639109,0.0554503996639109,750,0,0,neutral,0.1,943.67481362722,1520.34905039792
67,104,1,20,-0.5,0.5,0.5,1,2,0.8,1,828,1,0,828,0,0,1.2,1,1.80338885332337,1.80338885332337,750,0,0,incongruent,0,1595.48471175054,1314.92145151264
67,104,1,21,0.5,-0.5,0.5,2,1,0.6,2,661,1,1,661,0,0,1,NaN,0.458201195437981,0.458201195437981,750,0,0,incongruent,0,3561.62527409293,1823.82443923609
67,104,1,22,-0.5,-0.5,-0.5,3,3,0.6,2,461,0,1,NaN,1,0,0.6,0.2,-1.1528019876583,NaN,750,0,1,congruent,0.1,1465.47161098805,1455.31912391778
67,104,1,23,-0.5,0.5,-0.5,2,2,0.6,2,427,1,1,427,1,0,0.4,0.8,-1.42667252878467,-1.42667252878467,750,1,0,congruent,0.1,2176.34584795181,1005.09493093536
67,104,1,24,-0.5,-0.5,0.5,3,4,0.6,3,733,1,1,733,1,0,0.6,0.4,1.03816234135264,1.03816234135264,750,0,0,incongruent,0.1,2190.94977255215,3083.75770844531
67,104,1,25,-0.5,0.5,0,1,NaN,0.6,1,538,1,1,538,1,0,0.6,0.8,-0.532565762166231,-0.532565762166231,750,0,0,neutral,0.1,1747.23842577029,1292.91303941501
67,104,1,26,0.5,-0.5,-0.5,2,2,0.6,2,477,1,1,477,1,0,0.8,NaN,-1.0239217330106,-1.0239217330106,750,1,0,congruent,1,3419.89896539248,647.033540679151
67,104,1,27,-0.5,-0.5,0.5,3,4,0.6,3,554,1,1,554,1,0,1.2,0.6,-0.403685507518529,-0.403685507518529,750,0,0,incongruent,0.1,4441.4553385446,860.045715115273
67,104,1,28,-0.5,-0.5,0,1,NaN,0.6,1,644,1,1,644,1,0,1.2,0.8,0.321265924874797,0.321265924874797,750,0,0,neutral,0.1,607.599732496251,2234.95685083851
67,104,1,29,-0.5,0.5,0.5,2,1,0.6,2,699,1,1,699,1,0,1.2,0.8,0.764291800226274,0.764291800226274,750,0,0,incongruent,0.1,315.636823017802,1340.17492827531
67,104,1,30,-0.5,0.5,0.5,3,2,0.8,3,608,1,1,608,1,0,1.2,0.8,0.0312853519174667,0.0312853519174667,750,0,0,incongruent,0.1,3147.83690258025,2744.48964593046
67,104,1,31,-0.5,-0.5,0.5,4,3,0.8,4,727,1,1,727,1,0,1.2,1,0.989832245859753,0.989832245859753,750,0,0,incongruent,0.1,1256.96382922777,1645.98540728211
67,104,1,32,-0.5,-0.5,0,1,NaN,0.8,1,439,1,1,439,1,0,1,1,-1.33001233779889,-1.33001233779889,750,0,0,neutral,0.1,2037.29835162581,212.571776243736
67,104,1,33,-0.5,-0.5,0.5,3,2,0.8,2,611,0,1,NaN,0,0,1,1,0.0554503996639109,NaN,750,1,0,incongruent,0,3293.66393086084,2356.52714507112
67,104,1,34,-0.5,-0.5,0.5,1,4,0.8,1,717,1,1,717,1,0,0.8,0.8,0.909282086704939,0.909282086704939,750,0,0,incongruent,0.1,3538.31394940281,1778.57934737221
67,104,1,35,-0.5,-0.5,-0.5,3,3,0.8,3,840,1,0,840,1,0,0.8,0.8,1.90004904430915,1.90004904430915,750,1,0,congruent,0.1,2780.41978315958,2792.35767497641
67,104,1,36,0.5,-0.5,-0.5,4,4,0.8,4,573,1,1,573,1,0,0.8,NaN,-0.250640205124382,-0.250640205124382,750,1,0,congruent,1,1122.70895592491,956.839233686316
67,104,1,37,0.5,-0.5,0,3,NaN,0.8,3,582,1,1,582,1,0,1,NaN,-0.17814506188505,-0.17814506188505,750,0,0,neutral,1,1251.21484048775,1811.49084619209
67,104,1,38,0.5,0.5,-0.5,1,1,0.8,1,526,1,1,526,1,0,1.2,NaN,-0.629225953152008,-0.629225953152008,750,1,0,congruent,1,468.607508398268,7105.7321986619
67,104,1,39,-0.5,-0.5,0.5,4,3,1,4,524,1,1,524,1,0,1.6,0.8,-0.645335984982971,-0.645335984982971,750,0,0,incongruent,0.1,2422.98113977314,2886.89919812635
67,104,1,40,0.5,-0.5,-0.5,1,1,1,1,565,1,1,565,1,0,1.6,NaN,-0.315080332448233,-0.315080332448233,750,1,0,congruent,1,912.044107883097,712.977221397433
67,104,1,41,0.5,0.5,0,3,NaN,1,3,852,1,0,852,0,0,1.8,NaN,1.99670923529493,1.99670923529493,750,0,0,neutral,0,736.46093785378,3969.1507578362
67,104,1,42,0.5,-0.5,-0.5,1,1,0.8,1,584,1,1,584,1,0,1.4,NaN,-0.162035030054087,-0.162035030054087,750,1,0,congruent,1,2185.24838005155,1667.229528404
67,104,1,43,-0.5,0.5,0.5,3,2,0.8,3,870,1,0,870,0,0,1.4,0.8,2.14169952177359,2.14169952177359,750,0,0,incongruent,0,5063.32975148918,6209.2921165482
67,104,1,44,0.5,0.5,0.5,2,3,0.6,2,478,1,1,478,1,0,1,NaN,-1.01586671709511,-1.01586671709511,750,0,0,incongruent,1,401.856806472394,614.028502463028
67,104,1,45,-0.5,-0.5,0,4,NaN,0.6,4,901,1,0,901,0,0,1.2,0.8,2.39140501515352,2.39140501515352,750,0,0,neutral,0,7492.80115512074,3078.83566836683
67,104,1,46,-0.5,0.5,0.5,1,4,0.6,1,784,1,0,784,0,0,0.8,0.8,1.44896815304219,1.44896815304219,750,0,0,incongruent,0,1666.58433344017,2549.24819009147
67,104,1,47,-0.5,0.5,0.5,2,3,0.4,2,621,1,1,621,1,0,0.8,0.6,0.136000558818725,0.136000558818725,750,0,0,incongruent,0.1,1697.38195585293,838.681701452242
67,104,1,48,-0.5,-0.5,0,4,NaN,0.4,4,818,1,0,818,0,0,0.6,0.6,1.72283869416856,1.72283869416856,750,0,0,neutral,0,1685.1810990507,2444.91807266348
67,104,1,49,0.5,0.5,0.5,3,1,0.4,3,800,1,0,800,0,0,0.6,NaN,1.57784840768989,1.57784840768989,750,0,0,incongruent,0,2696.47343739709,3351.23637482565
67,104,1,50,0.5,-0.5,-0.5,4,4,0.4,4,631,1,1,631,1,0,0.2,NaN,0.216550717973539,0.216550717973539,750,1,0,congruent,1,755.67191576523,1414.23301485707
67,104,1,51,-0.5,0.5,0,2,NaN,0.4,2,626,1,1,626,1,0,0.6,0.6,0.176275638396132,0.176275638396132,750,0,0,neutral,0.1,2518.9064490821,1775.71954824466
67,104,1,52,-0.5,0.5,0.5,4,1,0.6,4,895,1,0,895,0,0,0.8,0.6,2.34307491966063,2.34307491966063,750,0,0,incongruent,0,1280.53871997281,1751.12297478337
67,104,1,53,0.5,-0.5,0,1,NaN,0.4,1,624,1,1,624,0,0,0.6,NaN,0.160165606565169,0.160165606565169,750,0,0,neutral,0,3409.7752613542,6299.41990828592
67,104,1,54,0.5,0.5,-0.5,4,4,0.4,4,606,1,1,606,1,0,0.6,NaN,0.0151753200865039,0.0151753200865039,750,1,0,congruent,1,418.161778839898,3951.78333169522
67,104,1,56,-0.5,0.5,0,3,NaN,0.6,3,856,1,0,856,0,0,0.8,0.4,2.02892929895685,2.02892929895685,750,0,0,neutral,0,3385.61025828385,3017.78748026241
67,104,1,57,-0.5,0.5,0.5,2,3,0.4,2,945,1,0,945,0,0,0.6,0.4,2.7458257154347,2.7458257154347,750,0,0,incongruent,0,3472.08094110197,997.512665220291
67,104,1,58,0.5,-0.5,-0.5,4,4,0.4,4,596,1,1,596,1,0,0.6,NaN,-0.06537483906831,-0.06537483906831,750,1,0,congruent,1,1586.67066298187,3352.61943718344
67,104,1,59,0.5,-0.5,-0.5,2,2,0.4,2,511,1,1,511,1,0,1,NaN,-0.750051191884229,-0.750051191884229,750,1,0,congruent,1,1239.02219935919,439.837033373463
67,104,1,61,-0.5,-0.5,-0.5,4,4,0.4,4,475,1,1,475,1,0,1,0.6,-1.04003176484156,-1.04003176484156,750,1,0,congruent,0.1,1194.30325994595,1794.18782000105
67,104,1,62,-0.5,0.5,0.5,1,2,0.4,1,595,1,1,595,1,0,1.2,0.4,-0.0734298549837914,-0.0734298549837914,750,0,0,incongruent,0.1,759.853603517035,2396.19406635012
67,104,1,63,0.5,0.5,-0.5,3,3,0.4,4,678,0,1,NaN,0,0,1.4,NaN,0.595136466001164,NaN,750,0,1,congruent,0,4567.57507054417,1036.36342968993
67,104,1,64,0.5,-0.5,-0.5,1,1,0.4,1,643,1,1,643,1,0,1,NaN,0.313210908959316,0.313210908959316,750,1,0,congruent,1,1492.96917974777,2530.48212978833
67,104,1,65,-0.5,-0.5,-0.5,4,4,0.4,4,828,1,0,828,1,0,1,0.6,1.80338885332337,1.80338885332337,750,1,0,congruent,0.1,530.518821661972,2067.81782741066
67,104,1,66,0.5,0.5,-0.5,2,2,0.4,2,570,1,1,570,1,0,1,NaN,-0.274805252870826,-0.274805252870826,750,1,0,congruent,1,1502.38345301603,2604.86948363833
67,104,1,67,0.5,0.5,0,4,NaN,0.4,3,856,0,0,NaN,0,0,1.2,NaN,2.02892929895685,NaN,750,0,1,neutral,0,3146.53852378609,1133.10104482418
67,104,1,68,-0.5,0.5,0.5,1,2,0.4,1,703,1,1,703,1,0,1,0.4,0.796511863888199,0.796511863888199,750,0,0,incongruent,0.1,873.292063224762,1864.67719526916
67,104,1,69,0.5,-0.5,-0.5,3,3,0.6,3,615,1,1,615,1,0,1.2,NaN,0.0876704633258365,0.0876704633258365,750,1,0,congruent,1,1961.13091447806,666.455803534473
67,104,1,70,-0.5,-0.5,-0.5,1,1,0.6,1,615,1,1,615,0,0,1.2,0.8,0.0876704633258365,0.0876704633258365,750,1,0,congruent,0,2189.4133681338,2427.45616786414
67,104,1,71,0.5,0.5,-0.5,3,3,0.6,3,543,1,1,543,1,0,1,NaN,-0.492290682588824,-0.492290682588824,750,1,0,congruent,1,1877.69277223231,585.504946011764
67,104,1,72,-0.5,-0.5,0.5,1,4,0.6,4,539,0,1,NaN,0,0,1,0.8,-0.52451074625075,NaN,750,1,0,incongruent,0,5439.13743049562,1828.39824669362
67,104,1,73,0.5,-0.5,0.5,3,2,0.6,3,615,1,1,615,0,0,1,NaN,0.0876704633258365,0.0876704633258365,750,0,0,incongruent,0,2728.25321160772,8577.95120854204
67,104,1,74,-0.5,-0.5,-0.5,4,4,0.6,4,981,1,0,981,0,0,0.8,0.6,3.03580628839203,3.03580628839203,750,1,0,congruent,0,1105.47450581909,1058.17847922778
67,104,1,75,0.5,0.5,0.5,1,3,0.6,1,732,1,1,732,1,0,0.4,NaN,1.03010732543716,1.03010732543716,750,0,0,incongruent,1,1029.42878014897,3067.22649851001
67,104,1,76,0.5,0.5,0,4,NaN,0.8,3,949,0,0,NaN,0,0,0.8,NaN,2.77804577909662,NaN,750,0,1,neutral,0,840.025214526859,722.921619418585
67,104,1,77,0.5,0.5,-0.5,1,1,0.6,1,531,1,1,531,1,0,0.4,NaN,-0.588950873574601,-0.588950873574601,750,1,0,congruent,1,1169.98081088326,2421.72888903635
67,104,1,78,-0.5,0.5,-0.5,4,4,0.8,4,721,1,1,721,1,0,0.8,0.4,0.941502150366864,0.941502150366864,750,1,0,congruent,0.1,2252.81824359498,3144.99779870635
67,104,1,79,-0.5,-0.5,0,1,NaN,0.8,1,537,1,1,537,1,0,1,0.4,-0.540620778081712,-0.540620778081712,750,0,0,neutral,0.1,475.891139342111,413.159710072389
67,104,1,80,0.5,0.5,-0.5,2,2,0.8,2,557,1,1,557,1,0,1.2,NaN,-0.379520459772084,-0.379520459772084,750,1,0,congruent,1,2165.52669346733,1879.86541826596
67,104,1,81,0.5,-0.5,0,4,NaN,0.8,4,688,1,1,688,1,0,1.2,NaN,0.675686625155978,0.675686625155978,750,0,0,neutral,1,1158.54191262891,2829.67291999184
67,104,1,82,-0.5,0.5,-0.5,2,2,0.8,2,476,1,1,476,1,0,1.6,0.6,-1.03197674892608,-1.03197674892608,750,1,0,congruent,0.1,741.048056655424,802.53427222133
67,104,1,83,-0.5,0.5,0,3,NaN,0.8,4,638,0,1,NaN,0,0,1.4,0.8,0.272935829381909,NaN,750,0,1,neutral,0,3013.44536024482,7659.1429344285
67,104,1,84,-0.5,0.5,-0.5,1,1,0.8,1,541,1,1,541,1,0,1.2,0.8,-0.508400714419787,-0.508400714419787,750,1,0,congruent,0.1,716.393386456208,2721.68992051019
67,104,1,85,-0.5,-0.5,0,2,NaN,0.8,2,716,1,1,716,0,0,1.2,0.4,0.901227070789458,0.901227070789458,750,0,0,neutral,0,1906.40063727241,2550.5464515945
67,104,1,86,-0.5,-0.5,0.5,1,3,0.8,1,774,1,0,774,1,0,0.8,0.2,1.36841799388738,1.36841799388738,750,0,0,incongruent,0.1,1185.89104639993,3080.58547717835
67,104,1,87,-0.5,-0.5,0.5,2,4,0.8,2,404,1,1,404,1,0,0.6,0.4,-1.61193789484074,-1.61193789484074,750,0,0,incongruent,0.1,1441.4304987941,900.407935808429
67,104,1,88,-0.5,0.5,-0.5,1,1,0.8,1,551,1,1,551,1,0,0.6,0.8,-0.427850555264973,-0.427850555264973,750,1,0,congruent,0.1,454.467539195646,1182.11147059653
67,104,1,89,0.5,0.5,0.5,3,2,0.8,3,789,1,0,789,0,0,0.8,NaN,1.4892432326196,1.4892432326196,750,0,0,incongruent,0,610.876075516465,2032.73444596611
67,104,1,90,-0.5,0.5,0,2,NaN,0.6,2,689,1,1,689,1,0,0.6,0.8,0.68374164107146,0.68374164107146,750,0,0,neutral,0.1,3229.28566125786,1465.17233707226
67,104,1,91,-0.5,-0.5,-0.5,3,3,0.6,2,675,0,1,NaN,0,0,0.8,0.6,0.57097141825472,NaN,750,0,1,congruent,0,1632.66908442379,1049.53408710801
67,104,1,92,-0.5,0.5,0.5,1,4,0.6,1,695,1,1,695,1,0,0.6,0.8,0.732071736564348,0.732071736564348,750,0,0,incongruent,0.1,2336.87816586633,1290.70011545295
67,104,1,93,0.5,0.5,0.5,3,2,0.8,3,739,1,1,739,1,0,0.6,NaN,1.08649243684553,1.08649243684553,750,0,0,incongruent,1,588.806165445045,1343.46712909495
67,104,1,94,-0.5,-0.5,0,4,NaN,0.8,4,430,1,1,430,1,0,0.8,0.6,-1.40250748103822,-1.40250748103822,750,0,0,neutral,0.1,353.474531033764,1972.7438223012
67,104,1,95,0.5,-0.5,0.5,3,4,0.8,3,710,1,1,710,1,0,1,NaN,0.852896975296569,0.852896975296569,750,0,0,incongruent,1,1637.01374669115,1873.7417989646
67,104,1,96,0.5,0.5,0.5,4,1,0.8,4,834,1,0,834,0,0,1.2,NaN,1.85171894881626,1.85171894881626,750,0,0,incongruent,0,3139.18415235624,2081.4231185039
67,104,1,97,0.5,0.5,0.5,3,2,0.6,3,748,1,1,748,1,0,1.2,NaN,1.15898758008486,1.15898758008486,750,0,0,incongruent,1,9297.14113301781,1234.31131243382
67,104,1,98,-0.5,-0.5,0,4,NaN,0.8,4,734,1,1,734,0,0,1.4,0.6,1.04621735726812,1.04621735726812,750,0,0,neutral,0,4477.27580649994,2405.23977137602
67,104,1,99,-0.5,0.5,-0.5,2,2,0.8,2,760,1,0,760,0,0,1,0.8,1.25564777107064,1.25564777107064,750,1,0,congruent,0,1223.42594992953,4822.52555912455
67,104,1,100,-0.5,-0.5,0,1,NaN,0.6,1,711,1,1,711,0,0,0.8,0.6,0.860951991212051,0.860951991212051,750,0,0,neutral,0,1829.91392095361,2801.5958767118
67,104,1,101,-0.5,0.5,-0.5,4,4,0.6,4,743,1,1,743,1,0,0.4,0.8,1.11871250050746,1.11871250050746,750,1,0,congruent,0.1,2146.95315807532,2156.87375971815
67,104,1,102,-0.5,0.5,-0.5,3,3,0.6,3,667,1,1,667,1,0,0.6,0.8,0.506531290930869,0.506531290930869,750,1,0,congruent,0.1,5604.05309139257,669.516349177387
67,104,1,103,0.5,0.5,0,1,NaN,0.6,1,436,1,1,436,1,0,0.4,NaN,-1.35417738554533,-1.35417738554533,750,0,0,neutral,1,1347.03461815468,1456.4443765182
67,104,1,104,-0.5,0.5,-0.5,4,4,0.8,4,625,1,1,625,1,0,0.8,0.8,0.16822062248065,0.16822062248065,750,1,0,congruent,0.1,2381.74866040891,1116.19642343698
67,104,1,105,0.5,0.5,-0.5,1,1,0.8,1,671,1,1,671,1,0,1,NaN,0.538751354592795,0.538751354592795,750,1,0,congruent,1,2798.57873378722,3156.04485039877
67,104,1,107,-0.5,-0.5,0.5,2,4,0.8,2,589,1,1,589,0,0,1.2,0.4,-0.12175995047668,-0.12175995047668,750,0,0,incongruent,0,2911.69815875247,3284.1542485163
67,104,1,108,-0.5,0.5,0,1,NaN,0.8,1,599,1,1,599,1,0,1,0.8,-0.0412097913218658,-0.0412097913218658,750,0,0,neutral,0.1,3113.98428812723,780.663197021735
67,104,1,109,0.5,-0.5,-0.5,4,4,0.8,4,902,1,0,902,1,0,0.8,NaN,2.399460031069,2.399460031069,750,1,0,congruent,1,2860.53933338385,4110.24772467753
67,104,1,110,0.5,-0.5,0.5,1,3,0.8,1,593,1,1,593,1,0,1,NaN,-0.0895398868147542,-0.0895398868147542,750,0,0,incongruent,1,804.840689948714,1378.71430412401
67,104,1,111,0.5,-0.5,0,2,NaN,0.8,2,641,1,1,641,1,0,1,NaN,0.297100877128353,0.297100877128353,750,0,0,neutral,1,1774.75271526234,1844.1138262082
67,104,1,112,0.5,-0.5,-0.5,3,3,0.8,3,381,1,1,381,1,0,1.4,NaN,-1.79720326089681,-1.79720326089681,750,1,0,congruent,1,2330.25764728691,1191.37717025028
67,104,1,113,-0.5,-0.5,0,4,NaN,0.8,4,304,1,1,304,0,0,1.8,0.2,-2.41743948638888,-2.41743948638888,750,0,0,neutral,0,1199.11856571684,1173.60224655483
67,104,1,114,-0.5,0.5,0.5,2,1,0.8,2,631,1,1,631,1,0,1.6,0.8,0.216550717973539,0.216550717973539,750,0,0,incongruent,0.1,1152.42807063221,1290.67124387669
67,104,1,115,0.5,-0.5,0.5,3,2,0.8,3,682,1,1,682,1,0,1.4,NaN,0.62735652966309,0.62735652966309,750,0,0,incongruent,1,351.660677428599,2555.81244415125
67,104,1,116,-0.5,0.5,-0.5,4,4,0.8,4,677,1,1,677,1,0,1.4,1,0.587081450085683,0.587081450085683,750,1,0,congruent,0.1,1997.3682763642,2912.50331899593
67,104,1,117,0.5,0.5,0,3,NaN,0.8,3,527,1,1,527,1,0,1.2,NaN,-0.621170937236526,-0.621170937236526,750,0,0,neutral,1,986.167328211512,2727.04635619894
67,104,1,118,-0.5,-0.5,-0.5,2,2,0.8,2,735,1,1,735,1,0,1.2,0.2,1.0542723731836,1.0542723731836,750,1,0,congruent,0.1,2157.0149657459,1338.70110631939
67,104,1,119,-0.5,0.5,0.5,3,4,0.8,3,635,1,1,635,1,0,1.4,1,0.248770781635464,0.248770781635464,750,0,0,incongruent,0.1,1126.16728753149,1871.18490966571
67,104,1,120,0.5,-0.5,0,4,NaN,1,4,377,1,1,377,1,0,1.4,NaN,-1.82942332455874,-1.82942332455874,750,0,0,neutral,1,1088.82083463501,1413.18095738882
67,104,1,121,0.5,-0.5,0.5,1,4,1,2,724,0,1,NaN,1,0,1.4,NaN,0.965667198113309,NaN,750,0,1,incongruent,1,2376.43671569064,3616.88068741744
67,104,1,122,0.5,-0.5,0,4,NaN,1,4,669,1,1,669,1,0,1.6,NaN,0.522641322761832,0.522641322761832,750,0,0,neutral,1,2686.91570292423,656.479959693081
67,104,1,123,0.5,0.5,0.5,3,1,1,3,605,1,1,605,1,0,1.6,NaN,0.00712030417102253,0.00712030417102253,750,0,0,incongruent,1,1954.41565061133,3574.9395952394
67,104,1,124,0.5,0.5,0.5,2,3,1,4,362,0,1,NaN,0,0,1.8,NaN,-1.95024856329096,NaN,750,0,1,incongruent,0,9794.91848804748,519.882461953462
67,104,1,125,-0.5,0.5,-0.5,4,4,0.8,4,983,1,0,983,0,0,1.6,1,3.05191632022299,3.05191632022299,750,1,0,congruent,0,2715.93943886928,2300.47197879092
67,104,1,126,-0.5,0.5,0.5,1,2,0.6,1,606,1,1,606,1,0,1.2,0.8,0.0151753200865039,0.0151753200865039,750,0,0,incongruent,0.1,1489.64409984044,3978.0892702703
67,104,1,127,-0.5,0.5,0.5,4,3,0.6,4,615,1,1,615,1,0,1,0.8,0.0876704633258365,0.0876704633258365,750,0,0,incongruent,0.1,2492.30383014837,5708.6561880133
67,104,1,128,-0.5,-0.5,0.5,2,4,0.6,4,549,0,1,NaN,1,0,0.8,0.2,-0.443960587095936,NaN,750,1,0,incongruent,0.1,4580.53605395037,2109.81827072623
67,104,1,129,0.5,0.5,-0.5,1,1,0.6,1,594,1,1,594,1,0,0.6,NaN,-0.0814848708992728,-0.0814848708992728,750,1,0,congruent,1,974.431354347248,917.483288036782
67,104,1,130,0.5,-0.5,-0.5,3,3,0.6,3,915,1,0,915,1,0,1,NaN,2.50417523797026,2.50417523797026,750,1,0,congruent,1,2910.46513160057,4488.00596328683
67,104,1,131,0.5,0.5,0.5,1,4,0.6,1,641,1,1,641,1,0,1.4,NaN,0.297100877128353,0.297100877128353,750,0,0,incongruent,1,2395.0985001059,2155.23393819102
67,104,1,132,0.5,-0.5,0.5,4,1,0.8,4,820,1,0,820,0,0,1.6,NaN,1.73894872599952,1.73894872599952,750,0,0,incongruent,0,2088.37887295609,5739.92503354028
67,104,1,133,0.5,-0.5,0.5,1,3,0.8,1,772,1,0,772,1,0,1.4,NaN,1.35230796205642,1.35230796205642,750,0,0,incongruent,1,2500.94726135812,2287.83771259188
67,104,1,134,-0.5,-0.5,0,2,NaN,0.8,2,662,1,1,662,1,0,1.6,0.4,0.466256211353462,0.466256211353462,750,0,0,neutral,0.1,1877.20458765417,1588.53477234835
67,104,1,135,0.5,0.5,0.5,4,1,0.8,4,683,1,1,683,1,0,1.4,NaN,0.635411545578571,0.635411545578571,750,0,0,incongruent,1,2115.05694457387,5934.27116964962
67,104,1,136,-0.5,0.5,-0.5,3,3,1,3,536,1,1,536,1,0,1.4,0.8,-0.548675793997194,-0.548675793997194,750,1,0,congruent,0.1,2895.98136605522,2875.02196851847
67,104,1,137,0.5,0.5,-0.5,4,4,1,4,775,1,0,775,0,0,1.2,NaN,1.37647300980286,1.37647300980286,750,1,0,congruent,0,4117.33012501089,998.794205094683
67,104,1,138,0.5,0.5,0,2,NaN,0.8,2,585,1,1,585,1,0,1.2,NaN,-0.153980014138605,-0.153980014138605,750,0,0,neutral,1,3625.9290106804,1466.27945935216
67,104,1,139,-0.5,0.5,-0.5,4,4,0.8,4,497,1,1,497,1,0,1.2,0.8,-0.862821414700968,-0.862821414700968,750,1,0,congruent,0.1,1063.40245762746,2315.08846431587
67,104,1,140,-0.5,0.5,-0.5,2,2,0.8,2,452,1,1,452,1,0,1.2,0.8,-1.22529713089763,-1.22529713089763,750,1,0,congruent,0.1,1136.15014704423,1309.48889011641
67,104,1,141,0.5,0.5,-0.5,3,3,0.8,3,489,1,1,489,1,0,1,NaN,-0.927261542024819,-0.927261542024819,750,1,0,congruent,1,844.504047227658,999.491967853764
67,104,1,142,0.5,-0.5,-0.5,2,2,0.8,2,574,1,1,574,1,0,1.2,NaN,-0.242585189208901,-0.242585189208901,750,1,0,congruent,1,1202.6787771144,743.512033762293
67,104,1,143,-0.5,0.5,0,1,NaN,0.8,1,596,1,1,596,1,0,1.6,1,-0.06537483906831,-0.06537483906831,750,0,0,neutral,0.1,2155.25515608922,1051.46864607181
67,104,1,144,-0.5,-0.5,-0.5,2,2,1,2,620,1,1,620,1,0,1.4,0.6,0.127945542903243,0.127945542903243,750,1,0,congruent,0.1,1099.48930115974,2816.83559519713
67,104,1,145,0.5,0.5,0,3,NaN,1,3,658,1,1,658,1,0,1.4,NaN,0.434036147691537,0.434036147691537,750,0,0,neutral,1,1957.45107962961,1620.35275686774
67,104,1,146,-0.5,-0.5,-0.5,2,2,1,2,459,1,1,459,1,0,1.6,0.8,-1.16891201948926,-1.16891201948926,750,1,0,congruent,0.1,987.935925892716,735.488067780161
67,104,1,147,-0.5,-0.5,0,4,NaN,1,4,551,1,1,551,1,0,1.4,1,-0.427850555264973,-0.427850555264973,750,0,0,neutral,0.1,4607.54950054226,608.226179216738
67,104,1,148,0.5,0.5,0.5,1,2,1,1,494,1,1,494,1,0,1.2,NaN,-0.886986462447412,-0.886986462447412,750,0,0,incongruent,1,1966.72025990651,2109.70877574522
67,104,1,149,0.5,0.5,0.5,4,3,1,4,554,1,1,554,1,0,1.4,NaN,-0.403685507518529,-0.403685507518529,750,0,0,incongruent,1,1142.26711072801,1779.67657962878
67,104,1,150,-0.5,0.5,0.5,2,4,1,2,537,1,1,537,1,0,1.6,1,-0.540620778081712,-0.540620778081712,750,0,0,incongruent,0.1,3014.65373038364,2076.87968609207
67,104,2,151,-0.5,-0.5,0.5,4,3,1,4,698,1,1,698,1,0,1.4,1,0.756236784310792,0.756236784310792,750,0,0,incongruent,0.1,555.902553372496,1893.67055789649
67,104,2,152,-0.5,-0.5,0,3,NaN,1,3,590,1,1,590,1,0,1.4,1,-0.113704934561198,-0.113704934561198,750,0,0,neutral,0.1,2350.55922160094,1497.45853970536
67,104,2,153,-0.5,-0.5,0.5,2,4,1,2,701,1,1,701,1,0,1.4,1,0.780401832057237,0.780401832057237,750,0,0,incongruent,0.1,1717.28656641439,769.209842029225
67,104,2,154,0.5,0.5,0,3,NaN,1,3,622,1,1,622,1,0,1.2,NaN,0.144055574734206,0.144055574734206,750,0,0,neutral,1,909.045563342786,5157.58600422207
67,104,2,155,-0.5,-0.5,0.5,2,4,1,2,566,1,1,566,1,0,1.2,1,-0.307025316532752,-0.307025316532752,750,0,0,incongruent,0.1,1272.1438857135,4679.05946435097
67,104,2,156,-0.5,0.5,-0.5,3,3,1,3,626,1,1,626,1,0,1.2,1,0.176275638396132,0.176275638396132,750,1,0,congruent,0.1,7123.42232955734,8399.52605365814
67,104,2,157,-0.5,-0.5,0.5,1,4,1,1,598,1,1,598,1,0,1.2,1,-0.0492648072373472,-0.0492648072373472,750,0,0,incongruent,0.1,1798.41537752478,4415.05328106201
67,104,2,158,-0.5,-0.5,0,3,NaN,1,3,617,1,1,617,1,0,1.2,1,0.103780495156799,0.103780495156799,750,0,0,neutral,0.1,1766.79451193044,1607.32482315967
67,104,2,159,0.5,0.5,0.5,1,2,1,1,723,1,1,723,1,0,1.2,NaN,0.957612182197827,0.957612182197827,750,0,0,incongruent,1,942.674545426382,987.646209819161
67,104,2,160,-0.5,0.5,0,4,NaN,1,4,908,1,0,908,0,0,1.2,1,2.44779012656189,2.44779012656189,750,0,0,neutral,0,3637.14436175897,1793.14022425367
67,104,2,161,-0.5,0.5,-0.5,2,2,0.8,2,665,1,1,665,1,0,1,0.8,0.490421259099906,0.490421259099906,750,1,0,congruent,0.1,5653.52130066696,1473.43731201883
67,104,2,162,-0.5,-0.5,0.5,4,3,0.8,4,761,1,0,761,1,0,1,1,1.26370278698612,1.26370278698612,750,0,0,incongruent,0.1,3011.46340138333,3307.83448082707
67,104,2,163,0.5,-0.5,0.5,3,4,0.8,3,615,1,1,615,1,0,1,NaN,0.0876704633258365,0.0876704633258365,750,0,0,incongruent,1,2318.35296535629,2670.69804317181
67,104,2,164,0.5,0.5,-0.5,2,2,0.8,1,393,0,1,NaN,0,0,1.2,NaN,-1.70054306991103,NaN,750,0,1,congruent,0,9059.1650427837,497.187615213504
67,104,2,165,-0.5,-0.5,0,3,NaN,0.6,3,581,1,1,581,1,0,0.8,1,-0.186200077800531,-0.186200077800531,750,0,0,neutral,0.1,1012.49782843882,3493.69235737957
67,104,2,166,-0.5,-0.5,-0.5,4,4,0.6,4,496,1,1,496,1,0,1,1,-0.87087643061645,-0.87087643061645,750,1,0,congruent,0.1,4833.19820253326,2789.43053556981
67,104,2,167,0.5,0.5,0,3,NaN,0.6,3,636,1,1,636,1,0,1,NaN,0.256825797550946,0.256825797550946,750,0,0,neutral,1,2302.51082448293,1747.9697778825
67,104,2,168,0.5,-0.5,-0.5,4,4,0.6,4,901,1,0,901,0,0,1.2,NaN,2.39140501515352,2.39140501515352,750,1,0,congruent,0,2524.05695107787,787.116213775441
67,104,2,169,0.5,0.5,0.5,1,2,0.6,1,660,1,1,660,1,0,0.8,NaN,0.450146179522499,0.450146179522499,750,0,0,incongruent,1,1980.50026484735,1071.71065877118
67,104,2,170,0.5,0.5,0,2,NaN,0.6,2,576,1,1,576,1,0,1.2,NaN,-0.226475157377938,-0.226475157377938,750,0,0,neutral,1,1577.21147961334,1393.84965091578
67,104,2,171,0.5,-0.5,-0.5,1,1,0.8,1,698,1,1,698,1,0,1.4,NaN,0.756236784310792,0.756236784310792,750,1,0,congruent,1,2594.1345544123,678.5488313716
67,104,2,172,0.5,0.5,0.5,2,3,0.8,2,710,1,1,710,1,0,1.6,NaN,0.852896975296569,0.852896975296569,750,0,0,incongruent,1,2171.09721497343,944.888331172549
67,104,2,173,0.5,-0.5,0.5,3,2,0.8,3,794,1,0,794,1,0,1.6,NaN,1.52951831219701,1.52951831219701,750,0,0,incongruent,1,2997.7073936798,2282.84742286748
67,104,2,174,-0.5,-0.5,-0.5,4,4,0.8,4,309,1,1,309,1,0,2,1,-2.37716440681147,-2.37716440681147,750,1,0,congruent,0.1,2028.74122406203,933.187391526592
67,104,2,175,0.5,0.5,-0.5,2,2,0.8,2,560,1,1,560,1,0,1.8,NaN,-0.35535541202564,-0.35535541202564,750,1,0,congruent,1,1373.42877556131,920.160428650724
67,104,2,176,-0.5,-0.5,0.5,3,4,1,3,629,1,1,629,1,0,1.8,1,0.200440686142576,0.200440686142576,750,0,0,incongruent,0.1,846.036717291949,1942.46505730818
67,104,2,177,0.5,0.5,0.5,4,2,1,4,893,1,0,893,0,0,1.6,NaN,2.32696488782966,2.32696488782966,750,0,0,incongruent,0,1689.77364470579,3765.32432366339
67,104,2,178,-0.5,-0.5,-0.5,3,3,0.8,3,656,1,1,656,1,0,1.2,1,0.417926115860574,0.417926115860574,750,1,0,congruent,0.1,1668.21069268338,1211.55312591565
67,104,2,179,-0.5,0.5,-0.5,2,2,0.8,2,770,1,0,770,0,0,1,0.8,1.33619793022545,1.33619793022545,750,1,0,congruent,0,3062.99293194693,2045.72682021401
67,104,2,180,-0.5,-0.5,-0.5,3,3,0.6,3,513,1,1,513,1,0,0.8,1,-0.733941160053266,-0.733941160053266,750,1,0,congruent,0.1,1324.70806402015,1437.84500195203
67,104,2,181,-0.5,-0.5,0,2,NaN,0.6,4,431,0,1,NaN,1,0,0.6,1,-1.39445246512274,NaN,750,0,1,neutral,0.1,9570.39030089802,1111.25712385059
67,104,2,182,0.5,-0.5,-0.5,1,1,0.6,1,633,1,1,633,1,0,0.6,NaN,0.232660749804502,0.232660749804502,750,1,0,congruent,1,1689.82918249619,1100.6257603957
67,104,2,183,-0.5,0.5,0,3,NaN,0.6,3,640,1,1,640,1,0,1,0.6,0.289045861212871,0.289045861212871,750,0,0,neutral,0.1,2321.66274928882,3209.86150879164
67,104,2,184,-0.5,0.5,0.5,4,1,0.6,4,740,1,1,740,1,0,1,0.6,1.09454745276101,1.09454745276101,750,0,0,incongruent,0.1,1345.90124672749,1671.85036709082
67,104,2,185,0.5,-0.5,-0.5,3,3,0.6,3,503,1,1,503,0,0,1.2,NaN,-0.81449131920808,-0.81449131920808,750,1,0,congruent,0,733.362420114599,1802.84688162604
67,104,2,186,-0.5,0.5,0,2,NaN,0.6,2,664,1,1,664,1,0,1,0.6,0.482366243184425,0.482366243184425,750,0,0,neutral,0.1,2574.20081864361,1179.24353308362
67,104,2,187,-0.5,-0.5,0.5,4,1,0.6,4,987,1,0,987,1,0,1,1,3.08413638388492,3.08413638388492,750,0,0,incongruent,0.1,2535.47952297633,2240.14479947985
67,104,2,188,0.5,0.5,0,1,NaN,0.6,1,556,1,1,556,1,0,0.8,NaN,-0.387575475687566,-0.387575475687566,750,0,0,neutral,1,3348.93285051853,4302.66109217662
67,104,2,189,0.5,-0.5,-0.5,2,2,0.8,2,642,1,1,642,1,0,1,NaN,0.305155893043834,0.305155893043834,750,1,0,congruent,1,2476.44029321721,1007.72603399052
67,104,2,190,0.5,0.5,0.5,3,1,0.8,3,606,1,1,606,1,0,1.2,NaN,0.0151753200865039,0.0151753200865039,750,0,0,incongruent,1,1618.25314536136,4237.74172702567
67,104,2,191,0.5,0.5,0.5,1,3,1,1,774,1,0,774,0,0,1.6,NaN,1.36841799388738,1.36841799388738,750,0,0,incongruent,0,2672.01443284482,2184.9385571169
67,104,2,192,0.5,-0.5,0.5,4,1,0.8,4,659,1,1,659,1,0,1.4,NaN,0.442091163607018,0.442091163607018,750,0,0,incongruent,1,628.227489240252,1661.15655597651
67,104,2,193,0.5,-0.5,0,2,NaN,0.8,2,637,1,1,637,1,0,1.6,NaN,0.264880813466427,0.264880813466427,750,0,0,neutral,1,1121.92384240512,1996.76361255814
67,104,2,194,0.5,0.5,-0.5,4,4,0.8,4,727,1,1,727,1,0,1.6,NaN,0.989832245859753,0.989832245859753,750,1,0,congruent,1,1292.72395336368,1722.26971024999
67,104,2,195,-0.5,-0.5,0,1,NaN,0.8,1,678,1,1,678,0,0,1.6,1,0.595136466001164,0.595136466001164,750,0,0,neutral,0,7898.2688723433,2113.92759134772
67,104,2,196,-0.5,-0.5,-0.5,3,3,0.8,3,596,1,1,596,1,0,1.2,0.8,-0.06537483906831,-0.06537483906831,750,1,0,congruent,0.1,4975.47551288107,1430.92760835881
67,104,2,197,0.5,0.5,0.5,4,2,0.8,4,826,1,0,826,0,0,1.4,NaN,1.78727882149241,1.78727882149241,750,0,0,incongruent,0,2557.66108768956,1522.86991859203
67,104,2,198,-0.5,0.5,0,3,NaN,0.6,3,484,1,1,484,1,0,1,0.8,-0.967536621602226,-0.967536621602226,750,0,0,neutral,0.1,1865.57791924467,1119.28843444807
67,104,2,199,-0.5,0.5,0.5,1,2,0.6,1,737,1,1,737,1,0,0.8,0.8,1.07038240501457,1.07038240501457,750,0,0,incongruent,0.1,2999.53739638172,8522.42324288433
67,104,2,200,-0.5,-0.5,0,2,NaN,0.6,2,745,1,1,745,0,0,0.6,0.8,1.13482253233842,1.13482253233842,750,0,0,neutral,0,1013.18619801977,1036.26881544922
67,104,2,201,-0.5,-0.5,0.5,3,4,0.6,3,444,1,1,444,1,0,0.6,0.6,-1.28973725822148,-1.28973725822148,750,0,0,incongruent,0.1,1506.91685087827,807.001699676074
67,104,2,202,0.5,-0.5,0.5,4,2,0.6,4,355,1,1,355,0,0,0.6,NaN,-2.00663367469933,-2.00663367469933,750,0,0,incongruent,0,5291.50249599435,1642.14349710631
67,104,2,203,0.5,-0.5,0.5,3,4,0.6,3,772,1,0,772,0,0,0.6,NaN,1.35230796205642,1.35230796205642,750,0,0,incongruent,0,577.571738695853,3762.96514958852
67,104,2,204,-0.5,-0.5,-0.5,1,1,0.6,1,657,1,1,657,1,0,0.4,0.6,0.425981131776055,0.425981131776055,750,1,0,congruent,0.1,761.292676341998,540.077610957151
67,104,2,205,-0.5,0.5,0.5,2,3,0.6,2,579,1,1,579,1,0,0.4,1,-0.202310109631494,-0.202310109631494,750,0,0,incongruent,0.1,342.967902971628,804.13452331177
67,104,2,206,0.5,-0.5,-0.5,1,1,0.8,1,648,1,1,648,0,0,0.6,NaN,0.353485988536723,0.353485988536723,750,1,0,congruent,0,1895.23326173685,1702.17550357423
67,104,2,207,0.5,0.5,0.5,4,2,0.8,4,762,1,0,762,0,0,0.4,NaN,1.2717578029016,1.2717578029016,750,0,0,incongruent,0,3979.80802014346,2696.42893559373
67,104,2,208,0.5,-0.5,-0.5,1,1,0.6,1,557,1,1,557,0,0,0.4,NaN,-0.379520459772084,-0.379520459772084,750,1,0,congruent,0,1841.98125568107,2352.14284513329
67,104,2,209,0.5,0.5,0.5,2,3,0.6,2,666,1,1,666,1,0,0.4,NaN,0.498476275015388,0.498476275015388,750,0,0,incongruent,1,3494.46690574557,4280.99458289777
67,104,2,210,0.5,0.5,-0.5,4,4,0.8,4,450,1,1,450,1,0,0.6,NaN,-1.24140716272859,-1.24140716272859,750,1,0,congruent,1,3423.12522223942,1223.95513050503
67,104,2,211,-0.5,-0.5,0,1,NaN,0.8,1,630,1,1,630,1,0,0.8,0.6,0.208495702058057,0.208495702058057,750,0,0,neutral,0.1,530.625454134165,1266.89611250624
67,104,2,214,0.5,-0.5,-0.5,3,3,0.4,3,667,1,1,667,0,0,1,NaN,0.506531290930869,0.506531290930869,750,1,0,congruent,0,1754.03319462753,4006.07806872719
67,104,2,215,-0.5,-0.5,-0.5,1,1,0.4,1,594,1,1,594,1,0,0.6,0.8,-0.0814848708992728,-0.0814848708992728,750,1,0,congruent,0.1,971.798232536531,1018.34720600519
67,104,2,216,-0.5,-0.5,0,4,NaN,0.4,4,726,1,1,726,1,0,0.4,0.8,0.981777229944272,0.981777229944272,750,0,0,neutral,0.1,706.616889091328,6684.49497376449
67,104,2,217,-0.5,-0.5,-0.5,2,2,0.4,2,637,1,1,637,0,0,0.4,1,0.264880813466427,0.264880813466427,750,1,0,congruent,0,4838.10891169974,1549.10356899794
67,104,2,218,0.5,0.5,0,3,NaN,0.4,3,468,1,1,468,1,0,0.4,NaN,-1.09641687624993,-1.09641687624993,750,0,0,neutral,1,774.451748495905,1889.48327714457
67,104,2,219,0.5,0.5,0.5,4,3,0.6,4,497,1,1,497,1,0,0.8,NaN,-0.862821414700968,-0.862821414700968,750,0,0,incongruent,1,2037.94303494827,1617.23009446148
67,104,2,220,-0.5,-0.5,0.5,2,4,0.6,2,690,1,1,690,1,0,1.2,0.8,0.691796656986941,0.691796656986941,750,0,0,incongruent,0.1,1559.11807989681,1964.03190286084
67,104,2,221,0.5,-0.5,-0.5,3,3,0.6,3,542,1,1,542,1,0,1.2,NaN,-0.500345698504305,-0.500345698504305,750,1,0,congruent,1,1339.99661545434,1916.02204897239
67,104,2,222,-0.5,-0.5,0,2,NaN,0.6,1,630,0,1,NaN,1,0,1.4,0.8,0.208495702058057,NaN,750,0,1,neutral,0.1,8020.4882141378,5903.83550467948
67,104,2,223,0.5,-0.5,0.5,4,1,0.6,4,798,1,0,798,0,0,1.6,NaN,1.56173837585893,1.56173837585893,750,0,0,incongruent,0,2798.2506482323,2767.25471201589
67,104,2,224,0.5,-0.5,0,3,NaN,0.6,3,537,1,1,537,0,0,1.2,NaN,-0.540620778081712,-0.540620778081712,750,0,0,neutral,0,2146.91878779628,4637.32826274841
67,104,2,225,0.5,0.5,-0.5,2,2,0.6,2,622,1,1,622,1,0,0.8,NaN,0.144055574734206,0.144055574734206,750,1,0,congruent,1,1478.55193240362,3960.73065801596
67,104,2,226,-0.5,-0.5,0.5,4,1,0.6,4,876,1,0,876,1,0,1,0.8,2.19002961726648,2.19002961726648,750,0,0,incongruent,0.1,539.038526792313,2241.09780376931
67,104,2,227,-0.5,-0.5,-0.5,3,3,0.6,3,312,1,1,312,1,0,0.8,0.8,-2.35299935906503,-2.35299935906503,750,1,0,congruent,0.1,1868.50688465705,1560.40428573251
67,104,2,228,-0.5,0.5,-0.5,2,2,0.6,2,357,1,1,357,1,0,0.8,0.8,-1.99052364286836,-1.99052364286836,750,1,0,congruent,0.1,2226.62112095144,1241.58009784514
67,104,2,229,-0.5,-0.5,0,4,NaN,0.8,4,757,1,0,757,1,0,1,0.8,1.23148272332419,1.23148272332419,750,0,0,neutral,0.1,949.352339810407,2296.93073231838
67,104,2,230,-0.5,-0.5,-0.5,1,1,0.8,1,572,1,1,572,1,0,1.2,1,-0.258695221039864,-0.258695221039864,750,1,0,congruent,0.1,4221.60753049493,1615.49899933385
67,104,2,231,0.5,-0.5,0.5,2,3,0.8,2,380,1,1,380,1,0,1,NaN,-1.80525827681229,-1.80525827681229,750,0,0,incongruent,1,6742.0724099351,1909.70979037454
67,104,2,232,0.5,-0.5,0.5,1,2,0.8,1,543,1,1,543,1,0,1.2,NaN,-0.492290682588824,-0.492290682588824,750,0,0,incongruent,1,2005.30577937669,983.948812325849
67,104,2,233,-0.5,-0.5,0,2,NaN,0.8,3,912,0,0,NaN,1,0,1.4,1,2.48001019022381,NaN,750,0,1,neutral,0.1,2233.52568161286,2315.11766290785
67,104,2,234,0.5,-0.5,-0.5,1,1,0.8,1,717,1,1,717,0,0,1.4,NaN,0.909282086704939,0.909282086704939,750,1,0,congruent,0,2573.77990379759,3110.26674611331
67,104,2,235,-0.5,-0.5,0.5,4,3,0.8,4,749,1,1,749,1,0,1.2,1,1.16704259600034,1.16704259600034,750,0,0,incongruent,0.1,3207.18049585261,2244.44171712
67,104,2,236,0.5,0.5,-0.5,2,2,0.8,2,453,1,1,453,1,0,1.2,NaN,-1.21724211498215,-1.21724211498215,750,1,0,congruent,1,405.365424334285,1993.38993087839
67,104,2,237,-0.5,0.5,0,3,NaN,1,3,674,1,1,674,1,0,1.2,0.8,0.562916402339239,0.562916402339239,750,0,0,neutral,0.1,3349.95004876207,6316.84818221695
67,104,2,238,-0.5,-0.5,0.5,2,1,1,2,816,1,0,816,1,0,1,1,1.7067286623376,1.7067286623376,750,0,0,incongruent,0.1,4649.40961440372,210.566622762614
67,104,2,239,-0.5,-0.5,0,4,NaN,1,4,599,1,1,599,1,0,1,1,-0.0412097913218658,-0.0412097913218658,750,0,0,neutral,0.1,1801.46852823419,4866.21276835253
67,104,2,240,0.5,-0.5,0.5,1,2,1,1,844,1,0,844,1,0,1.2,NaN,1.93226910797108,1.93226910797108,750,0,0,incongruent,1,2730.90299001289,1378.8877081453
67,104,2,241,0.5,-0.5,0,3,NaN,1,3,714,1,1,714,1,0,1.4,NaN,0.885117038958495,0.885117038958495,750,0,0,neutral,1,2266.20297967517,9016.75252528827
67,104,2,242,0.5,-0.5,-0.5,2,2,1,2,356,1,1,356,1,0,1.4,NaN,-1.99857865878385,-1.99857865878385,750,1,0,congruent,1,2993.52409815393,2059.04802193085
67,104,2,243,-0.5,-0.5,-0.5,1,1,1,1,669,1,1,669,1,0,1.6,1,0.522641322761832,0.522641322761832,750,1,0,congruent,0.1,4256.69893500748,1444.57678870969
67,104,2,244,-0.5,0.5,0.5,3,4,1,3,820,1,0,820,0,0,1.6,0.8,1.73894872599952,1.73894872599952,750,0,0,incongruent,0,513.45954233586,4056.90083090953
67,104,2,245,0.5,0.5,0.5,4,1,0.8,4,725,1,1,725,1,0,1.4,NaN,0.97372221402879,0.97372221402879,750,0,0,incongruent,1,1113.45667314772,1243.38244521744
67,104,2,246,-0.5,0.5,0.5,3,2,0.8,3,676,1,1,676,1,0,1.4,0.6,0.579026434170202,0.579026434170202,750,0,0,incongruent,0.1,1584.54310023154,3454.05748354304
67,104,2,248,-0.5,0.5,-0.5,1,1,0.8,1,554,1,1,554,1,0,1,0.6,-0.403685507518529,-0.403685507518529,750,1,0,congruent,0.1,1895.18806868021,2116.66508918631
67,104,2,249,-0.5,-0.5,-0.5,3,3,0.8,3,597,1,1,597,1,0,1,1,-0.0573198231528286,-0.0573198231528286,750,1,0,congruent,0.1,5142.86343268751,500.965935600568
67,104,2,250,0.5,0.5,0,4,NaN,0.8,4,574,1,1,574,1,0,1.2,NaN,-0.242585189208901,-0.242585189208901,750,0,0,neutral,1,984.52009239016,2606.0404090375
67,104,2,251,-0.5,-0.5,-0.5,1,1,0.8,1,585,1,1,585,1,0,1.2,1,-0.153980014138605,-0.153980014138605,750,1,0,congruent,0.1,3665.85545712984,493.298431362079
67,104,2,252,0.5,-0.5,-0.5,4,4,0.8,4,628,1,1,628,1,0,1.2,NaN,0.192385670227095,0.192385670227095,750,1,0,congruent,1,1511.58354855985,1564.79513047685
67,104,2,253,-0.5,0.5,0,3,NaN,0.8,3,565,1,1,565,1,0,1.4,0.8,-0.315080332448233,-0.315080332448233,750,0,0,neutral,0.1,1170.29472169197,1450.45946571802
67,104,2,254,-0.5,-0.5,0.5,4,3,1,4,589,1,1,589,1,0,1.4,1,-0.12175995047668,-0.12175995047668,750,0,0,incongruent,0.1,3762.33724197917,3628.26000847558
67,104,2,256,-0.5,0.5,-0.5,4,4,0.8,4,559,1,1,559,1,0,1,0.8,-0.363410427941122,-0.363410427941122,750,1,0,congruent,0.1,1569.88472506532,2135.00702224582
67,104,2,257,-0.5,0.5,-0.5,2,2,0.8,2,406,1,1,406,1,0,1,0.8,-1.59582786300978,-1.59582786300978,750,1,0,congruent,0.1,864.608602337961,1337.5051404475
67,104,2,259,-0.5,0.5,0.5,1,3,0.8,1,686,1,1,686,1,0,1,1,0.659576593325016,0.659576593325016,750,0,0,incongruent,0.1,1457.65819985444,4446.16933442758
67,104,2,260,0.5,0.5,0,3,NaN,0.8,3,626,1,1,626,1,0,1,NaN,0.176275638396132,0.176275638396132,750,0,0,neutral,1,1612.14136849701,4304.7027799077
67,104,2,261,0.5,-0.5,-0.5,4,4,0.8,4,734,1,1,734,1,0,1.4,NaN,1.04621735726812,1.04621735726812,750,1,0,congruent,1,697.981016891611,1608.05720146523
67,104,2,262,-0.5,0.5,0.5,3,2,0.8,3,769,1,0,769,0,0,1.6,1,1.32814291430997,1.32814291430997,750,0,0,incongruent,0,1741.33430747908,499.531373640429
67,104,2,263,-0.5,-0.5,0.5,2,3,0.8,2,694,1,1,694,1,0,1.4,1,0.724016720648867,0.724016720648867,750,0,0,incongruent,0.1,1157.26995048195,2421.10705062974
67,104,2,264,-0.5,0.5,-0.5,1,1,0.8,1,658,1,1,658,1,0,1.2,0.8,0.434036147691537,0.434036147691537,750,1,0,congruent,0.1,2493.15787074019,1511.52269391966
67,104,2,265,-0.5,0.5,-0.5,3,3,0.8,3,587,1,1,587,1,0,1.2,0.8,-0.137869982307643,-0.137869982307643,750,1,0,congruent,0.1,3935.86409589281,1847.89630899816
67,104,2,267,0.5,-0.5,0,1,NaN,0.8,1,659,1,1,659,1,0,1,NaN,0.442091163607018,0.442091163607018,750,0,0,neutral,1,982.044822011215,1865.27337126917
67,104,2,268,-0.5,-0.5,-0.5,3,3,0.8,3,529,1,1,529,1,0,1.4,1,-0.605060905405564,-0.605060905405564,750,1,0,congruent,0.1,1814.43178527662,2131.70505775592
67,104,2,269,-0.5,0.5,0,4,NaN,0.8,4,498,1,1,498,1,0,1.4,0.8,-0.854766398785487,-0.854766398785487,750,0,0,neutral,0.1,1630.10449548451,1742.84248121362
67,104,2,270,-0.5,0.5,-0.5,3,3,0.8,3,536,1,1,536,1,0,1.4,0.8,-0.548675793997194,-0.548675793997194,750,1,0,congruent,0.1,2749.17559039648,1398.79433045214
67,104,2,271,0.5,-0.5,0.5,1,4,0.8,1,676,1,1,676,1,0,1.4,NaN,0.579026434170202,0.579026434170202,750,0,0,incongruent,1,897.757984286481,3039.21978588801
67,104,2,272,-0.5,0.5,-0.5,2,2,0.8,2,647,1,1,647,1,0,1.4,0.8,0.345430972621241,0.345430972621241,750,1,0,congruent,0.1,2621.67482893438,3353.19147123991
67,104,2,273,0.5,0.5,0,4,NaN,1,4,673,1,1,673,1,0,1.2,NaN,0.554861386423757,0.554861386423757,750,0,0,neutral,1,1005.91794766551,2052.35116429401
67,104,2,274,0.5,-0.5,0.5,1,2,1,1,607,1,1,607,1,0,1.4,NaN,0.0232303360019853,0.0232303360019853,750,0,0,incongruent,1,2797.89344979124,1157.10565946404
67,104,2,275,-0.5,0.5,0.5,3,4,1,3,633,1,1,633,1,0,1.6,1,0.232660749804502,0.232660749804502,750,0,0,incongruent,0.1,1688.47322251095,1910.77106769951
67,104,2,276,-0.5,-0.5,0,4,NaN,1,4,775,1,0,775,1,0,1.6,1,1.37647300980286,1.37647300980286,750,0,0,neutral,0.1,3569.7529016152,4515.41596149202
67,104,2,277,0.5,-0.5,-0.5,3,3,1,3,575,1,1,575,1,0,1.4,NaN,-0.234530173293419,-0.234530173293419,750,1,0,congruent,1,2940.83732222465,1114.67859286123
67,104,2,278,-0.5,0.5,0,4,NaN,1,4,641,1,1,641,1,0,1.6,1,0.297100877128353,0.297100877128353,750,0,0,neutral,0.1,1208.46696192147,3305.07183887225
67,104,2,279,-0.5,-0.5,-0.5,1,1,1,1,559,1,1,559,1,0,1.4,1,-0.363410427941122,-0.363410427941122,750,1,0,congruent,0.1,425.158490687827,672.754704025553
67,104,2,280,-0.5,-0.5,0,3,NaN,1,3,531,1,1,531,1,0,1.2,1,-0.588950873574601,-0.588950873574601,750,0,0,neutral,0.1,742.015188664998,1378.08075327217
67,104,2,281,-0.5,0.5,0.5,4,3,1,4,537,1,1,537,1,0,1.2,1,-0.540620778081712,-0.540620778081712,750,0,0,incongruent,0.1,437.44412874853,3314.96129517012
67,104,2,282,-0.5,-0.5,0,2,NaN,1,2,576,1,1,576,1,0,1.2,1,-0.226475157377938,-0.226475157377938,750,0,0,neutral,0.1,2854.43832559446,4404.90533849024
67,104,2,283,0.5,0.5,-0.5,3,3,1,3,466,1,1,466,1,0,1,NaN,-1.11252690808089,-1.11252690808089,750,1,0,congruent,1,436.068982294825,687.414490583353
67,104,2,284,-0.5,-0.5,0,4,NaN,1,4,585,1,1,585,1,0,1.2,1,-0.153980014138605,-0.153980014138605,750,0,0,neutral,0.1,4104.04955511497,2119.31383513474
67,104,2,285,-0.5,0.5,0.5,3,4,1,3,525,1,1,525,1,0,1.2,1,-0.637280969067489,-0.637280969067489,750,0,0,incongruent,0.1,3389.71304185084,2417.16555168658
67,104,2,286,0.5,0.5,-0.5,1,1,1,1,547,1,1,547,1,0,1.2,NaN,-0.460070618926898,-0.460070618926898,750,1,0,congruent,1,2170.65251620195,1535.75867879833
67,104,2,287,-0.5,-0.5,-0.5,4,4,1,4,480,1,1,480,1,0,1.4,1,-0.999756685264152,-0.999756685264152,750,1,0,congruent,0.1,2854.28972378315,1547.80502942735
67,104,2,288,0.5,-0.5,-0.5,2,2,1,2,697,1,1,697,1,0,1.4,NaN,0.748181768395311,0.748181768395311,750,1,0,congruent,1,1483.36401999169,1087.82890763483
67,104,2,289,-0.5,-0.5,0.5,3,1,1,3,510,1,1,510,1,0,1.4,1,-0.75810620779971,-0.75810620779971,750,0,0,incongruent,0.1,2651.08165546096,1286.74326092646
67,104,2,290,0.5,0.5,0,4,NaN,1,4,542,1,1,542,1,0,1.4,NaN,-0.500345698504305,-0.500345698504305,750,0,0,neutral,1,4361.81525169719,1042.00434582495
67,104,2,291,-0.5,-0.5,-0.5,1,1,1,1,556,1,1,556,1,0,1.6,1,-0.387575475687566,-0.387575475687566,750,1,0,congruent,0.1,1722.40662293269,2342.00421703742
67,104,2,292,-0.5,-0.5,0,4,NaN,1,4,469,1,1,469,1,0,1.4,1,-1.08836186033445,-1.08836186033445,750,0,0,neutral,0.1,1303.86955285927,891.40151678195
67,104,2,293,0.5,-0.5,-0.5,1,1,1,1,772,1,0,772,1,0,1.4,NaN,1.35230796205642,1.35230796205642,750,1,0,congruent,1,1925.44640166246,6307.69958385025
67,104,2,294,-0.5,-0.5,0,2,NaN,1,2,735,1,1,735,1,0,1.4,1,1.0542723731836,1.0542723731836,750,0,0,neutral,0.1,3853.15472873035,1209.35526309776
67,104,2,295,0.5,-0.5,-0.5,4,4,1,4,544,1,1,544,1,0,1.4,NaN,-0.484235666673343,-0.484235666673343,750,1,0,congruent,1,1534.94302444339,2625.93502792056
67,104,2,296,0.5,-0.5,0.5,3,2,1,3,746,1,1,746,1,0,1.4,NaN,1.1428775482539,1.1428775482539,750,0,0,incongruent,1,1231.80606118664,2402.36157272227
67,104,2,297,0.5,0.5,0,4,NaN,1,4,571,1,1,571,1,0,1.6,NaN,-0.266750236955345,-0.266750236955345,750,0,0,neutral,1,563.644645843703,2257.3671004643
67,104,2,298,-0.5,0.5,-0.5,2,2,1,2,369,1,1,369,1,0,1.8,1,-1.89386345188259,-1.89386345188259,750,1,0,congruent,0.1,1885.83343839705,1579.93772201967
67,104,2,299,0.5,0.5,-0.5,4,4,1,4,450,1,1,450,1,0,1.6,NaN,-1.24140716272859,-1.24140716272859,750,1,0,congruent,1,312.17009707958,2177.99201499111
67,104,2,300,-0.5,0.5,-0.5,3,3,1,3,379,1,1,379,1,0,1.8,1,-1.81331329272777,-1.81331329272777,750,1,0,congruent,0.1,920.583411127365,1191.682286741
67,104,3,301,-0.5,0.5,0,4,NaN,1,4,754,1,0,754,0,0,1.6,1,1.20731767557775,1.20731767557775,750,0,0,neutral,0,3876.04845247595,1022.62346770559
67,104,3,302,0.5,-0.5,0.5,2,3,0.8,2,610,1,1,610,0,0,1.2,NaN,0.0473953837484295,0.0473953837484295,750,0,0,incongruent,0,1754.17152583185,1172.46207475518
67,104,3,303,0.5,-0.5,-0.5,4,4,0.8,4,670,1,1,670,1,0,0.8,NaN,0.530696338677313,0.530696338677313,750,1,0,congruent,1,1957.82309243032,2761.78364416812
67,104,3,304,-0.5,0.5,0.5,1,2,0.8,1,701,1,1,701,1,0,1,0.8,0.780401832057237,0.780401832057237,750,0,0,incongruent,0.1,1668.55851346739,1218.64286552693
67,104,3,305,0.5,-0.5,-0.5,4,4,0.8,4,521,1,1,521,0,0,0.8,NaN,-0.669501032729415,-0.669501032729415,750,1,0,congruent,0,6580.95891444418,2294.84645555119
67,104,3,306,0.5,-0.5,-0.5,1,1,0.8,1,476,1,1,476,1,0,0.6,NaN,-1.03197674892608,-1.03197674892608,750,1,0,congruent,1,3700.05288212569,1580.60518079798
67,104,3,307,0.5,-0.5,0.5,4,3,0.8,4,656,1,1,656,1,0,1,NaN,0.417926115860574,0.417926115860574,750,0,0,incongruent,1,4822.52210939717,2821.4637619777
67,104,3,308,0.5,-0.5,0.5,3,4,0.8,3,525,1,1,525,1,0,1.4,NaN,-0.637280969067489,-0.637280969067489,750,0,0,incongruent,1,5776.07414040565,1999.35057893139
67,104,3,309,-0.5,-0.5,-0.5,2,2,0.8,2,604,1,1,604,0,0,1.4,1,-0.000934711744458867,-0.000934711744458867,750,1,0,congruent,0,2201.44108324817,1518.56903499593
67,104,3,310,-0.5,-0.5,0,3,NaN,0.8,3,565,1,1,565,1,0,1.2,0.8,-0.315080332448233,-0.315080332448233,750,0,0,neutral,0.1,952.934655565624,3371.37114694537
67,104,3,311,0.5,0.5,-0.5,4,4,0.8,4,525,1,1,525,1,0,1.4,NaN,-0.637280969067489,-0.637280969067489,750,1,0,congruent,1,8013.60285055064,1636.88377317982
67,104,3,313,0.5,0.5,0,4,NaN,0.8,4,656,1,1,656,1,0,1.2,NaN,0.417926115860574,0.417926115860574,750,0,0,neutral,1,5370.52612883358,3232.46970833558
67,104,3,314,0.5,-0.5,0.5,1,4,0.8,1,636,1,1,636,0,0,1.2,NaN,0.256825797550946,0.256825797550946,750,0,0,incongruent,0,1259.30980263373,1520.05009852462
67,104,3,315,-0.5,-0.5,0,2,NaN,0.8,2,648,1,1,648,1,0,1.2,0.8,0.353485988536723,0.353485988536723,750,0,0,neutral,0.1,1681.6001678391,1116.25444167847
67,104,3,316,-0.5,0.5,0.5,1,4,0.8,4,692,0,1,NaN,0,0,1.2,0.8,0.707906688817904,NaN,750,1,0,incongruent,0,2196.31764853123,2309.52742449822
67,104,3,317,0.5,0.5,0.5,3,1,0.6,3,629,1,1,629,1,0,0.8,NaN,0.200440686142576,0.200440686142576,750,0,0,incongruent,1,2822.41160784002,2048.1786315691
67,104,3,318,0.5,0.5,-0.5,4,4,0.8,4,827,1,0,827,0,0,1,NaN,1.79533383740789,1.79533383740789,750,1,0,congruent,0,2302.1243529949,1541.53653518637
67,104,3,319,0.5,0.5,0,2,NaN,0.6,2,522,1,1,522,1,0,0.6,NaN,-0.661446016813933,-0.661446016813933,750,0,0,neutral,1,1604.63459062206,1679.03127514886
67,104,3,320,-0.5,-0.5,-0.5,1,1,0.6,1,467,1,1,467,0,0,1,0.8,-1.10447189216541,-1.10447189216541,750,1,0,congruent,0,1871.88380536108,2604.34251676592
67,104,3,321,-0.5,-0.5,0,2,NaN,0.6,2,549,1,1,549,1,0,0.8,0.6,-0.443960587095936,-0.443960587095936,750,0,0,neutral,0.1,2954.33701827464,762.311281720619
67,104,3,322,0.5,-0.5,0.5,3,1,0.6,3,648,1,1,648,0,0,1,NaN,0.353485988536723,0.353485988536723,750,0,0,incongruent,0,1997.45475665212,9745.43593298068
67,104,3,323,0.5,-0.5,0,1,NaN,0.6,1,543,1,1,543,1,0,0.6,NaN,-0.492290682588824,-0.492290682588824,750,0,0,neutral,1,1793.94411757694,2781.51972342888
67,104,3,324,-0.5,0.5,-0.5,4,4,0.6,4,511,1,1,511,1,0,1,0.6,-0.750051191884229,-0.750051191884229,750,1,0,congruent,0.1,1772.40961763468,654.335482806637
67,104,3,325,-0.5,-0.5,0,1,NaN,0.6,1,596,1,1,596,1,0,0.8,0.8,-0.06537483906831,-0.06537483906831,750,0,0,neutral,0.1,1379.77618053825,1447.21354903043
67,104,3,326,0.5,-0.5,-0.5,2,2,0.6,2,534,1,1,534,1,0,1,NaN,-0.564785825828157,-0.564785825828157,750,1,0,congruent,1,1176.99096664061,4201.92079561614
67,104,3,327,0.5,0.5,0.5,4,3,0.6,4,602,1,1,602,1,0,1.2,NaN,-0.0170447435754217,-0.0170447435754217,750,0,0,incongruent,1,4410.34154311472,6463.27508948591
67,104,3,328,0.5,0.5,-0.5,1,1,0.8,1,519,1,1,519,1,0,1.6,NaN,-0.685611064560378,-0.685611064560378,750,1,0,congruent,1,1529.70460714183,1114.5318488626
67,104,3,330,-0.5,-0.5,-0.5,3,3,0.8,3,538,1,1,538,1,0,1.4,0.8,-0.532565762166231,-0.532565762166231,750,1,0,congruent,0.1,1669.88430560744,1278.36504700432
67,104,3,331,0.5,-0.5,0.5,4,2,0.8,1,687,0,1,NaN,1,0,1.4,NaN,0.667631609240497,NaN,750,0,1,incongruent,1,11244.6849808542,1070.85412899183
67,104,3,332,-0.5,0.5,0.5,2,1,0.8,2,599,1,1,599,1,0,1.4,0.4,-0.0412097913218658,-0.0412097913218658,750,0,0,incongruent,0.1,2514.53120735736,1906.13087575423
67,104,3,333,0.5,0.5,0,1,NaN,0.8,1,543,1,1,543,1,0,1.2,NaN,-0.492290682588824,-0.492290682588824,750,0,0,neutral,1,4648.7994041795,2605.17143468605
67,104,3,334,-0.5,-0.5,-0.5,2,2,0.8,2,684,1,1,684,1,0,1.2,0.8,0.643466561494053,0.643466561494053,750,1,0,congruent,0.1,1208.50795350606,4364.42330630986
67,104,3,335,-0.5,-0.5,-0.5,3,3,0.8,3,470,1,1,470,0,0,1.4,0.8,-1.08030684441897,-1.08030684441897,750,1,0,congruent,0,1334.1458512512,2474.72270816051
67,104,3,336,-0.5,-0.5,0.5,1,2,0.8,1,601,1,1,601,1,0,1.2,0.8,-0.0250997594909031,-0.0250997594909031,750,0,0,incongruent,0.1,3323.02591646647,952.705503716644
67,104,3,337,0.5,-0.5,-0.5,4,4,0.8,4,631,1,1,631,1,0,1,NaN,0.216550717973539,0.216550717973539,750,1,0,congruent,1,800.173748701802,1790.76471029339
67,104,3,338,0.5,0.5,0.5,2,1,0.8,2,675,1,1,675,1,0,1.2,NaN,0.57097141825472,0.57097141825472,750,0,0,incongruent,1,552.899546800002,1624.97928266335
67,104,3,339,-0.5,-0.5,-0.5,4,4,0.8,4,559,1,1,559,1,0,1.2,0.8,-0.363410427941122,-0.363410427941122,750,1,0,congruent,0.1,1041.9380741165,2386.16747258249
67,104,3,340,-0.5,-0.5,-0.5,1,1,0.8,1,445,1,1,445,1,0,1.2,0.8,-1.281682242306,-1.281682242306,750,1,0,congruent,0.1,2402.35104873241,729.695520894598
67,104,3,341,0.5,0.5,-0.5,4,4,0.8,4,496,1,1,496,1,0,1.4,NaN,-0.87087643061645,-0.87087643061645,750,1,0,congruent,1,2560.46795033832,3620.20655296623
67,104,3,342,0.5,-0.5,0,3,NaN,0.8,3,552,1,1,552,1,0,1.6,NaN,-0.419795539349491,-0.419795539349491,750,0,0,neutral,1,775.570688479622,3029.58984873505
67,104,3,343,0.5,-0.5,0.5,1,2,0.8,1,527,1,1,527,1,0,1.6,NaN,-0.621170937236526,-0.621170937236526,750,0,0,incongruent,1,3646.89060035079,2037.99720987033
67,104,3,344,0.5,-0.5,0.5,4,3,0.8,4,558,1,1,558,0,0,1.6,NaN,-0.371465443856603,-0.371465443856603,750,0,0,incongruent,0,1202.45668722695,1314.27179780018
67,104,3,345,-0.5,0.5,-0.5,1,1,0.8,1,479,1,1,479,1,0,1.4,0.6,-1.00781170117963,-1.00781170117963,750,1,0,congruent,0.1,1514.26579632021,4637.86315147
67,104,3,346,-0.5,0.5,-0.5,3,3,1,3,458,1,1,458,1,0,1.4,0.6,-1.17696703540474,-1.17696703540474,750,1,0,congruent,0.1,2365.15205347416,554.113742679981
67,104,3,347,-0.5,0.5,-0.5,2,2,1,2,368,1,1,368,1,0,1.2,0.8,-1.90191846779807,-1.90191846779807,750,1,0,congruent,0.1,2242.38496445662,967.739068626497
67,104,3,348,0.5,0.5,0,3,NaN,1,3,545,1,1,545,1,0,1,NaN,-0.476180650757861,-0.476180650757861,750,0,0,neutral,1,1231.45144616904,3818.04264384777
67,104,3,349,0.5,0.5,0.5,1,3,1,1,726,1,1,726,1,0,1,NaN,0.981777229944272,0.981777229944272,750,0,0,incongruent,1,518.56280276466,2426.26461022875
67,104,3,350,0.5,0.5,-0.5,4,4,1,4,429,1,1,429,1,0,1.4,NaN,-1.4105624969537,-1.4105624969537,750,1,0,congruent,1,1391.22414351046,1544.01269826161
67,104,3,351,0.5,-0.5,0,2,NaN,1,2,714,1,1,714,1,0,1.6,NaN,0.885117038958495,0.885117038958495,750,0,0,neutral,1,1998.2479477173,2607.13373421245
67,104,3,352,-0.5,-0.5,0.5,1,4,1,1,617,1,1,617,1,0,1.8,0.8,0.103780495156799,0.103780495156799,750,0,0,incongruent,0.1,2226.73692929415,2414.01177616131
67,104,3,353,0.5,0.5,0.5,3,2,1,3,393,1,1,393,1,0,1.8,NaN,-1.70054306991103,-1.70054306991103,750,0,0,incongruent,1,8641.88508394919,1662.61134194474
67,104,3,354,0.5,0.5,0.5,1,3,1,1,957,1,0,957,0,0,1.8,NaN,2.84248590642047,2.84248590642047,750,0,0,incongruent,0,2320.53424884243,1886.80415385472
67,104,3,355,-0.5,0.5,0,2,NaN,0.8,2,652,1,1,652,1,0,1.4,0.8,0.385706052198648,0.385706052198648,750,0,0,neutral,0.1,678.321381479605,1797.62520504246
67,104,3,356,-0.5,0.5,-0.5,1,1,0.8,1,567,1,1,567,1,0,1.2,1,-0.298970300617271,-0.298970300617271,750,1,0,congruent,0.1,1210.60652051864,3215.71925731565
67,104,3,357,-0.5,-0.5,-0.5,2,2,0.8,2,534,1,1,534,0,0,1,0.8,-0.564785825828157,-0.564785825828157,750,1,0,congruent,0,1092.30476196865,3715.71023837694
67,104,3,359,0.5,-0.5,0.5,1,3,0.8,1,555,1,1,555,1,0,0.6,NaN,-0.395630491603047,-0.395630491603047,750,0,0,incongruent,1,2168.15108199932,1301.02491482902
67,104,3,361,0.5,-0.5,-0.5,3,3,0.6,3,555,1,1,555,1,0,0.8,NaN,-0.395630491603047,-0.395630491603047,750,1,0,congruent,1,2379.0480980646,894.647794816766
67,104,3,362,-0.5,0.5,0,4,NaN,0.6,4,585,1,1,585,1,0,1,0.8,-0.153980014138605,-0.153980014138605,750,0,0,neutral,0.1,4989.76127085366,1034.97063446408
67,104,3,363,-0.5,0.5,-0.5,1,1,0.6,1,588,1,1,588,1,0,1.2,0.8,-0.129814966392161,-0.129814966392161,750,1,0,congruent,0.1,6239.12320556806,1897.52796786925
67,104,3,364,-0.5,-0.5,-0.5,3,3,0.8,3,637,1,1,637,0,0,1.2,0.8,0.264880813466427,0.264880813466427,750,1,0,congruent,0,1711.81208288246,1413.63141347712
67,104,3,365,0.5,-0.5,-0.5,4,4,0.8,4,455,1,1,455,1,0,0.8,NaN,-1.20113208315119,-1.20113208315119,750,1,0,congruent,1,6149.91312456067,534.042910003069
67,104,3,366,0.5,0.5,0.5,3,2,0.8,3,583,1,1,583,1,0,1.2,NaN,-0.170090045969568,-0.170090045969568,750,0,0,incongruent,1,5985.75412287879,1508.45397373535
67,104,3,367,0.5,0.5,-0.5,1,1,0.8,1,504,1,1,504,1,0,1.2,NaN,-0.806436303292599,-0.806436303292599,750,1,0,congruent,1,4191.1281251713,4488.15070918017
67,104,3,368,-0.5,-0.5,0,4,NaN,0.8,4,425,1,1,425,1,0,1.4,0.6,-1.44278256061563,-1.44278256061563,750,0,0,neutral,0.1,483.236593430509,1622.44515818733
67,104,3,369,0.5,0.5,0.5,2,4,0.8,2,679,1,1,679,1,0,1.4,NaN,0.603191481916646,0.603191481916646,750,0,0,incongruent,1,1285.40938774142,2708.11882618083
67,104,3,370,-0.5,0.5,-0.5,3,3,1,3,469,1,1,469,1,0,1.8,0.8,-1.08836186033445,-1.08836186033445,750,1,0,congruent,0.1,1244.74335007031,1673.06613423117
67,104,3,371,0.5,0.5,-0.5,2,2,1,2,534,1,1,534,1,0,1.6,NaN,-0.564785825828157,-0.564785825828157,750,1,0,congruent,1,2086.98412340362,971.740688649791
67,104,3,372,-0.5,-0.5,0.5,1,4,1,1,699,1,1,699,1,0,1.6,0.6,0.764291800226274,0.764291800226274,750,0,0,incongruent,0.1,2922.80883345457,3432.32753434794
67,104,3,373,-0.5,-0.5,0.5,3,2,1,3,682,1,1,682,1,0,1.4,0.6,0.62735652966309,0.62735652966309,750,0,0,incongruent,0.1,3051.482067822,5527.08257075021
67,104,3,374,-0.5,0.5,-0.5,1,1,1,1,452,1,1,452,1,0,1.4,0.8,-1.22529713089763,-1.22529713089763,750,1,0,congruent,0.1,2819.19678391201,1115.56196578497
67,104,3,375,-0.5,0.5,-0.5,2,2,1,2,589,1,1,589,1,0,1.2,0.8,-0.12175995047668,-0.12175995047668,750,1,0,congruent,0.1,5517.47720263218,1617.52242484494
67,104,3,376,-0.5,0.5,0,3,NaN,1,3,566,1,1,566,1,0,1.2,1,-0.307025316532752,-0.307025316532752,750,0,0,neutral,0.1,651.12881726329,982.289449440625
67,104,3,377,0.5,-0.5,0.5,4,3,1,4,533,1,1,533,1,0,1,NaN,-0.572840841743638,-0.572840841743638,750,0,0,incongruent,1,447.346546987897,3507.33955050236
67,104,3,378,-0.5,0.5,0,1,NaN,1,1,503,1,1,503,1,0,1.2,1,-0.81449131920808,-0.81449131920808,750,0,0,neutral,0.1,5975.23965223666,1314.89690460296
67,104,3,379,0.5,-0.5,-0.5,4,4,1,4,419,1,1,419,1,0,1.2,NaN,-1.49111265610852,-1.49111265610852,750,1,0,congruent,1,2139.64192638715,2222.32783814048
67,104,3,380,0.5,-0.5,-0.5,1,1,1,1,488,1,1,488,1,0,1.4,NaN,-0.935316557940301,-0.935316557940301,750,1,0,congruent,1,2008.79010793705,1465.34327146091
67,104,3,381,0.5,0.5,0,3,NaN,1,3,603,1,1,603,1,0,1.6,NaN,-0.00898972765994026,-0.00898972765994026,750,0,0,neutral,1,2590.69726157276,2114.98268261921
67,104,3,382,0.5,0.5,-0.5,4,4,1,4,396,1,1,396,1,0,1.8,NaN,-1.67637802216459,-1.67637802216459,750,1,0,congruent,1,2163.81110776281,1840.62442648166
67,104,3,384,0.5,0.5,-0.5,4,4,1,4,356,1,1,356,1,0,1.8,NaN,-1.99857865878385,-1.99857865878385,750,1,0,congruent,1,3487.23127147028,1983.29133243815
67,104,3,385,-0.5,0.5,-0.5,1,1,1,1,533,1,1,533,1,0,1.8,1,-0.572840841743638,-0.572840841743638,750,1,0,congruent,0.1,4326.7088090702,1164.13489282521
67,104,3,386,-0.5,0.5,-0.5,2,2,1,2,516,1,1,516,1,0,1.6,1,-0.709776112306822,-0.709776112306822,750,1,0,congruent,0.1,580.952825781651,3008.9948137247
67,104,3,387,0.5,-0.5,0,3,NaN,1,3,549,1,1,549,1,0,1.4,NaN,-0.443960587095936,-0.443960587095936,750,0,0,neutral,1,4006.49260937443,847.974289490869
67,104,3,388,-0.5,-0.5,0.5,2,3,1,2,606,1,1,606,1,0,1.4,0.8,0.0151753200865039,0.0151753200865039,750,0,0,incongruent,0.1,999.606441742214,758.290757066352
67,104,3,389,0.5,-0.5,-0.5,4,4,1,4,574,1,1,574,1,0,1.4,NaN,-0.242585189208901,-0.242585189208901,750,1,0,congruent,1,1946.8524629749,1587.47733174782
67,104,3,390,0.5,0.5,0,3,NaN,1,3,454,1,1,454,1,0,1.4,NaN,-1.20918709906667,-1.20918709906667,750,0,0,neutral,1,994.389675740126,1357.90297354136
67,104,3,391,-0.5,0.5,-0.5,1,1,1,1,570,1,1,570,1,0,1.6,1,-0.274805252870826,-0.274805252870826,750,1,0,congruent,0.1,3043.40291289894,1679.75317964757
67,104,3,392,-0.5,-0.5,0,2,NaN,1,2,639,1,1,639,1,0,1.6,1,0.28099084529739,0.28099084529739,750,0,0,neutral,0.1,5003.64458949001,1947.84190922752
67,104,3,393,-0.5,0.5,-0.5,4,4,1,4,442,1,1,442,1,0,1.4,1,-1.30584729005245,-1.30584729005245,750,1,0,congruent,0.1,3019.15298193685,3402.47774194542
67,104,3,394,0.5,-0.5,-0.5,2,2,1,2,438,1,1,438,1,0,1.4,NaN,-1.33806735371437,-1.33806735371437,750,1,0,congruent,1,3492.34418015316,2126.86953454516
67,104,3,395,-0.5,0.5,0.5,3,4,1,3,546,1,1,546,1,0,1.4,1,-0.46812563484238,-0.46812563484238,750,0,0,incongruent,0.1,692.766085026285,844.100937666112
67,104,3,396,0.5,0.5,0.5,4,2,1,4,716,1,1,716,1,0,1.2,NaN,0.901227070789458,0.901227070789458,750,0,0,incongruent,1,1676.74770079711,703.851119230029
67,104,3,397,0.5,0.5,0,3,NaN,1,3,435,1,1,435,1,0,1.4,NaN,-1.36223240146081,-1.36223240146081,750,0,0,neutral,1,1464.72133306516,2839.86300725287
67,104,3,398,0.5,0.5,-0.5,4,4,1,4,517,1,1,517,1,0,1.6,NaN,-0.70172109639134,-0.70172109639134,750,1,0,congruent,1,2375.97510741926,1126.18153889536
67,104,3,399,0.5,0.5,0,3,NaN,1,3,479,1,1,479,1,0,1.8,NaN,-1.00781170117963,-1.00781170117963,750,0,0,neutral,1,4608.02427469373,2837.93642896995
67,104,3,400,-0.5,-0.5,-0.5,2,2,1,2,646,1,1,646,1,0,1.8,1,0.33737595670576,0.33737595670576,750,1,0,congruent,0.1,2410.44817942558,1621.99258910411
67,104,3,401,0.5,-0.5,0,1,NaN,1,1,658,1,1,658,1,0,1.8,NaN,0.434036147691537,0.434036147691537,750,0,0,neutral,1,1198.58618515268,5944.02238761851
67,104,3,402,0.5,-0.5,-0.5,2,2,1,2,609,1,1,609,1,0,1.8,NaN,0.0393403678329481,0.0393403678329481,750,1,0,congruent,1,2154.34925336089,5515.37306149122
67,104,3,403,0.5,0.5,0.5,4,3,1,4,526,1,1,526,1,0,1.8,NaN,-0.629225953152008,-0.629225953152008,750,0,0,incongruent,1,1772.31915853289,351.077776154083
67,104,3,404,-0.5,-0.5,-0.5,1,1,1,1,579,1,1,579,1,0,1.8,1,-0.202310109631494,-0.202310109631494,750,1,0,congruent,0.1,644.698364305379,4494.10046270925
67,104,3,405,-0.5,0.5,0.5,3,4,1,3,470,1,1,470,1,0,1.6,1,-1.08030684441897,-1.08030684441897,750,0,0,incongruent,0.1,1277.98608576926,1020.50150062508
67,104,3,406,-0.5,-0.5,0.5,4,1,1,4,875,1,0,875,1,0,1.6,1,2.181974601351,2.181974601351,750,0,0,incongruent,0.1,4561.93998989149,3460.9195552539
67,104,3,407,0.5,0.5,0,1,NaN,1,1,497,1,1,497,1,0,1.4,NaN,-0.862821414700968,-0.862821414700968,750,0,0,neutral,1,621.286367185333,3326.1104750128
67,104,3,408,-0.5,0.5,-0.5,4,4,1,4,500,1,1,500,1,0,1.4,1,-0.838656366954524,-0.838656366954524,750,1,0,congruent,0.1,2624.61006620518,1390.09768540914
67,104,3,409,-0.5,0.5,0,3,NaN,1,3,498,1,1,498,1,0,1.2,1,-0.854766398785487,-0.854766398785487,750,0,0,neutral,0.1,1283.93348140633,902.233558854727
67,104,3,410,-0.5,-0.5,-0.5,4,4,1,4,594,1,1,594,1,0,1.2,1,-0.0814848708992728,-0.0814848708992728,750,1,0,congruent,0.1,4039.92043295445,1532.69241598417
67,104,3,411,0.5,-0.5,0,3,NaN,1,3,390,1,1,390,1,0,1.2,NaN,-1.72470811765748,-1.72470811765748,750,0,0,neutral,1,2085.66221405195,1491.79822052271
67,104,3,412,-0.5,0.5,0.5,2,4,1,2,720,1,1,720,1,0,1.4,1,0.933447134451383,0.933447134451383,750,0,0,incongruent,0.1,2864.81571128482,2317.2990270595
67,104,3,413,0.5,-0.5,-0.5,3,3,1,3,455,1,1,455,1,0,1.2,NaN,-1.20113208315119,-1.20113208315119,750,1,0,congruent,1,782.779614178512,717.665343844787
67,104,3,414,-0.5,0.5,-0.5,1,1,1,1,515,1,1,515,1,0,1.4,1,-0.717831128222303,-0.717831128222303,750,1,0,congruent,0.1,1754.36016940243,1138.47245759725
67,104,3,415,0.5,0.5,-0.5,2,2,1,2,437,1,1,437,1,0,1.4,NaN,-1.34612236962985,-1.34612236962985,750,1,0,congruent,1,3926.70388624693,1700.73553596953
67,104,3,416,0.5,-0.5,0.5,1,4,1,1,657,1,1,657,1,0,1.6,NaN,0.425981131776055,0.425981131776055,750,0,0,incongruent,1,2874.25389907334,1273.23642897512
67,104,3,417,0.5,0.5,0.5,4,2,1,4,701,1,1,701,1,0,1.6,NaN,0.780401832057237,0.780401832057237,750,0,0,incongruent,1,1669.719347716,2220.81367789304
67,104,3,418,-0.5,0.5,0.5,1,3,1,1,608,1,1,608,1,0,1.8,1,0.0312853519174667,0.0312853519174667,750,0,0,incongruent,0.1,3118.01763591948,1899.96415116587
67,104,3,419,0.5,0.5,-0.5,4,4,1,4,470,1,1,470,1,0,1.6,NaN,-1.08030684441897,-1.08030684441897,750,1,0,congruent,1,3391.29624250904,3194.30831595979
67,104,3,420,-0.5,0.5,0.5,2,3,1,1,629,0,1,NaN,0,0,1.8,1,0.200440686142576,NaN,750,0,1,incongruent,0,6949.9306026493,3829.36854572844
67,104,3,421,0.5,-0.5,-0.5,4,4,0.8,4,475,1,1,475,1,0,1.4,NaN,-1.04003176484156,-1.04003176484156,750,1,0,congruent,1,2707.88270765046,1391.70844326493
67,104,3,422,-0.5,0.5,0.5,3,2,0.8,3,698,1,1,698,1,0,1.4,0.8,0.756236784310792,0.756236784310792,750,0,0,incongruent,0.1,3754.71785393181,1679.54069610905
67,104,3,423,0.5,0.5,0,4,NaN,0.8,4,720,1,1,720,1,0,1.2,NaN,0.933447134451383,0.933447134451383,750,0,0,neutral,1,3032.28378970587,4533.65110121802
67,104,3,424,0.5,0.5,0.5,1,4,0.8,1,681,1,1,681,1,0,1.4,NaN,0.619301513747609,0.619301513747609,750,0,0,incongruent,1,2029.37983623349,1187.94883619312
67,104,3,425,0.5,0.5,0.5,2,3,0.8,2,700,1,1,700,1,0,1.4,NaN,0.772346816141755,0.772346816141755,750,0,0,incongruent,1,2225.17178038135,2236.70436093566
67,104,3,426,0.5,-0.5,0,1,NaN,0.8,1,595,1,1,595,1,0,1.8,NaN,-0.0734298549837914,-0.0734298549837914,750,0,0,neutral,1,3016.73691982885,2617.04510504166
67,104,3,427,-0.5,0.5,0.5,4,3,0.8,4,545,1,1,545,1,0,1.8,0.8,-0.476180650757861,-0.476180650757861,750,0,0,incongruent,0.1,2067.22178834921,3380.96106810839
67,104,3,428,0.5,-0.5,0,2,NaN,1,2,726,1,1,726,1,0,1.8,NaN,0.981777229944272,0.981777229944272,750,0,0,neutral,1,3781.82444431994,1801.99098103944
67,104,3,429,0.5,0.5,-0.5,4,4,1,4,574,1,1,574,1,0,1.8,NaN,-0.242585189208901,-0.242585189208901,750,1,0,congruent,1,1706.75296997553,2269.03235331247
67,104,3,430,0.5,0.5,0,3,NaN,1,3,470,1,1,470,1,0,1.8,NaN,-1.08030684441897,-1.08030684441897,750,0,0,neutral,1,2472.78621807272,1276.40046139437
67,104,3,431,-0.5,-0.5,-0.5,4,4,1,4,568,1,1,568,1,0,1.8,1,-0.290915284701789,-0.290915284701789,750,1,0,congruent,0.1,917.870625570826,1215.94620995912
67,104,3,432,-0.5,-0.5,-0.5,2,2,1,2,782,1,0,782,1,0,1.6,1,1.43285812121123,1.43285812121123,750,1,0,congruent,0.1,1955.6216004217,2841.7963985148
67,104,3,433,0.5,0.5,0,3,NaN,1,3,670,1,1,670,1,0,1.6,NaN,0.530696338677313,0.530696338677313,750,0,0,neutral,1,2269.49314983744,4398.76613570375
67,104,3,434,-0.5,0.5,-0.5,1,1,1,1,528,1,1,528,1,0,1.6,0.8,-0.613115921321045,-0.613115921321045,750,1,0,congruent,0.1,1424.03673808309,2958.041634554
67,104,3,435,-0.5,0.5,0,3,NaN,1,3,533,1,1,533,1,0,1.4,0.8,-0.572840841743638,-0.572840841743638,750,0,0,neutral,0.1,876.499011933526,663.390852742806
67,104,3,436,-0.5,0.5,-0.5,1,1,1,1,625,1,1,625,1,0,1.2,0.8,0.16822062248065,0.16822062248065,750,1,0,congruent,0.1,1001.1001051555,4037.25018047007
67,104,3,437,0.5,-0.5,0,3,NaN,1,3,586,1,1,586,1,0,1.2,NaN,-0.145924998223124,-0.145924998223124,750,0,0,neutral,1,2746.89619877294,663.968452065505
67,104,3,438,0.5,0.5,-0.5,1,1,1,1,545,1,1,545,1,0,1.4,NaN,-0.476180650757861,-0.476180650757861,750,1,0,congruent,1,1181.56079340207,1107.14949899339
67,104,3,439,-0.5,-0.5,-0.5,2,2,1,2,642,1,1,642,1,0,1.4,1,0.305155893043834,0.305155893043834,750,1,0,congruent,0.1,2904.45111926064,5457.87456373375
67,104,3,440,0.5,-0.5,-0.5,1,1,1,1,523,1,1,523,1,0,1.4,NaN,-0.653391000898452,-0.653391000898452,750,1,0,congruent,1,1467.25744342325,662.946351953843
67,104,3,441,0.5,-0.5,0,3,NaN,1,3,562,1,1,562,1,0,1.6,NaN,-0.339245380194678,-0.339245380194678,750,0,0,neutral,1,5470.6106383781,998.09719878521
67,104,3,442,0.5,0.5,-0.5,4,4,1,4,583,1,1,583,1,0,1.8,NaN,-0.170090045969568,-0.170090045969568,750,1,0,congruent,1,6419.05778856618,1047.23312464748
67,104,3,443,0.5,0.5,0.5,2,1,1,2,581,1,1,581,1,0,1.8,NaN,-0.186200077800531,-0.186200077800531,750,0,0,incongruent,1,1951.4193779731,1763.7523028537
67,104,3,444,0.5,0.5,-0.5,4,4,1,4,784,1,0,784,0,0,1.8,NaN,1.44896815304219,1.44896815304219,750,1,0,congruent,0,2024.62342306088,1042.01047177995
67,104,3,445,0.5,-0.5,0,2,NaN,0.8,2,575,1,1,575,1,0,1.6,NaN,-0.234530173293419,-0.234530173293419,750,0,0,neutral,1,2066.28157548304,2859.675944489
67,104,3,446,-0.5,-0.5,-0.5,3,3,0.8,3,469,1,1,469,1,0,1.6,1,-1.08836186033445,-1.08836186033445,750,1,0,congruent,0.1,1981.82409070539,1723.52217888804
67,104,3,447,-0.5,0.5,0.5,4,2,0.8,4,738,1,1,738,1,0,1.4,1,1.07843742093005,1.07843742093005,750,0,0,incongruent,0.1,1072.97533714063,1965.54374720535
67,104,3,448,0.5,0.5,0,2,NaN,0.8,2,523,1,1,523,1,0,1.2,NaN,-0.653391000898452,-0.653391000898452,750,0,0,neutral,1,901.17984344471,1291.2412868412
67,104,3,449,-0.5,-0.5,-0.5,4,4,0.8,4,630,1,1,630,1,0,1.2,1,0.208495702058057,0.208495702058057,750,1,0,congruent,0.1,2385.37268558068,1274.38790135232
67,104,3,450,-0.5,-0.5,0.5,3,2,0.8,3,556,1,1,556,1,0,1.4,1,-0.387575475687566,-0.387575475687566,750,0,0,incongruent,0.1,2096.43322832991,1550.65488638856
67,104,4,451,-0.5,0.5,0.5,4,3,0.8,4,685,1,1,685,1,0,1.2,1,0.651521577409534,0.651521577409534,750,0,0,incongruent,0.1,3082.51466533841,4574.0935427454
67,104,4,452,-0.5,-0.5,0.5,1,4,0.8,1,651,1,1,651,1,0,1.2,1,0.377651036283167,0.377651036283167,750,0,0,incongruent,0.1,1987.74789283327,1007.79627965274
67,104,4,453,0.5,0.5,0.5,4,3,0.8,4,587,1,1,587,1,0,1.2,NaN,-0.137869982307643,-0.137869982307643,750,0,0,incongruent,1,2325.54555860038,1444.56023201283
67,104,4,454,0.5,-0.5,0.5,1,4,0.8,1,645,1,1,645,1,0,1.2,NaN,0.329320940790278,0.329320940790278,750,0,0,incongruent,1,6276.07704758647,1291.25268143122
67,104,4,455,0.5,-0.5,-0.5,2,2,0.8,2,546,1,1,546,1,0,1.4,NaN,-0.46812563484238,-0.46812563484238,750,1,0,congruent,1,2265.32589183851,1355.18233130043
67,104,4,456,0.5,-0.5,0.5,3,4,0.8,3,601,1,1,601,0,0,1.6,NaN,-0.0250997594909031,-0.0250997594909031,750,0,0,incongruent,0,3497.32451567458,1543.69976392359
67,104,4,457,-0.5,-0.5,0.5,1,2,0.8,1,546,1,1,546,0,0,1.4,1,-0.46812563484238,-0.46812563484238,750,0,0,incongruent,0,2595.76231409229,889.554295203402
67,104,4,458,-0.5,0.5,0,2,NaN,0.8,3,646,0,1,NaN,0,0,1.2,1,0.33737595670576,NaN,750,0,1,neutral,0,2299.55751522401,2169.48836216059
67,104,4,459,0.5,0.5,-0.5,3,3,0.8,3,502,1,1,502,1,0,0.8,NaN,-0.822546335123561,-0.822546335123561,750,1,0,congruent,1,457.362373795412,2109.03273346858
67,104,4,460,0.5,0.5,0,1,NaN,0.8,1,561,1,1,561,1,0,0.8,NaN,-0.347300396110159,-0.347300396110159,750,0,0,neutral,1,1234.17355240966,3477.61138655942
67,104,4,461,0.5,-0.5,0.5,2,4,0.8,2,737,1,1,737,0,0,0.8,NaN,1.07038240501457,1.07038240501457,750,0,0,incongruent,0,2986.62508489538,3718.92004155142
67,104,4,462,0.5,-0.5,0.5,4,3,0.8,4,633,1,1,633,1,0,0.8,NaN,0.232660749804502,0.232660749804502,750,0,0,incongruent,1,1227.24685567032,1148.09785322572
67,104,4,463,0.5,-0.5,0.5,3,4,0.8,3,548,1,1,548,1,0,1.2,NaN,-0.452015603011417,-0.452015603011417,750,0,0,incongruent,1,2163.88996836198,557.14501875162
67,104,4,464,0.5,0.5,0,4,NaN,0.8,4,612,1,1,612,1,0,1.6,NaN,0.0635054155793923,0.0635054155793923,750,0,0,neutral,1,3260.41443583394,1029.33849180568
67,104,4,465,-0.5,0.5,-0.5,1,1,0.8,1,510,1,1,510,1,0,1.6,0.8,-0.75810620779971,-0.75810620779971,750,1,0,congruent,0.1,1321.72151056589,1348.07577316006
67,104,4,466,-0.5,0.5,0,4,NaN,0.8,4,636,1,1,636,1,0,1.4,0.8,0.256825797550946,0.256825797550946,750,0,0,neutral,0.1,428.0778763591,4143.05926798191
67,104,4,467,-0.5,-0.5,-0.5,1,1,1,1,516,1,1,516,1,0,1.6,0.8,-0.709776112306822,-0.709776112306822,750,1,0,congruent,0.1,5029.62892376373,1626.2866188738
67,104,4,468,-0.5,0.5,-0.5,3,3,1,3,656,1,1,656,1,0,1.4,0.8,0.417926115860574,0.417926115860574,750,1,0,congruent,0.1,4698.51344059633,4946.60543487797
67,104,4,469,-0.5,0.5,-0.5,1,1,1,1,683,1,1,683,1,0,1.2,0.8,0.635411545578571,0.635411545578571,750,1,0,congruent,0.1,4263.38023373003,2496.01663989538
67,104,4,470,0.5,-0.5,-0.5,2,2,1,2,572,1,1,572,1,0,1,NaN,-0.258695221039864,-0.258695221039864,750,1,0,congruent,1,4667.87610282692,1662.83499314371
67,104,4,471,-0.5,-0.5,0,1,NaN,1,1,633,1,1,633,1,0,1.2,0.8,0.232660749804502,0.232660749804502,750,0,0,neutral,0.1,2500.90180445313,1024.78512467301
67,104,4,472,-0.5,0.5,0.5,2,4,1,2,662,1,1,662,1,0,1.2,0.8,0.466256211353462,0.466256211353462,750,0,0,incongruent,0.1,1947.55767723739,1854.03444652759
67,104,4,473,0.5,-0.5,0.5,4,2,1,1,978,0,0,NaN,1,0,1.2,NaN,3.01164124064558,NaN,750,0,1,incongruent,1,4289.8657901951,1328.68947747906
67,104,4,474,-0.5,-0.5,-0.5,1,1,1,1,562,1,1,562,1,0,1.4,0.8,-0.339245380194678,-0.339245380194678,750,1,0,congruent,0.1,1649.0327621549,999.505330959367
67,104,4,475,0.5,-0.5,0,2,NaN,1,2,566,1,1,566,1,0,1.4,NaN,-0.307025316532752,-0.307025316532752,750,0,0,neutral,1,8356.33474911263,1596.49766205045
67,104,4,476,-0.5,-0.5,-0.5,3,3,1,3,589,1,1,589,1,0,1.4,0.8,-0.12175995047668,-0.12175995047668,750,1,0,congruent,0.1,427.194024224119,2331.13906066497
67,104,4,477,0.5,0.5,0,1,NaN,1,1,564,1,1,564,1,0,1.4,NaN,-0.323135348363715,-0.323135348363715,750,0,0,neutral,1,3980.20846942297,1739.74207873828
67,104,4,478,-0.5,-0.5,-0.5,3,3,1,3,552,1,1,552,1,0,1.6,0.8,-0.419795539349491,-0.419795539349491,750,1,0,congruent,0.1,1368.90241583595,2489.5016821543
67,104,4,479,0.5,0.5,0.5,4,1,1,4,786,1,0,786,0,0,1.4,NaN,1.46507818487316,1.46507818487316,750,0,0,incongruent,0,4997.33377029535,4001.33256122486
67,104,4,480,-0.5,-0.5,0,3,NaN,0.8,3,424,1,1,424,1,0,1.2,1,-1.45083757653111,-1.45083757653111,750,0,0,neutral,0.1,1128.26209901373,1050.21997196666
67,104,4,481,0.5,0.5,-0.5,4,4,0.8,4,568,1,1,568,1,0,1,NaN,-0.290915284701789,-0.290915284701789,750,1,0,congruent,1,2194.04348298466,1013.11845877598
67,104,4,482,0.5,0.5,-0.5,1,1,0.8,1,504,1,1,504,1,0,1.2,NaN,-0.806436303292599,-0.806436303292599,750,1,0,congruent,1,364.319896605599,1841.03594510792
67,104,4,483,0.5,-0.5,0.5,2,4,0.8,2,355,1,1,355,0,0,1.2,NaN,-2.00663367469933,-2.00663367469933,750,0,0,incongruent,0,862.053799776467,3144.14532147033
67,104,4,484,-0.5,-0.5,-0.5,1,1,0.8,1,579,1,1,579,1,0,1,1,-0.202310109631494,-0.202310109631494,750,1,0,congruent,0.1,782.345528940118,1176.8313050206
67,104,4,485,0.5,-0.5,0.5,2,4,0.8,2,602,1,1,602,0,0,1.2,NaN,-0.0170447435754217,-0.0170447435754217,750,0,0,incongruent,0,1845.28867841062,4455.44881262
67,104,4,486,-0.5,-0.5,0.5,1,3,0.8,1,824,1,0,824,1,0,1,1,1.77116878966145,1.77116878966145,750,0,0,incongruent,0.1,2591.48348403273,3153.69670410956
67,104,4,487,-0.5,0.5,0.5,4,1,0.8,3,828,0,0,NaN,0,0,0.8,1,1.80338885332337,NaN,750,0,1,incongruent,0,3787.13227861526,3367.77426109833
67,104,4,488,0.5,0.5,-0.5,3,3,0.6,3,542,1,1,542,1,0,0.4,NaN,-0.500345698504305,-0.500345698504305,750,1,0,congruent,1,350.489510290073,1354.99827059512
67,104,4,489,-0.5,0.5,-0.5,1,1,0.6,1,456,1,1,456,1,0,0.8,0.8,-1.19307706723571,-1.19307706723571,750,1,0,congruent,0.1,3346.54263700784,582.171010834155
67,104,4,490,-0.5,-0.5,-0.5,2,2,0.8,2,478,1,1,478,1,0,0.8,1,-1.01586671709511,-1.01586671709511,750,1,0,congruent,0.1,1755.43644239545,1195.67752476056
67,104,4,491,-0.5,-0.5,-0.5,4,4,0.8,4,647,1,1,647,1,0,1,1,0.345430972621241,0.345430972621241,750,1,0,congruent,0.1,2520.62527309512,4642.14765816654
67,104,4,492,0.5,-0.5,0.5,1,3,0.8,1,645,1,1,645,1,0,1,NaN,0.329320940790278,0.329320940790278,750,0,0,incongruent,1,5046.47052384564,1641.46296868031
67,104,4,493,-0.5,-0.5,0,3,NaN,0.8,3,517,1,1,517,1,0,1.4,1,-0.70172109639134,-0.70172109639134,750,0,0,neutral,0.1,1344.96776957778,2359.09630655794
67,104,4,494,-0.5,-0.5,-0.5,1,1,0.8,1,771,1,0,771,1,0,1.2,1,1.34425294614093,1.34425294614093,750,1,0,congruent,0.1,3055.77723738122,6696.57096615885
67,104,4,495,0.5,-0.5,0.5,2,4,0.8,2,672,1,1,672,0,0,1.2,NaN,0.546806370508276,0.546806370508276,750,0,0,incongruent,0,2453.46421271104,1397.13454539487
67,104,4,496,0.5,0.5,-0.5,3,3,0.8,3,427,1,1,427,1,0,1,NaN,-1.42667252878467,-1.42667252878467,750,1,0,congruent,1,2287.66414066175,1387.34870653536
67,104,4,497,-0.5,0.5,0.5,4,2,0.8,4,781,1,0,781,0,0,1.2,0.8,1.42480310529575,1.42480310529575,750,0,0,incongruent,0,2515.34897901948,1559.81275573712
67,104,4,498,-0.5,-0.5,0,3,NaN,0.6,3,531,1,1,531,0,0,0.8,1,-0.588950873574601,-0.588950873574601,750,0,0,neutral,0,1886.43782734988,592.200201776338
67,104,4,499,0.5,-0.5,-0.5,1,1,0.6,1,531,1,1,531,1,0,0.6,NaN,-0.588950873574601,-0.588950873574601,750,1,0,congruent,1,1154.63152516098,5121.8167771224
67,104,4,500,-0.5,-0.5,0,2,NaN,0.6,2,724,1,1,724,0,0,0.8,0.8,0.965667198113309,0.965667198113309,750,0,0,neutral,0,1637.40473786279,757.732256419382
67,104,4,501,-0.5,0.5,-0.5,4,4,0.6,4,465,1,1,465,1,0,0.8,0.6,-1.12058192399637,-1.12058192399637,750,1,0,congruent,0.1,2269.94058634622,2775.44947503306
67,104,4,502,-0.5,0.5,0,2,NaN,0.8,2,602,1,1,602,1,0,0.6,0.6,-0.0170447435754217,-0.0170447435754217,750,0,0,neutral,0.1,1215.21400331253,472.204777902885
67,104,4,503,0.5,0.5,0.5,1,3,0.8,1,620,1,1,620,1,0,0.8,NaN,0.127945542903243,0.127945542903243,750,0,0,incongruent,1,2127.08130521929,3009.22250486122
67,104,4,504,-0.5,-0.5,0,2,NaN,0.8,2,556,1,1,556,1,0,1.2,0.6,-0.387575475687566,-0.387575475687566,750,0,0,neutral,0.1,3020.97043451007,2017.80947369195
67,104,4,505,0.5,-0.5,0.5,3,2,0.8,3,501,1,1,501,1,0,1,NaN,-0.830601351039043,-0.830601351039043,750,0,0,incongruent,1,1040.11891186576,2735.21907554261
67,104,4,506,-0.5,0.5,0,2,NaN,0.8,2,561,1,1,561,1,0,1.4,0.6,-0.347300396110159,-0.347300396110159,750,0,0,neutral,0.1,2828.30139540682,778.506675123538
67,104,4,507,0.5,0.5,0.5,4,2,0.8,4,652,1,1,652,1,0,1.4,NaN,0.385706052198648,0.385706052198648,750,0,0,incongruent,1,1335.36579226522,1100.69707943836
67,104,4,508,-0.5,-0.5,0.5,1,3,1,1,627,1,1,627,1,0,1.6,0.6,0.184330654311613,0.184330654311613,750,0,0,incongruent,0.1,4276.00711998304,976.184234850682
67,104,4,509,0.5,-0.5,-0.5,2,2,1,2,582,1,1,582,1,0,1.4,NaN,-0.17814506188505,-0.17814506188505,750,1,0,congruent,1,2090.84768885741,4590.19795665845
67,104,4,510,0.5,-0.5,0.5,3,1,1,3,489,1,1,489,1,0,1.6,NaN,-0.927261542024819,-0.927261542024819,750,0,0,incongruent,1,1110.89121347772,1074.26687396238
67,104,4,511,0.5,-0.5,-0.5,4,4,1,4,511,1,1,511,1,0,1.6,NaN,-0.750051191884229,-0.750051191884229,750,1,0,congruent,1,2566.52233237361,369.881312706116
67,104,4,512,-0.5,0.5,-0.5,1,1,1,1,505,1,1,505,1,0,1.8,0.8,-0.798381287377117,-0.798381287377117,750,1,0,congruent,0.1,982.894571914052,1461.22812705092
67,104,4,513,-0.5,-0.5,0,3,NaN,1,3,618,1,1,618,1,0,1.6,0.6,0.111835511072281,0.111835511072281,750,0,0,neutral,0.1,3415.61092890528,1258.62567950823
67,104,4,514,-0.5,-0.5,0.5,1,2,1,1,602,1,1,602,1,0,1.6,0.6,-0.0170447435754217,-0.0170447435754217,750,0,0,incongruent,0.1,2381.71832496385,1521.67146987156
67,104,4,515,-0.5,0.5,0,4,NaN,1,4,872,1,0,872,0,0,1.4,0.8,2.15780955360456,2.15780955360456,750,0,0,neutral,0,1988.9032038277,3934.59417080213
67,104,4,516,0.5,0.5,-0.5,2,2,0.8,2,441,1,1,441,1,0,1,NaN,-1.31390230596793,-1.31390230596793,750,1,0,congruent,1,772.698583685623,928.667329637519
67,104,4,517,0.5,-0.5,0.5,3,4,0.8,3,487,1,1,487,1,0,1,NaN,-0.943371573855782,-0.943371573855782,750,0,0,incongruent,1,2170.49114628088,4207.33188984628
67,104,4,518,0.5,-0.5,0.5,4,2,0.8,4,654,1,1,654,1,0,1.2,NaN,0.401816084029611,0.401816084029611,750,0,0,incongruent,1,3364.30492605291,1571.44089330791
67,104,4,519,0.5,-0.5,0.5,1,4,0.8,1,750,1,1,750,1,0,1.4,NaN,1.17509761191582,1.17509761191582,750,0,0,incongruent,1,3723.87947944809,4879.5512841388
67,104,4,520,-0.5,0.5,-0.5,3,3,0.8,3,525,1,1,525,1,0,1.6,0.8,-0.637280969067489,-0.637280969067489,750,1,0,congruent,0.1,1609.54943142939,2464.20439465942
67,104,4,521,0.5,-0.5,-0.5,4,4,0.8,4,711,1,1,711,0,0,1.8,NaN,0.860951991212051,0.860951991212051,750,1,0,congruent,0,1112.33937495378,2260.98503333514
67,104,4,522,-0.5,0.5,-0.5,2,2,0.8,2,530,1,1,530,1,0,1.4,0.8,-0.597005889490082,-0.597005889490082,750,1,0,congruent,0.1,1764.27317361092,3826.93341382568
67,104,4,523,0.5,0.5,0,4,NaN,0.8,4,658,1,1,658,1,0,1.2,NaN,0.434036147691537,0.434036147691537,750,0,0,neutral,1,1780.30383431474,3313.89054654574
67,104,4,524,0.5,0.5,0.5,1,4,0.8,1,772,1,0,772,0,0,1.2,NaN,1.35230796205642,1.35230796205642,750,0,0,incongruent,0,1367.57014484955,2351.15101055492
67,104,4,525,0.5,-0.5,0,3,NaN,0.8,3,436,1,1,436,1,0,0.8,NaN,-1.35417738554533,-1.35417738554533,750,0,0,neutral,1,1334.77868320391,1400.66737009634
67,104,4,526,0.5,-0.5,-0.5,2,2,0.8,2,632,1,1,632,1,0,1,NaN,0.22460573388902,0.22460573388902,750,1,0,congruent,1,554.395086008148,1028.22819220323
67,104,4,527,0.5,0.5,0.5,3,1,0.8,3,373,1,1,373,1,0,1.4,NaN,-1.86164338822066,-1.86164338822066,750,0,0,incongruent,1,1456.29916657902,1869.68059488625
67,104,4,528,0.5,-0.5,-0.5,2,2,0.8,1,389,0,1,NaN,1,0,1.6,NaN,-1.73276313357296,NaN,750,0,1,congruent,1,3203.00417627198,1734.63353531359
67,104,4,529,-0.5,0.5,0,4,NaN,0.8,3,439,0,1,NaN,0,0,1.6,0.8,-1.33001233779889,NaN,750,0,1,neutral,0,5705.5647693708,1044.96573451113
67,104,4,530,-0.5,0.5,0.5,3,2,0.6,3,415,1,1,415,1,0,1.6,0.6,-1.52333271977044,-1.52333271977044,750,0,0,incongruent,0.1,4290.33594726113,3414.97129980052
67,104,4,531,-0.5,-0.5,-0.5,1,1,0.6,1,642,1,1,642,0,0,1.4,0.8,0.305155893043834,0.305155893043834,750,1,0,congruent,0,1991.46078228439,1346.99154677001
67,104,4,532,-0.5,0.5,-0.5,2,2,0.6,2,609,1,1,609,1,0,1,0.6,0.0393403678329481,0.0393403678329481,750,1,0,congruent,0.1,1479.79004373845,968.193064647901
67,104,4,533,0.5,0.5,-0.5,4,4,0.6,4,784,1,0,784,0,0,0.8,NaN,1.44896815304219,1.44896815304219,750,1,0,congruent,0,2267.56210572332,5160.83672458554
67,104,4,534,0.5,0.5,0.5,2,3,0.6,2,660,1,1,660,1,0,0.4,NaN,0.450146179522499,0.450146179522499,750,0,0,incongruent,1,1952.07970410537,2894.25852629309
67,104,4,535,0.5,0.5,0,3,NaN,0.6,3,468,1,1,468,1,0,0.8,NaN,-1.09641687624993,-1.09641687624993,750,0,0,neutral,1,1112.53988160751,1605.3154036068
67,104,4,536,-0.5,0.5,0.5,2,4,0.8,4,353,0,1,NaN,0,0,1,0.8,-2.02274370653029,NaN,750,1,0,incongruent,0,4491.56596763088,978.08019569434
67,104,4,537,0.5,-0.5,0.5,4,1,0.6,4,871,1,0,871,1,0,1,NaN,2.14975453768907,2.14975453768907,750,0,0,incongruent,1,5568.10655880457,2892.11329649953
67,104,4,538,-0.5,0.5,0,3,NaN,0.6,3,411,1,1,411,1,0,1.2,0.6,-1.55555278343237,-1.55555278343237,750,0,0,neutral,0.1,459.62910658717,1865.32584435232
67,104,4,539,0.5,0.5,-0.5,1,1,0.6,1,549,1,1,549,1,0,1.4,NaN,-0.443960587095936,-0.443960587095936,750,1,0,congruent,1,2450.12450329857,1747.48173655989
67,104,4,540,0.5,0.5,0,4,NaN,0.8,4,756,1,0,756,0,0,1.4,NaN,1.22342770740871,1.22342770740871,750,0,0,neutral,0,3895.02090007468,3353.77191608087
67,104,4,541,-0.5,-0.5,-0.5,3,3,0.6,3,659,1,1,659,0,0,1,0.8,0.442091163607018,0.442091163607018,750,1,0,congruent,0,2973.97110290328,4073.14524859555
67,104,4,542,-0.5,0.5,-0.5,1,1,0.6,1,612,1,1,612,1,0,1,0.6,0.0635054155793923,0.0635054155793923,750,1,0,congruent,0.1,1976.28207979524,1401.80391915073
67,104,4,543,0.5,0.5,-0.5,2,2,0.6,2,382,1,1,382,1,0,0.8,NaN,-1.78914824498133,-1.78914824498133,750,1,0,congruent,1,1896.36387587436,3150.83563219084
67,104,4,544,-0.5,0.5,-0.5,3,3,0.8,3,538,1,1,538,1,0,1,0.8,-0.532565762166231,-0.532565762166231,750,1,0,congruent,0.1,2373.68461248622,2699.07490108158
67,104,4,545,0.5,0.5,-0.5,4,4,0.8,4,482,1,1,482,1,0,0.8,NaN,-0.983646653433189,-0.983646653433189,750,1,0,congruent,1,3352.0669174508,1397.73661867955
67,104,4,546,0.5,-0.5,-0.5,2,2,0.8,2,590,1,1,590,1,0,1.2,NaN,-0.113704934561198,-0.113704934561198,750,1,0,congruent,1,1921.33758309422,1202.17296096671
67,104,4,547,-0.5,0.5,-0.5,4,4,0.8,4,422,1,1,422,1,0,1.6,0.8,-1.46694760836207,-1.46694760836207,750,1,0,congruent,0.1,1208.77867511063,2555.17571738528
67,104,4,548,0.5,0.5,-0.5,3,3,1,3,399,1,1,399,1,0,1.6,NaN,-1.65221297441815,-1.65221297441815,750,1,0,congruent,1,1648.91362109009,912.97662683869
67,104,4,549,0.5,-0.5,0.5,2,1,1,2,675,1,1,675,1,0,1.6,NaN,0.57097141825472,0.57097141825472,750,0,0,incongruent,1,1998.78894338419,2387.3149289605
67,104,4,550,-0.5,0.5,0.5,4,3,1,4,499,1,1,499,1,0,1.8,0.8,-0.846711382870005,-0.846711382870005,750,0,0,incongruent,0.1,5929.49043790682,551.598297266551
67,104,4,551,-0.5,-0.5,-0.5,2,2,1,2,514,1,1,514,1,0,1.6,0.6,-0.725886144137785,-0.725886144137785,750,1,0,congruent,0.1,3121.16652252339,1035.25120225177
67,104,4,552,-0.5,-0.5,0,1,NaN,1,1,716,1,1,716,1,0,1.4,0.6,0.901227070789458,0.901227070789458,750,0,0,neutral,0.1,2089.42150434959,2247.56736387549
67,104,4,553,-0.5,-0.5,-0.5,4,4,1,4,543,1,1,543,1,0,1.4,0.6,-0.492290682588824,-0.492290682588824,750,1,0,congruent,0.1,3174.54880129735,2478.33342511556
67,104,4,554,-0.5,-0.5,0,1,NaN,1,1,566,1,1,566,1,0,1.2,0.6,-0.307025316532752,-0.307025316532752,750,0,0,neutral,0.1,2290.78764712034,1311.7664555346
67,104,4,555,-0.5,-0.5,0.5,4,1,1,4,472,1,1,472,1,0,1,0.8,-1.064196812588,-1.064196812588,750,0,0,incongruent,0.1,8989.82740118021,9255.22390443396
67,104,4,556,0.5,-0.5,0.5,1,3,1,1,489,1,1,489,1,0,1,NaN,-0.927261542024819,-0.927261542024819,750,0,0,incongruent,1,2266.57062845621,1508.1718319864
67,104,4,557,-0.5,0.5,0,3,NaN,1,3,589,1,1,589,1,0,1.2,1,-0.12175995047668,-0.12175995047668,750,0,0,neutral,0.1,5535.00073652817,1559.82310116107
67,104,4,558,0.5,-0.5,0.5,4,3,1,4,541,1,1,541,1,0,1.2,NaN,-0.508400714419787,-0.508400714419787,750,0,0,incongruent,1,1392.31108850569,5757.56182703139
67,104,4,559,0.5,-0.5,0,1,NaN,1,1,600,1,1,600,1,0,1.4,NaN,-0.0331547754063845,-0.0331547754063845,750,0,0,neutral,1,2289.57302407606,4049.43676242187
67,104,4,560,0.5,-0.5,-0.5,3,3,1,4,505,0,1,NaN,1,0,1.6,NaN,-0.798381287377117,NaN,750,0,1,congruent,1,7591.99800203127,2175.29489934678
67,104,4,561,0.5,-0.5,0,2,NaN,1,2,630,1,1,630,1,0,1.8,NaN,0.208495702058057,0.208495702058057,750,0,0,neutral,1,3988.80678334908,1649.5816851285
67,104,4,562,0.5,-0.5,0.5,1,2,1,1,771,1,0,771,1,0,1.8,NaN,1.34425294614093,1.34425294614093,750,0,0,incongruent,1,1758.87382038821,1218.37359187201
67,104,4,563,-0.5,-0.5,0,3,NaN,1,3,412,1,1,412,1,0,2,1,-1.54749776751689,-1.54749776751689,750,0,0,neutral,0.1,673.445285487988,2520.26856774229
67,104,4,564,-0.5,0.5,-0.5,4,4,1,4,372,1,1,372,1,0,1.8,1,-1.86969840413614,-1.86969840413614,750,1,0,congruent,0.1,1186.39439695218,2449.64304487728
67,104,4,565,-0.5,0.5,0,1,NaN,1,1,586,1,1,586,1,0,1.6,1,-0.145924998223124,-0.145924998223124,750,0,0,neutral,0.1,2790.18509214136,1666.25317834516
67,104,4,566,-0.5,-0.5,-0.5,2,2,1,2,575,1,1,575,1,0,1.4,1,-0.234530173293419,-0.234530173293419,750,1,0,congruent,0.1,3421.02740330544,1122.65233756626
67,104,4,567,0.5,-0.5,0.5,3,4,1,3,651,1,1,651,1,0,1.2,NaN,0.377651036283167,0.377651036283167,750,0,0,incongruent,1,3034.1215437039,2019.0637366832
67,104,4,568,-0.5,-0.5,0.5,4,2,1,4,595,1,1,595,1,0,1.2,1,-0.0734298549837914,-0.0734298549837914,750,0,0,incongruent,0.1,3095.47448044228,1712.6172616922
67,104,4,569,0.5,-0.5,0,2,NaN,1,2,450,1,1,450,1,0,1.2,NaN,-1.24140716272859,-1.24140716272859,750,0,0,neutral,1,4000.43822990143,3684.75685256866
67,104,4,570,-0.5,-0.5,-0.5,3,3,1,3,539,1,1,539,1,0,1.4,1,-0.52451074625075,-0.52451074625075,750,1,0,congruent,0.1,2595.73644411819,689.474986412699
67,104,4,571,-0.5,-0.5,-0.5,2,2,1,2,491,1,1,491,1,0,1.4,1,-0.911151510193857,-0.911151510193857,750,1,0,congruent,0.1,2142.72688783397,2247.33347325901
67,104,4,572,0.5,-0.5,0,1,NaN,1,1,497,1,1,497,1,0,1.4,NaN,-0.862821414700968,-0.862821414700968,750,0,0,neutral,1,1951.03086218744,1124.86887793393
67,104,4,573,0.5,0.5,0.5,2,4,1,2,487,1,1,487,1,0,1.4,NaN,-0.943371573855782,-0.943371573855782,750,0,0,incongruent,1,1678.19569055644,715.324467700405
67,104,4,574,-0.5,-0.5,-0.5,3,3,1,3,564,1,1,564,1,0,1.6,1,-0.323135348363715,-0.323135348363715,750,1,0,congruent,0.1,3180.17643799519,3832.96662780983
67,104,4,575,-0.5,0.5,0.5,2,4,1,2,827,1,0,827,0,0,1.4,1,1.79533383740789,1.79533383740789,750,0,0,incongruent,0,2201.78011298983,1885.19827650166
67,104,4,576,-0.5,0.5,0,3,NaN,0.8,3,552,1,1,552,1,0,1.2,0.8,-0.419795539349491,-0.419795539349491,750,0,0,neutral,0.1,1982.70638753803,5008.18566758271
67,104,4,577,0.5,0.5,-0.5,2,2,0.8,2,575,1,1,575,1,0,1.2,NaN,-0.234530173293419,-0.234530173293419,750,1,0,congruent,1,6199.83310326687,4497.41607804743
67,104,4,578,0.5,0.5,0.5,3,4,0.8,3,416,1,1,416,1,0,1.2,NaN,-1.51527770385496,-1.51527770385496,750,0,0,incongruent,1,1997.49018224242,2293.88456725132
67,104,4,579,0.5,-0.5,0,1,NaN,0.8,1,550,1,1,550,0,0,1.2,NaN,-0.435905571180454,-0.435905571180454,750,0,0,neutral,0,1233.0734993773,3366.64053100659
67,104,4,580,0.5,-0.5,-0.5,4,4,0.8,4,618,1,1,618,1,0,1,NaN,0.111835511072281,0.111835511072281,750,1,0,congruent,1,1291.69827332698,4512.51452779438
67,104,4,581,-0.5,-0.5,-0.5,2,2,0.8,2,832,1,0,832,1,0,1.4,1,1.8356089169853,1.8356089169853,750,1,0,congruent,0.1,1473.55873075347,2527.98384843649
67,104,4,582,0.5,-0.5,0,3,NaN,0.8,3,480,1,1,480,1,0,1.4,NaN,-0.999756685264152,-0.999756685264152,750,0,0,neutral,1,1217.11196589061,3294.82700289656
67,104,4,583,-0.5,-0.5,-0.5,2,2,0.8,2,476,1,1,476,0,0,1.4,1,-1.03197674892608,-1.03197674892608,750,1,0,congruent,0,1295.65597790676,1407.90138584504
67,104,4,584,-0.5,0.5,0,4,NaN,0.8,4,712,1,1,712,1,0,1,0.8,0.869007007127532,0.869007007127532,750,0,0,neutral,0.1,954.776763318983,2816.10891776731
67,104,4,585,-0.5,-0.5,-0.5,2,2,0.8,2,506,1,1,506,1,0,1.2,0.8,-0.790326271461636,-0.790326271461636,750,1,0,congruent,0.1,3591.02146076985,4715.11548117496
67,104,4,586,-0.5,-0.5,-0.5,3,3,0.8,3,500,1,1,500,1,0,1,0.8,-0.838656366954524,-0.838656366954524,750,1,0,congruent,0.1,1267.26888006892,1853.53863842694
67,104,4,587,0.5,-0.5,0,4,NaN,0.8,4,466,1,1,466,1,0,1,NaN,-1.11252690808089,-1.11252690808089,750,0,0,neutral,1,773.928479898331,1781.34065924599
67,104,4,588,-0.5,0.5,-0.5,1,1,0.8,1,650,1,1,650,1,0,1,0.8,0.369596020367685,0.369596020367685,750,1,0,congruent,0.1,1902.66633899012,3212.50115812617
67,104,4,589,0.5,0.5,-0.5,3,3,1,3,441,1,1,441,1,0,1.2,NaN,-1.31390230596793,-1.31390230596793,750,1,0,congruent,1,3349.53523043677,1563.39871045138
67,104,4,590,-0.5,-0.5,0,2,NaN,1,4,584,0,1,NaN,1,0,1.4,0.8,-0.162035030054087,NaN,750,0,1,neutral,0.1,5264.89625790549,1488.40674337013
67,104,4,591,0.5,-0.5,-0.5,4,4,1,4,574,1,1,574,1,0,1.4,NaN,-0.242585189208901,-0.242585189208901,750,1,0,congruent,1,3015.028992809,3128.30897926517
67,104,4,593,0.5,-0.5,-0.5,4,4,1,4,691,1,1,691,1,0,1.4,NaN,0.699851672902423,0.699851672902423,750,1,0,congruent,1,8535.26880835216,3246.63924281175
67,104,4,594,-0.5,0.5,-0.5,2,2,1,2,539,1,1,539,1,0,1.6,0.8,-0.52451074625075,-0.52451074625075,750,1,0,congruent,0.1,5988.47478036869,3661.66312926124
67,104,4,595,0.5,0.5,0.5,4,3,1,4,512,1,1,512,1,0,1.4,NaN,-0.741996175968747,-0.741996175968747,750,0,0,incongruent,1,5961.5725857434,3202.45328320958
67,104,4,596,-0.5,-0.5,-0.5,1,1,1,1,526,1,1,526,1,0,1.6,0.8,-0.629225953152008,-0.629225953152008,750,1,0,congruent,0.1,845.399697893079,1116.76972946807
67,104,4,597,0.5,0.5,0.5,4,2,1,4,672,1,1,672,1,0,1.4,NaN,0.546806370508276,0.546806370508276,750,0,0,incongruent,1,1614.63784593949,2448.84283688516
67,104,4,598,-0.5,0.5,-0.5,1,1,1,1,613,1,1,613,1,0,1.6,0.8,0.0715604314948737,0.0715604314948737,750,1,0,congruent,0.1,4542.838307608,2299.76352115039
67,104,4,599,-0.5,-0.5,0.5,2,3,1,2,683,1,1,683,1,0,1.4,1,0.635411545578571,0.635411545578571,750,0,0,incongruent,0.1,4536.90141378222,2595.50182952119
67,104,4,600,-0.5,-0.5,-0.5,4,4,1,4,525,1,1,525,1,0,1.4,1,-0.637280969067489,-0.637280969067489,750,1,0,congruent,0.1,972.201467662677,2397.13598822676
