subid,vers,block,trial,rewlvl,efflvl,congruency,targetresp,distractorresp,rollingefflvl,resp,rt,acc,fast,accrt,isrewarded,ismiss,runavgrrgen,runavgrrcond,zrt,acczrt,rtthreshold,isdisterror,isranderror,congruence,feedback,fcz_resp_theta,fcz_resp_theta_baseline
68,104,1,1,-0.5,0.5,0,1,NaN,0.9,1,519,1,1,519,1,0,0,0,-0.192259528863969,-0.192259528863969,750,0,0,neutral,0.1,1071.20416516603,739.443960002934
68,104,1,2,0.5,0.5,-0.5,4,4,0.9,4,466,1,1,466,1,0,0.2,NaN,-0.641297022770448,-0.641297022770448,750,1,0,congruent,1,2433.90757190303,2487.15101891343
68,104,1,3,-0.5,-0.5,0.5,1,2,0.9,1,560,1,1,560,1,0,0.6,0,0.155109098497647,0.155109098497647,750,0,0,incongruent,0.1,7008.65205891248,846.231688267908
68,104,1,4,0.5,-0.5,-0.5,3,3,0.9,3,701,1,1,701,1,0,0.8,NaN,1.34971828039979,1.34971828039979,750,1,0,congruent,1,417.654333577706,1234.13039572724
68,104,1,5,-0.5,0.5,-0.5,2,2,0.9,2,655,1,1,655,1,0,1.2,0.2,0.959987625311147,0.959987625311147,750,1,0,congruent,0.1,1496.21030088514,1646.6969751005
68,104,1,6,-0.5,0.5,0,1,NaN,0.9,1,410,1,1,410,1,0,1.4,0.4,-1.11575173331314,-1.11575173331314,750,0,0,neutral,0.1,1364.23709829605,1013.12621303144
68,104,1,7,0.5,-0.5,0.5,4,1,1,4,353,1,1,353,1,0,1.4,NaN,-1.59867884940124,-1.59867884940124,750,0,0,incongruent,1,5427.90518354423,1742.02104771757
68,104,1,8,-0.5,-0.5,0.5,2,3,1,2,615,1,1,615,1,0,1.4,0.2,0.621091403494936,0.621091403494936,750,0,0,incongruent,0.1,3467.99377938905,1640.91147993845
68,104,1,9,0.5,0.5,0.5,3,2,1,2,555,0,1,NaN,0,0,1.4,NaN,0.11274707077062,NaN,750,1,0,incongruent,0,3763.82001025572,2786.9469936681
68,104,1,10,-0.5,0.5,-0.5,1,1,0.8,1,528,1,1,528,1,0,1,0.6,-0.116007878955322,-0.116007878955322,750,1,0,congruent,0.1,896.113658698629,1116.81549909329
68,104,1,11,-0.5,-0.5,-0.5,4,4,0.8,4,573,1,1,573,1,0,1,0.4,0.265250370587915,0.265250370587915,750,1,0,congruent,0.1,700.760070427186,1095.80443234849
68,104,1,12,0.5,-0.5,-0.5,3,3,0.8,3,679,1,1,679,1,0,1,NaN,1.16332535840087,1.16332535840087,750,1,0,congruent,1,2803.77875377364,2974.90126055226
68,104,1,13,0.5,0.5,-0.5,1,1,0.8,1,458,1,1,458,1,0,1,NaN,-0.70907626713369,-0.70907626713369,750,1,0,congruent,1,674.252283636195,2390.49510392263
68,104,1,14,-0.5,-0.5,-0.5,2,2,0.8,2,601,1,1,601,1,0,1.2,0.6,0.502477725859263,0.502477725859263,750,1,0,congruent,0.1,418.312618818928,2324.71384261088
68,104,1,15,-0.5,0.5,-0.5,3,3,0.8,3,451,1,1,451,1,0,1.4,0.8,-0.768383105951527,-0.768383105951527,750,1,0,congruent,0.1,1692.76503810632,1042.62365737197
68,104,1,16,0.5,-0.5,-0.5,2,2,0.8,2,634,1,1,634,1,0,1.4,NaN,0.782067108857636,0.782067108857636,750,1,0,congruent,1,741.207473813653,2712.35291277994
68,104,1,17,-0.5,0.5,0.5,1,3,0.8,1,588,1,1,588,1,0,1.6,1,0.392336453768994,0.392336453768994,750,0,0,incongruent,0.1,2837.13379330773,778.39594131806
68,104,1,18,-0.5,0.5,-0.5,4,4,0.8,4,536,1,1,536,1,0,1.4,1,-0.0482286345920797,-0.0482286345920797,750,1,0,congruent,0.1,689.255996835726,3089.08645522549
68,104,1,19,0.5,0.5,0.5,2,3,1,3,750,0,1,NaN,0,0,1.2,NaN,1.76486615212465,NaN,750,1,0,incongruent,0,925.456661921776,741.381606527819
68,104,1,20,0.5,-0.5,0.5,1,4,0.8,1,854,1,0,854,0,0,1,NaN,2.64599632884679,2.64599632884679,750,0,0,incongruent,0,1311.52786953203,1396.59476679993
68,104,1,21,-0.5,0.5,-0.5,2,2,0.8,2,519,1,1,519,1,0,0.8,1,-0.192259528863969,-0.192259528863969,750,1,0,congruent,0.1,2317.80229229794,5211.9477354965
68,104,1,22,-0.5,-0.5,0,1,NaN,0.8,1,462,1,1,462,1,0,0.6,0.8,-0.675186644952069,-0.675186644952069,750,0,0,neutral,0.1,1933.83878561391,2382.03162184386
68,104,1,23,-0.5,-0.5,-0.5,2,2,0.8,2,678,1,1,678,1,0,0.6,1,1.15485295285547,1.15485295285547,750,1,0,congruent,0.1,2424.52745633284,2930.05648861728
68,104,1,24,-0.5,0.5,0.5,4,1,0.8,4,579,1,1,579,1,0,0.6,1,0.316084803860347,0.316084803860347,750,0,0,incongruent,0.1,1635.98026283835,799.558311634698
68,104,1,25,0.5,-0.5,0,1,NaN,0.8,1,471,1,1,471,0,0,0.8,NaN,-0.598934995043422,-0.598934995043422,750,0,0,neutral,0,520.505120623719,685.832549185833
68,104,1,26,-0.5,-0.5,0.5,3,2,0.8,3,782,1,0,782,1,0,0.8,1,2.03598312957762,2.03598312957762,750,0,0,incongruent,0.1,2768.39389583001,6296.59957711787
68,104,1,27,-0.5,0.5,0.5,2,4,0.8,3,558,0,1,NaN,0,0,0.8,1,0.138164287406836,NaN,750,0,1,incongruent,0,10753.1064769705,931.180634958976
68,104,1,28,0.5,-0.5,0,4,NaN,0.6,4,619,1,1,619,1,0,0.6,NaN,0.654981025676557,0.654981025676557,750,0,0,neutral,1,19174.3921566304,918.319594999683
68,104,1,29,0.5,-0.5,-0.5,3,3,0.6,3,728,1,1,728,1,0,0.8,NaN,1.57847323012573,1.57847323012573,750,1,0,congruent,1,4448.61008793745,1212.41993666818
68,104,1,30,0.5,-0.5,-0.5,1,1,0.6,1,489,1,1,489,1,0,1,NaN,-0.446431695226127,-0.446431695226127,750,1,0,congruent,1,2028.84366499357,423.805294885487
68,104,1,31,-0.5,-0.5,-0.5,2,2,0.6,2,696,1,1,696,1,0,1.4,1,1.30735625267276,1.30735625267276,750,1,0,congruent,0.1,2685.03251367708,1741.1677644412
68,104,1,32,-0.5,0.5,0,3,NaN,0.6,3,543,1,1,543,1,0,1.4,0.8,0.0110782042257572,0.0110782042257572,750,0,0,neutral,0.1,1177.77707656874,1695.17724147699
68,104,1,33,-0.5,-0.5,0.5,4,2,0.6,4,431,1,1,431,1,0,1.6,1,-0.937831216859632,-0.937831216859632,750,0,0,incongruent,0.1,3378.7627779081,811.225812180811
68,104,1,34,0.5,-0.5,0.5,3,4,0.6,3,513,1,1,513,1,0,1.4,NaN,-0.243093962136401,-0.243093962136401,750,0,0,incongruent,1,3512.30447685126,2734.00513719185
68,104,1,35,0.5,0.5,0,1,NaN,0.6,1,437,1,1,437,1,0,1.4,NaN,-0.886996783587201,-0.886996783587201,750,0,0,neutral,1,5687.07034715344,2480.94515400026
68,104,1,36,-0.5,-0.5,0.5,4,3,0.8,4,396,1,1,396,1,0,1.4,1,-1.23436541094882,-1.23436541094882,750,0,0,incongruent,0.1,2925.2782133039,1518.83142121977
68,104,1,37,0.5,-0.5,-0.5,1,1,0.8,1,510,1,1,510,1,0,1.4,NaN,-0.268511178772617,-0.268511178772617,750,1,0,congruent,1,845.376556375541,2424.27041233604
68,104,1,38,-0.5,0.5,0.5,2,4,0.8,2,825,1,0,825,0,0,1.6,0.8,2.40029656803004,2.40029656803004,750,0,0,incongruent,0,6108.79596127375,2304.85154870743
68,104,1,39,-0.5,-0.5,0.5,1,3,0.6,1,514,1,1,514,1,0,1.4,1,-0.234621556590995,-0.234621556590995,750,0,0,incongruent,0.1,2875.481289528,3820.15332271453
68,104,1,40,0.5,0.5,-0.5,4,4,0.6,4,426,1,1,426,1,0,1.2,NaN,-0.980193244586659,-0.980193244586659,750,1,0,congruent,1,1285.07007567945,2443.01737701065
68,104,1,41,0.5,-0.5,0,3,NaN,0.6,3,568,1,1,568,1,0,1.2,NaN,0.222888342860889,0.222888342860889,750,0,0,neutral,1,2163.10086276816,6195.37560228831
68,104,1,42,0.5,0.5,-0.5,1,1,0.6,1,543,1,1,543,1,0,1.4,NaN,0.0110782042257572,0.0110782042257572,750,1,0,congruent,1,4791.85862108525,866.333671459562
68,104,1,43,0.5,-0.5,0.5,2,3,0.8,2,740,1,1,740,1,0,1.4,NaN,1.68014209667059,1.68014209667059,750,0,0,incongruent,1,1061.75607536892,937.102616083506
68,104,1,44,0.5,-0.5,-0.5,4,4,0.8,4,499,1,1,499,0,0,1.8,NaN,-0.361707639772074,-0.361707639772074,750,1,0,congruent,0,7886.57880812595,2511.80742057019
68,104,1,45,0.5,-0.5,-0.5,1,1,0.8,1,487,1,1,487,1,0,1.6,NaN,-0.463376506316938,-0.463376506316938,750,1,0,congruent,1,762.970511227367,7640.74739068513
68,104,1,46,0.5,0.5,-0.5,4,4,0.8,1,708,0,1,NaN,0,0,1.6,NaN,1.40902511921763,NaN,750,0,1,congruent,0,2260.68383401606,2614.06855715537
68,104,1,47,0.5,0.5,0,3,NaN,0.6,3,570,1,1,570,1,0,1.2,NaN,0.239833153951699,0.239833153951699,750,0,0,neutral,1,2619.02089642488,6733.0027998342
68,104,1,48,-0.5,0.5,-0.5,4,4,0.6,4,508,1,1,508,1,0,1.2,0.6,-0.285455989863427,-0.285455989863427,750,1,0,congruent,0.1,2471.43991488336,2419.31176486186
68,104,1,49,-0.5,0.5,-0.5,1,1,0.8,1,497,1,1,497,1,0,1,0.6,-0.378652450862885,-0.378652450862885,750,1,0,congruent,0.1,2961.12650694674,1904.81586521855
68,104,1,50,-0.5,-0.5,0,2,NaN,0.8,2,529,1,1,529,0,0,1.2,1,-0.107535473409917,-0.107535473409917,750,0,0,neutral,0,1556.41061946798,2427.75706758545
68,104,1,51,0.5,-0.5,-0.5,4,4,0.8,4,475,1,1,475,1,0,0.8,NaN,-0.565045372861801,-0.565045372861801,750,1,0,congruent,1,2591.60298888091,2156.70824606623
68,104,1,52,-0.5,-0.5,0,1,NaN,0.8,1,412,1,1,412,1,0,1.2,0.8,-1.09880692222233,-1.09880692222233,750,0,0,neutral,0.1,747.963219248957,2770.87240427595
68,104,1,53,-0.5,-0.5,-0.5,3,3,0.8,3,504,1,1,504,1,0,1,0.8,-0.319345612045048,-0.319345612045048,750,1,0,congruent,0.1,968.147751339045,897.66207735142
68,104,1,54,0.5,0.5,-0.5,1,1,0.8,1,434,1,1,434,1,0,1,NaN,-0.912414000223417,-0.912414000223417,750,1,0,congruent,1,650.260467900338,1433.91163139584
68,104,1,55,-0.5,0.5,-0.5,3,3,0.8,3,546,1,1,546,1,0,1.2,0.6,0.036495420861973,0.036495420861973,750,1,0,congruent,0.1,1641.60693408745,1432.09223858304
68,104,1,56,0.5,-0.5,-0.5,2,2,1,2,626,1,1,626,1,0,1.4,NaN,0.714287864494394,0.714287864494394,750,1,0,congruent,1,6467.69118177759,1149.79389707305
68,104,1,57,-0.5,0.5,0,1,NaN,1,1,458,1,1,458,1,0,1.4,0.8,-0.70907626713369,-0.70907626713369,750,0,0,neutral,0.1,6900.55122545185,1605.29272474301
68,104,1,58,-0.5,0.5,0.5,3,4,1,3,547,1,1,547,1,0,1.4,0.8,0.0449678264073782,0.0449678264073782,750,0,0,incongruent,0.1,872.134463295679,2968.59294197212
68,104,1,59,-0.5,0.5,-0.5,1,1,1,1,457,1,1,457,1,0,1.4,1,-0.717548672679096,-0.717548672679096,750,1,0,congruent,0.1,1482.27086507803,807.064148046018
68,104,1,60,0.5,0.5,0.5,3,4,1,3,527,1,1,527,1,0,1.2,NaN,-0.124480284500727,-0.124480284500727,750,0,0,incongruent,1,3044.9169070176,1538.98738873231
68,104,1,61,0.5,-0.5,-0.5,1,1,1,1,457,1,1,457,1,0,1.4,NaN,-0.717548672679096,-0.717548672679096,750,1,0,congruent,1,1245.03345625096,1037.77538564712
68,104,1,62,-0.5,0.5,0.5,3,2,1,3,607,1,1,607,1,0,1.4,1,0.553312159131694,0.553312159131694,750,0,0,incongruent,0.1,3619.18032226481,1279.70107520783
68,104,1,63,-0.5,0.5,0,2,NaN,1,2,707,1,1,707,1,0,1.4,1,1.40055271367222,1.40055271367222,750,0,0,neutral,0.1,10432.5893705641,2423.43741870691
68,104,1,64,0.5,0.5,-0.5,4,4,1,4,551,1,1,551,1,0,1.4,NaN,0.0788574485889993,0.0788574485889993,750,1,0,congruent,1,3168.20071907334,1067.32574903324
68,104,1,65,0.5,0.5,-0.5,2,2,1,2,567,1,1,567,1,0,1.6,NaN,0.214415937315484,0.214415937315484,750,1,0,congruent,1,993.90808900572,456.729277971707
68,104,1,66,0.5,0.5,0.5,1,3,1,1,513,1,1,513,1,0,1.6,NaN,-0.243093962136401,-0.243093962136401,750,0,0,incongruent,1,1507.64289603441,1951.3395264371
68,104,1,67,-0.5,-0.5,0,4,NaN,1,1,450,0,1,NaN,1,0,1.6,0.8,-0.776855511496932,NaN,750,0,1,neutral,0.1,13705.8576543567,2314.58975341982
68,104,1,68,-0.5,0.5,0.5,1,3,1,1,482,1,1,482,1,0,1.6,1,-0.505738534043964,-0.505738534043964,750,0,0,incongruent,0.1,1951.72807529791,3417.00354360889
68,104,1,69,0.5,-0.5,0.5,3,4,1,3,578,1,1,578,1,0,1.6,NaN,0.307612398314941,0.307612398314941,750,0,0,incongruent,1,3765.13661228757,4089.33133644536
68,104,1,70,0.5,-0.5,0,2,NaN,1,2,559,1,1,559,1,0,1.6,NaN,0.146636692952241,0.146636692952241,750,0,0,neutral,1,3716.11590561044,1087.1065801275
68,104,1,71,-0.5,-0.5,-0.5,4,4,1,4,661,1,1,661,1,0,1.6,0.8,1.01082205858358,1.01082205858358,750,1,0,congruent,0.1,1246.22294862121,2744.4493099065
68,104,1,72,-0.5,0.5,0.5,1,3,1,1,503,1,1,503,1,0,1.4,1,-0.327818017590453,-0.327818017590453,750,0,0,incongruent,0.1,1038.05019266121,2566.28440443322
68,104,1,73,0.5,-0.5,0,4,NaN,1,1,439,0,1,NaN,1,0,1.4,NaN,-0.87005197249639,NaN,750,0,1,neutral,1,2523.93236955485,4538.74393465617
68,104,1,74,0.5,-0.5,0.5,1,4,1,1,562,1,1,562,1,0,1.6,NaN,0.172053909588457,0.172053909588457,750,0,0,incongruent,1,1721.0456020026,608.032649407113
68,104,1,75,-0.5,-0.5,0,4,NaN,1,4,614,1,1,614,1,0,1.6,0.8,0.612618997949531,0.612618997949531,750,0,0,neutral,0.1,3325.907922927,1162.85200413058
68,104,1,76,-0.5,0.5,-0.5,1,1,1,1,444,1,1,444,1,0,1.4,1,-0.827689944769364,-0.827689944769364,750,1,0,congruent,0.1,979.887450908418,1546.14777363079
68,104,1,77,-0.5,-0.5,0,4,NaN,1,4,562,1,1,562,1,0,1.4,1,0.172053909588457,0.172053909588457,750,0,0,neutral,0.1,7020.49890670895,997.884053021283
68,104,1,78,0.5,-0.5,-0.5,1,1,1,1,467,1,1,467,1,0,1.4,NaN,-0.632824617225043,-0.632824617225043,750,1,0,congruent,1,1638.49219394039,1257.91101019628
68,104,1,79,-0.5,0.5,0.5,3,4,1,3,550,1,1,550,1,0,1.4,1,0.070385043043594,0.070385043043594,750,0,0,incongruent,0.1,3126.18998001708,1263.15599451926
68,104,1,80,-0.5,0.5,-0.5,2,2,1,2,576,1,1,576,1,0,1.2,1,0.290667587224131,0.290667587224131,750,1,0,congruent,0.1,1418.22617333585,3136.4982653829
68,104,1,81,-0.5,0.5,-0.5,1,1,1,1,420,1,1,420,1,0,1.2,1,-1.03102767785909,-1.03102767785909,750,1,0,congruent,0.1,1859.73454405506,1394.86733514396
68,104,1,82,0.5,-0.5,-0.5,3,3,1,3,521,1,1,521,1,0,1.2,NaN,-0.175314717773159,-0.175314717773159,750,1,0,congruent,1,2354.969376849,2379.44266252181
68,104,1,83,0.5,-0.5,0,2,NaN,1,3,603,0,1,NaN,1,0,1.4,NaN,0.519422536950073,NaN,750,0,1,neutral,1,3795.55893655211,1628.79592647673
68,104,1,84,0.5,-0.5,0.5,4,3,1,4,485,1,1,485,1,0,1.4,NaN,-0.480321317407748,-0.480321317407748,750,0,0,incongruent,1,10469.3611969704,2028.13109532803
68,104,1,85,0.5,0.5,0.5,1,4,1,1,540,1,1,540,1,0,1.6,NaN,-0.0143390124104586,-0.0143390124104586,750,0,0,incongruent,1,9842.26987293909,2706.53384379675
68,104,1,86,0.5,-0.5,0,3,NaN,1,3,469,1,1,469,1,0,1.8,NaN,-0.615879806134232,-0.615879806134232,750,0,0,neutral,1,11817.9237019049,1637.10590868725
68,104,1,87,0.5,0.5,-0.5,1,1,1,1,507,1,1,507,1,0,2,NaN,-0.293928395408832,-0.293928395408832,750,1,0,congruent,1,3101.38312292834,5068.72407315519
68,104,1,88,0.5,-0.5,0.5,2,3,1,2,493,1,1,493,1,0,2,NaN,-0.412542073044506,-0.412542073044506,750,0,0,incongruent,1,2206.60648363723,4772.04772174178
68,104,1,89,-0.5,0.5,0.5,3,4,1,2,523,0,1,NaN,0,0,2,1,-0.158369906682348,NaN,750,0,1,incongruent,0,768.575960359523,1904.84312141928
68,104,1,90,-0.5,0.5,0.5,2,3,0.8,2,498,1,1,498,1,0,1.6,0.8,-0.37018004531748,-0.37018004531748,750,0,0,incongruent,0.1,1875.33223439795,963.753264549357
68,104,1,91,-0.5,-0.5,0.5,3,2,0.8,3,631,1,1,631,1,0,1.4,1,0.75664989222142,0.75664989222142,750,0,0,incongruent,0.1,1301.38777909032,4642.84256505695
68,104,1,92,-0.5,0.5,0,4,NaN,0.8,4,448,1,1,448,1,0,1.2,0.8,-0.793800322587743,-0.793800322587743,750,0,0,neutral,0.1,3709.17002220746,759.842297421016
68,104,1,93,-0.5,0.5,-0.5,3,3,0.8,3,489,1,1,489,1,0,1,0.8,-0.446431695226127,-0.446431695226127,750,1,0,congruent,0.1,392.456541178696,1577.93674975008
68,104,1,94,-0.5,0.5,0,2,NaN,0.8,2,553,1,1,553,1,0,0.8,0.8,0.0958022596798098,0.0958022596798098,750,0,0,neutral,0.1,2834.97911712034,2997.59293889467
68,104,1,95,0.5,-0.5,-0.5,4,4,0.8,3,605,0,1,NaN,1,0,1,NaN,0.536367348040884,NaN,750,0,1,congruent,1,4549.00888877348,1487.09636947644
68,104,1,96,-0.5,0.5,-0.5,3,3,0.8,3,673,1,1,673,1,0,1.2,0.8,1.11249092512844,1.11249092512844,750,1,0,congruent,0.1,3134.37071811893,798.634749365115
68,104,1,97,-0.5,0.5,-0.5,2,2,1,2,435,1,1,435,1,0,1.2,1,-0.903941594678011,-0.903941594678011,750,1,0,congruent,0.1,4894.70487851553,1278.52697571627
68,104,1,98,-0.5,-0.5,-0.5,1,1,1,1,500,1,1,500,1,0,1.2,1,-0.353235234226669,-0.353235234226669,750,1,0,congruent,0.1,2548.67279069062,1113.23245617337
68,104,1,99,-0.5,0.5,-0.5,2,2,1,2,472,1,1,472,1,0,1.2,1,-0.590462589498017,-0.590462589498017,750,1,0,congruent,0.1,1441.45931351104,855.987185206609
68,104,1,100,0.5,-0.5,0,3,NaN,1,1,426,0,1,NaN,1,0,1.2,NaN,-0.980193244586659,NaN,750,0,1,neutral,1,13876.5405550827,4072.68444675048
68,104,1,101,0.5,0.5,-0.5,1,1,1,1,514,1,1,514,1,0,1.2,NaN,-0.234621556590995,-0.234621556590995,750,1,0,congruent,1,3303.28929052496,1188.86624390764
68,104,1,103,-0.5,0.5,-0.5,2,2,1,2,553,1,1,553,1,0,1.4,1,0.0958022596798098,0.0958022596798098,750,1,0,congruent,0.1,976.774639193981,3837.8333147438
68,104,1,104,0.5,-0.5,0,3,NaN,1,3,683,1,1,683,1,0,1.4,NaN,1.19721498058249,1.19721498058249,750,0,0,neutral,1,4575.34588858495,1672.01596415903
68,104,1,105,-0.5,-0.5,-0.5,1,1,1,1,434,1,1,434,1,0,1.6,1,-0.912414000223417,-0.912414000223417,750,1,0,congruent,0.1,4014.18064172977,1689.14045783854
68,104,1,106,-0.5,-0.5,0.5,2,4,1,3,593,0,1,NaN,1,0,1.4,1,0.43469848149602,NaN,750,0,1,incongruent,0.1,4631.38059575265,935.687167477941
68,104,1,107,-0.5,0.5,0,4,NaN,1,4,628,1,1,628,1,0,1.2,1,0.731232675585205,0.731232675585205,750,0,0,neutral,0.1,8195.47809519718,517.027621700401
68,104,1,108,-0.5,-0.5,-0.5,2,2,1,2,634,1,1,634,1,0,1.2,1,0.782067108857636,0.782067108857636,750,1,0,congruent,0.1,4108.36466606153,3944.0862960176
68,104,1,109,-0.5,-0.5,-0.5,4,4,1,3,581,0,1,NaN,1,0,1.2,1,0.333029614951157,NaN,750,0,1,congruent,0.1,2641.70648767422,4332.5695981587
68,104,1,110,0.5,-0.5,0.5,1,2,1,1,599,1,1,599,1,0,1,NaN,0.485532914768452,0.485532914768452,750,0,0,incongruent,1,882.879447059238,3443.97323620463
68,104,1,111,-0.5,0.5,0,3,NaN,1,3,517,1,1,517,1,0,1.2,1,-0.20920433995478,-0.20920433995478,750,0,0,neutral,0.1,10560.4783503701,852.194898892825
68,104,1,112,-0.5,-0.5,0.5,1,4,1,4,309,0,1,NaN,1,0,1.2,1,-1.97146469339907,NaN,750,1,0,incongruent,0.1,1346.66278693214,959.092935809431
68,104,1,113,0.5,0.5,-0.5,3,3,1,3,430,1,1,430,1,0,1.2,NaN,-0.946303622405038,-0.946303622405038,750,1,0,congruent,1,3495.22490857376,2832.47352914351
68,104,1,114,-0.5,0.5,-0.5,1,1,1,1,432,1,1,432,1,0,1.4,1,-0.929358811314227,-0.929358811314227,750,1,0,congruent,0.1,788.882111570432,448.432582829273
68,104,1,115,-0.5,-0.5,0.5,4,3,1,4,242,1,1,242,1,0,1.4,1,-2.53911586494123,-2.53911586494123,750,0,0,incongruent,0.1,1839.07486518392,1083.67987637871
68,104,1,116,-0.5,0.5,-0.5,1,1,1,1,457,1,1,457,1,0,1.2,1,-0.717548672679096,-0.717548672679096,750,1,0,congruent,0.1,1658.82414328455,1948.97045626802
68,104,1,117,0.5,0.5,0.5,2,4,1,2,520,1,1,520,1,0,1.2,NaN,-0.183787123318564,-0.183787123318564,750,0,0,incongruent,1,1281.01806844704,1643.37466952707
68,104,1,118,-0.5,0.5,-0.5,3,3,1,3,585,1,1,585,1,0,1.4,1,0.366919237132778,0.366919237132778,750,1,0,congruent,0.1,4710.26614751296,2332.90372417756
68,104,1,119,0.5,0.5,0.5,1,2,1,1,449,1,1,449,1,0,1.2,NaN,-0.785327917042338,-0.785327917042338,750,0,0,incongruent,1,3843.09415636025,1608.69888771932
68,104,1,120,0.5,-0.5,0,2,NaN,1,4,287,0,1,NaN,1,0,1.4,NaN,-2.15785761539799,NaN,750,0,1,neutral,1,2964.03233444127,1933.7038363458
68,104,1,121,-0.5,-0.5,0.5,4,2,1,4,321,1,1,321,1,0,1.6,1,-1.86979582685421,-1.86979582685421,750,0,0,incongruent,0.1,739.352314127554,6598.47123743773
68,104,1,122,0.5,-0.5,0.5,1,4,1,1,601,1,1,601,1,0,1.6,NaN,0.502477725859263,0.502477725859263,750,0,0,incongruent,1,2281.57632441734,4153.16967963795
68,104,1,123,0.5,-0.5,-0.5,2,2,1,2,262,1,1,262,1,0,1.6,NaN,-2.36966775403312,-2.36966775403312,750,1,0,congruent,1,2029.32483414349,4136.59163561428
68,104,1,124,-0.5,0.5,-0.5,3,3,1,3,434,1,1,434,1,0,1.8,1,-0.912414000223417,-0.912414000223417,750,1,0,congruent,0.1,12047.9928392399,1181.13279916604
68,104,1,125,0.5,-0.5,0.5,2,1,1,2,562,1,1,562,1,0,1.6,NaN,0.172053909588457,0.172053909588457,750,0,0,incongruent,1,3600.88397947619,1029.56276978116
68,104,1,126,-0.5,0.5,0.5,1,3,1,1,356,1,1,356,1,0,1.6,1,-1.57326163276503,-1.57326163276503,750,0,0,incongruent,0.1,3914.43982104564,6432.9143787414
68,104,1,127,0.5,-0.5,0.5,4,2,1,4,268,1,1,268,1,0,1.6,NaN,-2.31883332076069,-2.31883332076069,750,0,0,incongruent,1,3349.94481927095,1556.70153191897
68,104,1,128,0.5,0.5,0,3,NaN,1,3,511,1,1,511,1,0,1.6,NaN,-0.260038773227211,-0.260038773227211,750,0,0,neutral,1,2284.84588359044,2037.41548561006
68,104,1,129,0.5,-0.5,-0.5,2,2,1,2,500,1,1,500,1,0,1.6,NaN,-0.353235234226669,-0.353235234226669,750,1,0,congruent,1,1856.46384060861,1034.65601574878
68,104,1,130,-0.5,0.5,0,4,NaN,1,1,435,0,1,NaN,0,0,1.8,1,-0.903941594678011,NaN,750,0,1,neutral,0,3474.8087286463,1333.62982982531
68,104,1,131,-0.5,-0.5,-0.5,1,1,0.8,1,487,1,1,487,1,0,1.4,1,-0.463376506316938,-0.463376506316938,750,1,0,congruent,0.1,2324.21413236914,3175.00562473454
68,104,1,132,0.5,0.5,-0.5,2,2,0.8,2,486,1,1,486,1,0,1.4,NaN,-0.471848911862343,-0.471848911862343,750,1,0,congruent,1,5109.06985376343,1119.26405536708
68,104,1,133,0.5,0.5,0.5,1,4,0.8,1,495,1,1,495,1,0,1.4,NaN,-0.395597261953695,-0.395597261953695,750,0,0,incongruent,1,1372.01050272807,3594.25701904614
68,104,1,134,0.5,-0.5,0.5,4,3,0.8,4,550,1,1,550,1,0,1.4,NaN,0.070385043043594,0.070385043043594,750,0,0,incongruent,1,2717.67371969955,1171.77050681222
68,104,1,135,-0.5,-0.5,0,1,NaN,0.8,1,483,1,1,483,1,0,1.4,1,-0.497266128498559,-0.497266128498559,750,0,0,neutral,0.1,1272.55463119823,1080.10387047647
68,104,1,136,0.5,-0.5,0.5,3,2,0.8,3,569,1,1,569,1,0,1.6,NaN,0.231360748406294,0.231360748406294,750,0,0,incongruent,1,1540.68952777734,3824.52682136127
68,104,1,137,-0.5,-0.5,0.5,2,3,0.8,2,518,1,1,518,1,0,1.8,1,-0.200731934409374,-0.200731934409374,750,0,0,incongruent,0.1,3847.82647422557,1421.98976759808
68,104,1,138,0.5,0.5,0.5,3,1,0.8,3,533,1,1,533,1,0,1.6,NaN,-0.0736458512282955,-0.0736458512282955,750,0,0,incongruent,1,4907.64463203684,1582.32819361165
68,104,1,139,0.5,-0.5,0.5,4,3,0.8,4,433,1,1,433,1,0,1.6,NaN,-0.920886405768822,-0.920886405768822,750,0,0,incongruent,1,1407.3713410573,4253.05742843045
68,104,1,140,-0.5,-0.5,0.5,2,4,0.8,3,542,0,1,NaN,1,0,1.6,1,0.00260579868035192,NaN,750,0,1,incongruent,0.1,3924.72509286947,833.127911208599
68,104,1,141,0.5,0.5,0.5,4,3,0.8,4,467,1,1,467,1,0,1.6,NaN,-0.632824617225043,-0.632824617225043,750,0,0,incongruent,1,1942.87133070046,3594.90569752835
68,104,1,142,0.5,0.5,0,1,NaN,0.8,1,457,1,1,457,1,0,1.6,NaN,-0.717548672679096,-0.717548672679096,750,0,0,neutral,1,3325.33990163468,1182.65896201806
68,104,1,143,-0.5,0.5,0.5,3,4,1,2,636,0,1,NaN,0,0,1.8,0.8,0.799011919948447,NaN,750,0,1,incongruent,0,4225.36435231004,1490.41407034806
68,104,1,144,-0.5,0.5,0,4,NaN,0.8,4,656,1,1,656,1,0,1.4,0.6,0.968460030856552,0.968460030856552,750,0,0,neutral,0.1,1658.54252855596,1302.89541198751
68,104,1,145,0.5,0.5,0.5,2,3,0.8,2,908,1,0,908,0,0,1.2,NaN,3.10350622829868,3.10350622829868,750,0,0,incongruent,0,2186.81105985489,605.28127093122
68,104,1,146,0.5,0.5,-0.5,4,4,0.6,4,524,1,1,524,1,0,1,NaN,-0.149897501136943,-0.149897501136943,750,1,0,congruent,1,3333.37749685885,1193.85546462404
68,104,1,147,0.5,0.5,-0.5,2,2,0.6,2,512,1,1,512,1,0,1,NaN,-0.251566367681806,-0.251566367681806,750,1,0,congruent,1,1434.62364108537,404.771300972128
68,104,1,148,-0.5,0.5,-0.5,1,1,0.6,1,443,1,1,443,1,0,1,0.6,-0.836162350314769,-0.836162350314769,750,1,0,congruent,0.1,6961.84311969857,761.119971724703
68,104,1,149,0.5,-0.5,0,2,NaN,0.8,1,502,0,1,NaN,1,0,1.2,NaN,-0.336290423135859,NaN,750,0,1,neutral,1,4130.71414960521,1922.91238696576
68,104,1,150,-0.5,-0.5,-0.5,1,1,0.8,1,453,1,1,453,1,0,1.4,1,-0.751438294860717,-0.751438294860717,750,1,0,congruent,0.1,1816.67878756409,4502.51340417834
68,104,2,151,-0.5,-0.5,0.5,3,2,0.8,2,434,0,1,NaN,1,0,1.6,1,-0.912414000223417,NaN,750,1,0,incongruent,0.1,1690.91590818668,1810.57257388507
68,104,2,152,0.5,-0.5,0.5,1,3,0.8,1,501,1,1,501,1,0,1.4,NaN,-0.344762828681264,-0.344762828681264,750,0,0,incongruent,1,3066.15533750472,1780.47883282173
68,104,2,153,0.5,0.5,0,2,NaN,0.8,2,540,1,1,540,1,0,1.4,NaN,-0.0143390124104586,-0.0143390124104586,750,0,0,neutral,1,1598.11963715611,2806.10870040479
68,104,2,154,-0.5,-0.5,-0.5,3,3,0.8,2,522,0,1,NaN,1,0,1.6,1,-0.166842312227753,NaN,750,0,1,congruent,0.1,3860.77489826921,4056.50330932871
68,104,2,155,-0.5,0.5,0.5,2,4,0.8,2,508,1,1,508,1,0,1.4,0.6,-0.285455989863427,-0.285455989863427,750,0,0,incongruent,0.1,2195.13828018625,982.057226634444
68,104,2,156,-0.5,0.5,0,1,NaN,1,1,425,1,1,425,1,0,1.4,0.6,-0.988665650132064,-0.988665650132064,750,0,0,neutral,0.1,1544.73408818308,619.323659221814
68,104,2,157,-0.5,-0.5,-0.5,4,4,1,4,377,1,1,377,1,0,1.4,1,-1.39534111631152,-1.39534111631152,750,1,0,congruent,0.1,2187.7744299546,1316.55319212341
68,104,2,158,-0.5,0.5,0,3,NaN,1,3,616,1,1,616,1,0,1.2,0.8,0.629563809040341,0.629563809040341,750,0,0,neutral,0.1,1287.76116880622,891.255556569869
68,104,2,159,-0.5,-0.5,-0.5,4,4,1,4,470,1,1,470,1,0,1,1,-0.607407400588827,-0.607407400588827,750,1,0,congruent,0.1,2026.34347516018,425.407985270477
68,104,2,160,0.5,-0.5,-0.5,3,3,1,2,536,0,1,NaN,1,0,1,NaN,-0.0482286345920797,NaN,750,0,1,congruent,1,1005.68049302338,1001.65424625372
68,104,2,161,-0.5,0.5,0,2,NaN,1,3,677,0,1,NaN,0,0,1.2,1,1.14638054731006,NaN,750,0,1,neutral,0,3396.24662641596,930.220828266895
68,104,2,162,0.5,-0.5,0.5,1,4,0.8,1,590,1,1,590,1,0,1,NaN,0.409281264859805,0.409281264859805,750,0,0,incongruent,1,3906.3906178821,1353.39955386717
68,104,2,163,0.5,-0.5,-0.5,3,3,0.8,3,543,1,1,543,1,0,1.2,NaN,0.0110782042257572,0.0110782042257572,750,1,0,congruent,1,4194.07262189868,3568.1454646274
68,104,2,164,0.5,0.5,0,2,NaN,0.8,4,569,0,1,NaN,0,0,1.4,NaN,0.231360748406294,NaN,750,0,1,neutral,0,7323.69275575425,2319.648782813
68,104,2,165,-0.5,-0.5,0.5,4,1,0.6,4,492,1,1,492,1,0,1.2,1,-0.421014478589911,-0.421014478589911,750,0,0,incongruent,0.1,3023.73074391536,1610.42878915852
68,104,2,166,0.5,-0.5,0.5,3,4,0.6,3,612,1,1,612,1,0,1,NaN,0.59567418685872,0.59567418685872,750,0,0,incongruent,1,1602.45369357664,2020.73582024098
68,104,2,167,-0.5,-0.5,0.5,4,2,0.6,4,469,1,1,469,0,0,1.4,1,-0.615879806134232,-0.615879806134232,750,0,0,incongruent,0,3403.18000677053,1692.92492275381
68,104,2,168,0.5,-0.5,0,1,NaN,0.6,1,456,1,1,456,0,0,1,NaN,-0.726021078224501,-0.726021078224501,750,0,0,neutral,0,1440.40659207845,3034.49336562907
68,104,2,169,-0.5,-0.5,-0.5,2,2,0.6,2,820,1,0,820,1,0,0.6,0.8,2.35793454030302,2.35793454030302,750,1,0,congruent,0.1,3365.88724614239,1295.1973884596
68,104,2,170,-0.5,0.5,0,4,NaN,0.6,1,472,0,1,NaN,0,0,0.8,0.8,-0.590462589498017,NaN,750,0,1,neutral,0,6225.89091004118,1145.2449207804
68,104,2,171,-0.5,-0.5,-0.5,3,3,0.4,3,603,1,1,603,0,0,0.6,0.8,0.519422536950073,0.519422536950073,750,1,0,congruent,0,1261.308350957,1377.64353213404
68,104,2,172,-0.5,-0.5,-0.5,1,1,0.4,1,548,1,1,548,0,0,0.2,0.6,0.0534402319527835,0.0534402319527835,750,1,0,congruent,0,1881.82463162694,1481.2933903839
68,104,2,173,-0.5,0.5,0.5,4,3,0.4,4,519,1,1,519,1,0,0.2,0.6,-0.192259528863969,-0.192259528863969,750,0,0,incongruent,0.1,381.95294845792,1625.45821673189
68,104,2,174,-0.5,0.5,0.5,2,4,0.4,3,872,0,0,NaN,0,0,0.4,0.6,2.79849962866409,NaN,750,0,1,incongruent,0,597.251061129852,1219.52723240571
68,104,2,175,-0.5,0.5,-0.5,3,3,0.2,3,689,1,1,689,1,0,0.2,0.4,1.24804941385493,1.24804941385493,750,1,0,congruent,0.1,9065.88008825216,1458.80773621413
68,104,2,176,-0.5,0.5,0.5,1,4,0.4,1,793,1,0,793,0,0,0.4,0.4,2.12917959057707,2.12917959057707,750,0,0,incongruent,0,2985.00139321087,853.740156715471
68,104,2,177,0.5,0.5,-0.5,3,3,0.4,2,581,0,1,NaN,0,0,0.4,NaN,0.333029614951157,NaN,750,0,1,congruent,0,6655.63925053469,1189.99937475908
68,104,2,178,-0.5,0.5,-0.5,4,4,0.4,4,471,1,1,471,1,0,0.4,0.4,-0.598934995043422,-0.598934995043422,750,1,0,congruent,0.1,1253.92563115386,2450.36738014277
68,104,2,179,-0.5,-0.5,0.5,1,3,0.4,4,251,0,1,NaN,0,0,0.4,0.4,-2.46286421503258,NaN,750,0,1,incongruent,0,3078.262153711,835.308080710065
68,104,2,180,-0.5,0.5,0.5,4,1,0.4,4,962,1,0,962,0,0,0.4,0.6,3.56101612775056,3.56101612775056,750,0,0,incongruent,0,1378.45955809739,1713.62746595759
68,104,2,181,0.5,-0.5,0.5,1,2,0.4,1,504,1,1,504,1,0,0.2,NaN,-0.319345612045048,-0.319345612045048,750,0,0,incongruent,1,1894.75899972453,4924.46384082196
68,104,2,182,-0.5,0.5,-0.5,3,3,0.4,3,514,1,1,514,1,0,0.6,0.4,-0.234621556590995,-0.234621556590995,750,1,0,congruent,0.1,1700.12869413792,2416.26186344708
68,104,2,183,-0.5,0.5,0,2,NaN,0.4,2,670,1,1,670,1,0,0.8,0.6,1.08707370849223,1.08707370849223,750,0,0,neutral,0.1,1686.41943756411,2856.06475298887
68,104,2,184,0.5,-0.5,-0.5,4,4,0.6,4,450,1,1,450,1,0,0.8,NaN,-0.776855511496932,-0.776855511496932,750,1,0,congruent,1,2938.5542986992,2328.67999796981
68,104,2,185,0.5,-0.5,0,3,NaN,0.6,3,518,1,1,518,1,0,1.2,NaN,-0.200731934409374,-0.200731934409374,750,0,0,neutral,1,1091.56020223602,2253.73096382974
68,104,2,186,-0.5,0.5,-0.5,4,4,0.6,4,415,1,1,415,1,0,1.6,0.6,-1.07338970558612,-1.07338970558612,750,1,0,congruent,0.1,3614.50233854807,3268.66841999939
68,104,2,187,0.5,-0.5,-0.5,1,1,0.8,1,496,1,1,496,0,0,1.4,NaN,-0.38712485640829,-0.38712485640829,750,1,0,congruent,0,2867.54460598394,1545.07050270688
68,104,2,188,0.5,0.5,0.5,3,4,0.8,3,536,1,1,536,1,0,1.2,NaN,-0.0482286345920797,-0.0482286345920797,750,0,0,incongruent,1,2117.69148736282,542.772396403386
68,104,2,189,-0.5,0.5,0,4,NaN,0.8,4,606,1,1,606,1,0,1.4,0.8,0.544839753586289,0.544839753586289,750,0,0,neutral,0.1,2082.16331900202,556.093443578732
68,104,2,190,0.5,-0.5,0.5,2,1,1,2,697,1,1,697,1,0,1.2,NaN,1.31582865821817,1.31582865821817,750,0,0,incongruent,1,5608.14550461637,407.645256792932
68,104,2,191,0.5,-0.5,0.5,3,2,1,2,449,0,1,NaN,1,0,1.2,NaN,-0.785327917042338,NaN,750,1,0,incongruent,1,8610.53271544524,1303.00664414655
68,104,2,192,0.5,-0.5,0.5,2,1,1,2,285,1,1,285,1,0,1.4,NaN,-2.1748024264888,-2.1748024264888,750,0,0,incongruent,1,3877.21708161925,2920.35310634149
68,104,2,193,0.5,-0.5,0.5,3,2,1,3,596,1,1,596,1,0,1.8,NaN,0.460115698132236,0.460115698132236,750,0,0,incongruent,1,2582.04917893457,4602.96699555274
68,104,2,194,-0.5,0.5,-0.5,4,4,1,4,409,1,1,409,1,0,1.8,0.8,-1.12422413885855,-1.12422413885855,750,1,0,congruent,0.1,2545.28479677696,520.593308554286
68,104,2,195,-0.5,0.5,0,3,NaN,1,3,508,1,1,508,1,0,1.8,1,-0.285455989863427,-0.285455989863427,750,0,0,neutral,0.1,9752.93231912829,4074.08799291372
68,104,2,196,0.5,0.5,-0.5,1,1,1,1,388,1,1,388,1,0,1.6,NaN,-1.30214465531206,-1.30214465531206,750,1,0,congruent,1,2151.52948268818,1268.27688992072
68,104,2,197,0.5,0.5,0,3,NaN,1,3,524,1,1,524,1,0,1.6,NaN,-0.149897501136943,-0.149897501136943,750,0,0,neutral,1,3049.29320694423,765.740964115744
68,104,2,198,-0.5,0.5,-0.5,1,1,1,1,805,1,0,805,0,0,1.6,1,2.23084845712194,2.23084845712194,750,1,0,congruent,0,1453.44460130772,814.747082133804
68,104,2,199,0.5,0.5,0,4,NaN,0.8,4,544,1,1,544,1,0,1.2,NaN,0.0195506097711624,0.0195506097711624,750,0,0,neutral,1,499.350201402806,1225.92150839334
68,104,2,200,0.5,0.5,0.5,2,3,0.8,2,558,1,1,558,1,0,1.4,NaN,0.138164287406836,0.138164287406836,750,0,0,incongruent,1,1222.4124640272,3568.14988224054
68,104,2,201,-0.5,-0.5,0,3,NaN,0.8,3,42,1,1,42,1,0,1.6,0.2,-4.23359697402228,-4.23359697402228,750,0,0,neutral,0.1,1440.73529742391,2483.35018002451
68,104,2,202,0.5,0.5,-0.5,2,2,0.8,2,436,1,1,436,1,0,1.4,NaN,-0.895469189132606,-0.895469189132606,750,1,0,congruent,1,858.070740243894,2467.34420308869
68,104,2,203,-0.5,0.5,-0.5,3,3,0.8,3,601,1,1,601,1,0,1.4,0.8,0.502477725859263,0.502477725859263,750,1,0,congruent,0.1,2254.49373987442,1045.67413906367
68,104,2,204,0.5,-0.5,0,2,NaN,0.8,2,678,1,1,678,1,0,1.6,NaN,1.15485295285547,1.15485295285547,750,0,0,neutral,1,2230.14813659212,5204.23877370356
68,104,2,205,0.5,0.5,0.5,1,2,0.8,1,507,1,1,507,1,0,1.6,NaN,-0.293928395408832,-0.293928395408832,750,0,0,incongruent,1,2075.88893044501,926.579620235329
68,104,2,206,-0.5,-0.5,0.5,4,1,1,4,615,1,1,615,1,0,1.6,0.4,0.621091403494936,0.621091403494936,750,0,0,incongruent,0.1,889.606191103901,1424.28181326459
68,104,2,207,-0.5,-0.5,-0.5,3,3,1,3,381,1,1,381,1,0,1.6,0.4,-1.3614514941299,-1.3614514941299,750,1,0,congruent,0.1,2890.70982971814,1791.97967940171
68,104,2,208,-0.5,0.5,-0.5,4,4,1,4,544,1,1,544,1,0,1.4,0.8,0.0195506097711624,0.0195506097711624,750,1,0,congruent,0.1,1469.81591133054,1020.32015533418
68,104,2,209,0.5,-0.5,-0.5,1,1,1,1,434,1,1,434,1,0,1.4,NaN,-0.912414000223417,-0.912414000223417,750,1,0,congruent,1,1835.48390679943,1033.11233620908
68,104,2,210,0.5,0.5,-0.5,3,3,1,3,691,1,1,691,1,0,1.4,NaN,1.26499422494574,1.26499422494574,750,1,0,congruent,1,7515.02853961225,1365.59975561397
68,104,2,211,-0.5,-0.5,0.5,1,2,1,1,394,1,1,394,1,0,1.4,0.6,-1.25131022203963,-1.25131022203963,750,0,0,incongruent,0.1,2182.32164094595,2289.61038646728
68,104,2,212,-0.5,0.5,-0.5,4,4,1,4,493,1,1,493,1,0,1.4,0.8,-0.412542073044506,-0.412542073044506,750,1,0,congruent,0.1,3943.92009332695,1045.18254956105
68,104,2,213,-0.5,0.5,0.5,3,1,1,4,672,0,1,NaN,0,0,1.4,0.8,1.10401851958304,NaN,750,0,1,incongruent,0,682.370614963704,5222.95060030188
68,104,2,214,0.5,-0.5,0,2,NaN,0.8,1,475,0,1,NaN,1,0,1.2,NaN,-0.565045372861801,NaN,750,0,1,neutral,1,2441.6525533556,2509.71104422489
68,104,2,215,0.5,-0.5,-0.5,3,3,0.8,2,527,0,1,NaN,1,0,1.2,NaN,-0.124480284500727,NaN,750,0,1,congruent,1,7962.2525658837,1890.29316310996
68,104,2,216,0.5,0.5,0,2,NaN,0.8,2,529,1,1,529,1,0,1.2,NaN,-0.107535473409917,-0.107535473409917,750,0,0,neutral,1,3519.74473717126,3774.80523333557
68,104,2,217,0.5,-0.5,-0.5,3,3,0.8,3,608,1,1,608,1,0,1.4,NaN,0.561784564677099,0.561784564677099,750,1,0,congruent,1,7193.75430557625,1011.47716153703
68,104,2,218,0.5,0.5,0,1,NaN,0.8,1,418,1,1,418,1,0,1.6,NaN,-1.0479724889499,-1.0479724889499,750,0,0,neutral,1,2532.70266848513,785.802503577607
68,104,2,219,0.5,0.5,-0.5,4,4,0.8,4,487,1,1,487,1,0,2,NaN,-0.463376506316938,-0.463376506316938,750,1,0,congruent,1,1020.49172564428,4193.90099026852
68,104,2,220,0.5,0.5,0.5,3,1,0.8,3,628,1,1,628,1,0,2,NaN,0.731232675585205,0.731232675585205,750,0,0,incongruent,1,4276.93440974734,427.198439839787
68,104,2,221,0.5,0.5,0.5,1,2,0.8,1,554,1,1,554,1,0,2,NaN,0.104274665225215,0.104274665225215,750,0,0,incongruent,1,5098.12234796565,2837.94753951416
68,104,2,222,-0.5,0.5,-0.5,3,3,1,3,553,1,1,553,1,0,2,0.6,0.0958022596798098,0.0958022596798098,750,1,0,congruent,0.1,4894.32053070387,2042.65495216472
68,104,2,223,0.5,-0.5,0.5,1,2,1,1,467,1,1,467,1,0,1.8,NaN,-0.632824617225043,-0.632824617225043,750,0,0,incongruent,1,2495.79031275929,407.738350869675
68,104,2,224,-0.5,0.5,0,4,NaN,1,4,534,1,1,534,1,0,1.8,0.8,-0.0651734456828902,-0.0651734456828902,750,0,0,neutral,0.1,2378.78151302252,1378.23123585171
68,104,2,225,-0.5,-0.5,-0.5,3,3,1,3,428,1,1,428,1,0,1.6,0.8,-0.963248433495848,-0.963248433495848,750,1,0,congruent,0.1,4379.33800216721,5230.3906111503
68,104,2,226,0.5,-0.5,0.5,1,2,1,1,493,1,1,493,1,0,1.4,NaN,-0.412542073044506,-0.412542073044506,750,0,0,incongruent,1,1198.05884960781,1592.27039629771
68,104,2,227,-0.5,-0.5,0,4,NaN,1,4,498,1,1,498,1,0,1.4,1,-0.37018004531748,-0.37018004531748,750,0,0,neutral,0.1,910.725623305722,1720.48234101787
68,104,2,228,0.5,0.5,-0.5,1,1,1,1,398,1,1,398,1,0,1.4,NaN,-1.21742059985801,-1.21742059985801,750,1,0,congruent,1,1945.99285913476,3390.45458073094
68,104,2,229,-0.5,0.5,0,2,NaN,1,2,546,1,1,546,1,0,1.4,0.8,0.036495420861973,0.036495420861973,750,0,0,neutral,0.1,1901.57217439347,1277.88453003886
68,104,2,230,-0.5,-0.5,-0.5,4,4,1,4,351,1,1,351,1,0,1.4,1,-1.61562366049205,-1.61562366049205,750,1,0,congruent,0.1,1385.84632345872,1032.74482921953
68,104,2,231,0.5,0.5,-0.5,2,2,1,2,349,1,1,349,1,0,1.4,NaN,-1.63256847158286,-1.63256847158286,750,1,0,congruent,1,5128.66150542831,1286.86297387206
68,104,2,232,0.5,-0.5,0.5,4,1,1,4,528,1,1,528,1,0,1.4,NaN,-0.116007878955322,-0.116007878955322,750,0,0,incongruent,1,1241.1916957508,1186.63282077772
68,104,2,233,-0.5,-0.5,0.5,2,3,1,2,491,1,1,491,1,0,1.6,1,-0.429486884135317,-0.429486884135317,750,0,0,incongruent,0.1,2565.15165141409,670.28253700451
68,104,2,234,-0.5,0.5,-0.5,1,1,1,1,491,1,1,491,1,0,1.4,0.8,-0.429486884135317,-0.429486884135317,750,1,0,congruent,0.1,3282.7536046384,1827.29717584597
68,104,2,235,0.5,-0.5,0,3,NaN,1,3,510,1,1,510,1,0,1.4,NaN,-0.268511178772617,-0.268511178772617,750,0,0,neutral,1,10506.3454445959,1698.35953461594
68,104,2,236,-0.5,-0.5,0.5,4,2,1,4,517,1,1,517,1,0,1.6,1,-0.20920433995478,-0.20920433995478,750,0,0,incongruent,0.1,1588.07937287139,1852.94748339658
68,104,2,237,-0.5,-0.5,0,2,NaN,1,2,591,1,1,591,1,0,1.4,1,0.41775367040521,0.41775367040521,750,0,0,neutral,0.1,3854.16385934669,1027.33445847717
68,104,2,238,0.5,0.5,-0.5,4,4,1,4,379,1,1,379,1,0,1.2,NaN,-1.37839630522071,-1.37839630522071,750,1,0,congruent,1,814.97905042033,1018.73616621981
68,104,2,239,-0.5,0.5,0.5,3,2,1,2,526,0,1,NaN,0,0,1.4,0.8,-0.132952690046132,NaN,750,1,0,incongruent,0,3708.82759503301,1779.92970177795
68,104,2,240,0.5,-0.5,-0.5,4,4,0.8,4,450,1,1,450,1,0,1.2,NaN,-0.776855511496932,-0.776855511496932,750,1,0,congruent,1,1307.52054780878,848.338749767899
68,104,2,241,-0.5,-0.5,0.5,3,1,0.8,3,617,1,1,617,1,0,1.2,1,0.638036214585747,0.638036214585747,750,0,0,incongruent,0.1,6934.26926295957,1905.49859991792
68,104,2,242,0.5,-0.5,-0.5,4,4,0.8,4,489,1,1,489,0,0,1.2,NaN,-0.446431695226127,-0.446431695226127,750,1,0,congruent,0,2119.49296905948,2977.85072353522
68,104,2,243,-0.5,-0.5,0,2,NaN,0.8,2,461,1,1,461,1,0,1,1,-0.683659050497474,-0.683659050497474,750,0,0,neutral,0.1,3304.26023803535,907.938955901672
68,104,2,244,-0.5,-0.5,0.5,1,3,0.8,1,599,1,1,599,1,0,0.8,1,0.485532914768452,0.485532914768452,750,0,0,incongruent,0.1,1308.01957381859,1725.68811042091
68,104,2,245,-0.5,-0.5,-0.5,2,2,0.8,4,279,0,1,NaN,1,0,1,1,-2.22563685976123,NaN,750,0,1,congruent,0.1,709.487463462478,806.210236983941
68,104,2,246,-0.5,-0.5,0,1,NaN,0.8,3,204,0,1,NaN,1,0,0.8,1,-2.86106727566663,NaN,750,0,1,neutral,0.1,2447.81998828585,967.819776512446
68,104,2,247,0.5,0.5,-0.5,3,3,0.8,3,669,1,1,669,1,0,0.8,NaN,1.07860130294682,1.07860130294682,750,1,0,congruent,1,939.836875198655,2475.8476309818
68,104,2,248,0.5,-0.5,0,2,NaN,0.8,2,565,1,1,565,1,0,1.2,NaN,0.197471126224673,0.197471126224673,750,0,0,neutral,1,2488.22196627905,1513.46243606373
68,104,2,249,0.5,-0.5,-0.5,1,1,0.8,1,488,1,1,488,1,0,1.4,NaN,-0.454904100771532,-0.454904100771532,750,1,0,congruent,1,2452.57245402147,1549.64034160722
68,104,2,250,-0.5,-0.5,-0.5,4,4,0.8,4,442,1,1,442,0,0,1.6,1,-0.844634755860174,-0.844634755860174,750,1,0,congruent,0,2066.69537204832,1430.9089217725
68,104,2,251,-0.5,-0.5,-0.5,3,3,0.8,3,484,1,1,484,1,0,1.4,0.8,-0.488793722953153,-0.488793722953153,750,1,0,congruent,0.1,793.063417313995,870.891529493195
68,104,2,252,-0.5,0.5,-0.5,1,1,0.8,1,481,1,1,481,1,0,1.4,0.8,-0.514210939589369,-0.514210939589369,750,1,0,congruent,0.1,2515.84321532755,1050.15140412315
68,104,2,253,0.5,-0.5,-0.5,2,2,0.8,2,617,1,1,617,1,0,1.2,NaN,0.638036214585747,0.638036214585747,750,1,0,congruent,1,25485.9745791806,2803.06009696787
68,104,2,254,0.5,0.5,0,4,NaN,0.8,4,644,1,1,644,1,0,1.2,NaN,0.866791164311689,0.866791164311689,750,0,0,neutral,1,2673.7987643842,13366.8475776945
68,104,2,255,-0.5,-0.5,-0.5,2,2,0.8,2,490,1,1,490,1,0,1.2,0.8,-0.437959289680722,-0.437959289680722,750,1,0,congruent,0.1,2955.84002356221,2049.2415703747
68,104,2,256,-0.5,-0.5,-0.5,4,4,0.8,4,506,1,1,506,1,0,1.4,0.8,-0.302400800954238,-0.302400800954238,750,1,0,congruent,0.1,6134.15855938527,3052.90621952092
68,104,2,257,-0.5,-0.5,0,2,NaN,0.8,2,599,1,1,599,1,0,1.4,0.8,0.485532914768452,0.485532914768452,750,0,0,neutral,0.1,1746.86301455162,462.048359969973
68,104,2,258,0.5,-0.5,-0.5,1,1,0.8,1,543,1,1,543,1,0,1.4,NaN,0.0110782042257572,0.0110782042257572,750,1,0,congruent,1,948.384636567465,1436.00664468654
68,104,2,259,-0.5,-0.5,-0.5,3,3,0.8,4,203,0,1,NaN,0,0,1.4,0.8,-2.86953968121203,NaN,750,0,1,congruent,0,2347.55227562022,1970.32325498765
68,104,2,260,-0.5,0.5,-0.5,2,2,0.8,2,398,1,1,398,1,0,1,0.8,-1.21742059985801,-1.21742059985801,750,1,0,congruent,0.1,1128.32287566448,1423.96204483246
68,104,2,261,0.5,-0.5,-0.5,3,3,0.8,2,585,0,1,NaN,1,0,1,NaN,0.366919237132778,NaN,750,0,1,congruent,1,5185.26339788821,1208.66941936575
68,104,2,262,-0.5,0.5,0,1,NaN,0.8,1,485,1,1,485,1,0,1.2,0.8,-0.480321317407748,-0.480321317407748,750,0,0,neutral,0.1,1586.66652672287,2123.45173717359
68,104,2,263,-0.5,-0.5,0.5,3,4,1,3,327,1,1,327,1,0,1.2,0.8,-1.81896139358178,-1.81896139358178,750,0,0,incongruent,0.1,2731.3505534341,1579.4407306805
68,104,2,264,-0.5,0.5,0.5,4,3,1,4,524,1,1,524,1,0,1,0.8,-0.149897501136943,-0.149897501136943,750,0,0,incongruent,0.1,1660.06064825765,904.37727874146
68,104,2,265,0.5,0.5,-0.5,1,1,1,1,434,1,1,434,1,0,1.2,NaN,-0.912414000223417,-0.912414000223417,750,1,0,congruent,1,1370.92395972032,1954.29956411837
68,104,2,266,0.5,0.5,0.5,4,2,1,4,522,1,1,522,1,0,1.4,NaN,-0.166842312227753,-0.166842312227753,750,0,0,incongruent,1,2791.64365971032,2521.18384055207
68,104,2,267,0.5,-0.5,0.5,1,3,1,1,469,1,1,469,1,0,1.4,NaN,-0.615879806134232,-0.615879806134232,750,0,0,incongruent,1,7095.52420907047,1571.6390424821
68,104,2,268,0.5,0.5,0.5,2,4,1,2,588,1,1,588,1,0,1.6,NaN,0.392336453768994,0.392336453768994,750,0,0,incongruent,1,2149.38526332613,1289.45753230419
68,104,2,269,0.5,-0.5,0.5,1,2,1,2,410,0,1,NaN,1,0,1.8,NaN,-1.11575173331314,NaN,750,1,0,incongruent,1,14105.0250479554,3293.70113794968
68,104,2,270,0.5,-0.5,0.5,3,4,1,4,540,0,1,NaN,1,0,2,NaN,-0.0143390124104586,NaN,750,1,0,incongruent,1,1361.59146809492,1461.37710234995
68,104,2,271,-0.5,0.5,0.5,1,3,1,1,452,1,1,452,1,0,2,0.8,-0.759910700406122,-0.759910700406122,750,0,0,incongruent,0.1,1411.68270880947,3459.48931473477
68,104,2,272,0.5,0.5,0.5,2,4,1,2,504,1,1,504,1,0,1.8,NaN,-0.319345612045048,-0.319345612045048,750,0,0,incongruent,1,840.738293290617,2355.61280997446
68,104,2,273,0.5,0.5,-0.5,1,1,1,1,477,1,1,477,1,0,1.8,NaN,-0.54810056177099,-0.54810056177099,750,1,0,congruent,1,1626.71309518339,1859.44787452851
68,104,2,274,0.5,-0.5,0,2,NaN,1,1,458,0,1,NaN,1,0,1.8,NaN,-0.70907626713369,NaN,750,0,1,neutral,1,11307.1208689962,1130.08383655727
68,104,2,275,-0.5,0.5,-0.5,4,4,1,4,445,1,1,445,1,0,1.8,1,-0.819217539223959,-0.819217539223959,750,1,0,congruent,0.1,1736.81970614649,2406.2842107453
68,104,2,276,-0.5,-0.5,0.5,1,2,1,3,181,0,1,NaN,1,0,1.6,0.8,-3.05593260321095,NaN,750,0,1,incongruent,0.1,3052.16546427721,5072.33922689884
68,104,2,277,0.5,-0.5,0,4,NaN,1,4,545,1,1,545,1,0,1.6,NaN,0.0280230153165677,0.0280230153165677,750,0,0,neutral,1,3859.61080683731,302.491612283311
68,104,2,278,-0.5,-0.5,-0.5,3,3,1,2,610,0,1,NaN,1,0,1.6,0.8,0.57872937576791,NaN,750,0,1,congruent,0.1,4943.91243589939,1526.04908184029
68,104,2,279,-0.5,-0.5,0,1,NaN,1,1,542,1,1,542,1,0,1.4,0.8,0.00260579868035192,0.00260579868035192,750,0,0,neutral,0.1,3108.57760408351,1604.89668028555
68,104,2,280,-0.5,-0.5,0.5,2,1,1,2,573,1,1,573,1,0,1.2,0.8,0.265250370587915,0.265250370587915,750,0,0,incongruent,0.1,10690.902658636,2128.90870496404
68,104,2,281,0.5,-0.5,-0.5,3,3,1,3,662,1,1,662,1,0,1.2,NaN,1.01929446412898,1.01929446412898,750,1,0,congruent,1,6784.34900777822,905.011862967434
68,104,2,282,-0.5,-0.5,0,2,NaN,1,2,579,1,1,579,1,0,1.4,1,0.316084803860347,0.316084803860347,750,0,0,neutral,0.1,1453.85599810211,3827.9592183452
68,104,2,283,-0.5,0.5,-0.5,4,4,1,4,474,1,1,474,1,0,1.2,1,-0.573517778407206,-0.573517778407206,750,1,0,congruent,0.1,3088.78307326082,9095.42024824413
68,104,2,284,-0.5,0.5,0,3,NaN,1,3,611,1,1,611,1,0,1.2,1,0.587201781313315,0.587201781313315,750,0,0,neutral,0.1,5277.58123990602,948.175871016257
68,104,2,285,0.5,0.5,-0.5,2,2,1,2,513,1,1,513,1,0,1.2,NaN,-0.243093962136401,-0.243093962136401,750,1,0,congruent,1,1954.64683343449,3674.07014830908
68,104,2,286,-0.5,0.5,0,4,NaN,1,4,512,1,1,512,1,0,1.4,1,-0.251566367681806,-0.251566367681806,750,0,0,neutral,0.1,1512.92873360233,3275.45043307513
68,104,2,287,-0.5,0.5,0.5,1,3,1,1,506,1,1,506,1,0,1.2,1,-0.302400800954238,-0.302400800954238,750,0,0,incongruent,0.1,2222.6132595652,1553.92389208018
68,104,2,288,0.5,-0.5,0.5,3,4,1,2,524,0,1,NaN,1,0,1.2,NaN,-0.149897501136943,NaN,750,0,1,incongruent,1,7619.15533303703,477.767367124868
68,104,2,289,0.5,0.5,0.5,2,1,1,2,641,1,1,641,1,0,1.4,NaN,0.841373947675473,0.841373947675473,750,0,0,incongruent,1,851.147608130966,2560.0774391628
68,104,2,290,0.5,0.5,0.5,4,3,1,4,490,1,1,490,1,0,1.6,NaN,-0.437959289680722,-0.437959289680722,750,0,0,incongruent,1,824.415304472363,994.292187467103
68,104,2,291,0.5,-0.5,-0.5,2,2,1,2,547,1,1,547,1,0,1.6,NaN,0.0449678264073782,0.0449678264073782,750,1,0,congruent,1,795.098723759223,1606.24095214156
68,104,2,292,0.5,0.5,-0.5,3,3,1,3,703,1,1,703,1,0,1.8,NaN,1.3666630914906,1.3666630914906,750,1,0,congruent,1,15399.3166092923,1756.04182797905
68,104,2,293,-0.5,-0.5,-0.5,4,4,1,3,207,0,1,NaN,1,0,2,1,-2.83565005903041,NaN,750,0,1,congruent,0.1,3722.10267649416,2013.89739221028
68,104,2,294,-0.5,-0.5,0,2,NaN,1,2,559,1,1,559,1,0,1.8,1,0.146636692952241,0.146636692952241,750,0,0,neutral,0.1,2145.81966480243,4655.02991810669
68,104,2,295,0.5,-0.5,-0.5,3,3,1,2,464,0,1,NaN,1,0,1.6,NaN,-0.658241833861259,NaN,750,0,1,congruent,1,1526.77649059939,3933.1728389673
68,104,2,296,-0.5,0.5,-0.5,4,4,1,4,452,1,1,452,1,0,1.6,1,-0.759910700406122,-0.759910700406122,750,1,0,congruent,0.1,1165.25252842926,1096.0916140004
68,104,2,297,0.5,0.5,-0.5,3,3,1,3,658,1,1,658,1,0,1.4,NaN,0.985404841947363,0.985404841947363,750,1,0,congruent,1,14851.4674221449,1909.39084984263
68,104,2,298,0.5,0.5,0.5,1,2,1,2,706,0,1,NaN,0,0,1.4,NaN,1.39208030812682,NaN,750,1,0,incongruent,0,9278.25628653803,2578.11765537403
68,104,2,299,-0.5,0.5,-0.5,4,4,0.8,4,442,1,1,442,1,0,1.2,1,-0.844634755860174,-0.844634755860174,750,1,0,congruent,0.1,320.971347324662,1362.08765064803
68,104,2,300,-0.5,-0.5,0,2,NaN,0.8,2,530,1,1,530,1,0,1.2,1,-0.0990630678645112,-0.0990630678645112,750,0,0,neutral,0.1,2622.57069475296,2758.14132868071
68,104,3,301,0.5,0.5,-0.5,4,4,0.8,4,528,1,1,528,1,0,1,NaN,-0.116007878955322,-0.116007878955322,750,1,0,congruent,1,5292.01138437708,853.603028743393
68,104,3,302,0.5,0.5,-0.5,3,3,0.8,3,613,1,1,613,1,0,1.2,NaN,0.604146592404126,0.604146592404126,750,1,0,congruent,1,3061.28292665611,1206.36345422731
68,104,3,303,0.5,0.5,0.5,4,1,0.8,4,585,1,1,585,1,0,1.2,NaN,0.366919237132778,0.366919237132778,750,0,0,incongruent,1,3369.86166332224,5157.13896097131
68,104,3,304,-0.5,-0.5,0.5,2,4,0.8,3,216,0,1,NaN,0,0,1.6,1,-2.75939840912176,NaN,750,0,1,incongruent,0,3054.2434975407,3655.61503244622
68,104,3,305,-0.5,-0.5,-0.5,1,1,0.8,4,315,0,1,NaN,1,0,1.4,0.8,-1.92063026012664,NaN,750,0,1,congruent,0.1,1016.21113052816,3138.0129285576
68,104,3,306,0.5,-0.5,0.5,4,2,0.8,3,886,0,0,NaN,0,0,1.4,NaN,2.91711330629976,NaN,750,0,1,incongruent,0,3171.38715233921,12333.5615843237
68,104,3,307,-0.5,0.5,0.5,1,4,0.8,1,558,1,1,558,1,0,1,1,0.138164287406836,0.138164287406836,750,0,0,incongruent,0.1,1734.87492092421,4966.58600049334
68,104,3,308,0.5,0.5,-0.5,2,2,1,2,670,1,1,670,1,0,0.8,NaN,1.08707370849223,1.08707370849223,750,1,0,congruent,1,2162.42007487523,2822.39839687404
68,104,3,309,0.5,0.5,0.5,3,1,1,3,522,1,1,522,1,0,0.8,NaN,-0.166842312227753,-0.166842312227753,750,0,0,incongruent,1,1964.27650438367,2389.04310607499
68,104,3,310,0.5,-0.5,-0.5,2,2,1,3,526,0,1,NaN,1,0,1.2,NaN,-0.132952690046132,NaN,750,0,1,congruent,1,10467.5532821623,1754.12671478575
68,104,3,311,0.5,0.5,0,1,NaN,1,1,496,1,1,496,1,0,1.4,NaN,-0.38712485640829,-0.38712485640829,750,0,0,neutral,1,3202.83666595328,5118.19118680746
68,104,3,312,0.5,-0.5,-0.5,3,3,1,2,743,0,1,NaN,1,0,1.8,NaN,1.70555931330681,NaN,750,0,1,congruent,1,1227.55904869223,1169.17330659557
68,104,3,313,-0.5,-0.5,0,4,NaN,1,3,443,0,1,NaN,1,0,2,0.8,-0.836162350314769,NaN,750,0,1,neutral,0.1,1572.11582550112,2419.33990957269
68,104,3,314,-0.5,0.5,-0.5,1,1,1,1,473,1,1,473,1,0,1.8,1,-0.581990183952611,-0.581990183952611,750,1,0,congruent,0.1,2782.76618297115,2295.01334146891
68,104,3,315,0.5,-0.5,0.5,4,2,1,4,563,1,1,563,1,0,1.6,NaN,0.180526315133862,0.180526315133862,750,0,0,incongruent,1,960.251031052073,1671.88955562106
68,104,3,316,-0.5,0.5,-0.5,3,3,1,4,539,0,1,NaN,0,0,1.6,1,-0.0228114179558639,NaN,750,0,1,congruent,0,819.199355273701,1240.24053358979
68,104,3,317,-0.5,-0.5,0,4,NaN,0.8,4,499,1,1,499,1,0,1.2,0.8,-0.361707639772074,-0.361707639772074,750,0,0,neutral,0.1,1471.2313109443,332.215051438136
68,104,3,318,0.5,0.5,-0.5,1,1,0.8,1,426,1,1,426,1,0,1,NaN,-0.980193244586659,-0.980193244586659,750,1,0,congruent,1,903.572542969776,4168.87347023508
68,104,3,319,-0.5,0.5,0.5,4,3,0.8,4,778,1,0,778,0,0,1.2,0.8,2.00209350739599,2.00209350739599,750,0,0,incongruent,0,3490.50767463741,664.541737343416
68,104,3,320,0.5,-0.5,0.5,2,1,0.6,2,731,1,1,731,0,0,1,NaN,1.60389044676195,1.60389044676195,750,0,0,incongruent,0,1789.68089090208,1092.28219069813
68,104,3,321,-0.5,0.5,0.5,1,3,0.6,1,783,1,0,783,0,0,0.6,0.6,2.04445553512302,2.04445553512302,750,0,0,incongruent,0,2777.25336550802,1085.31545844646
68,104,3,322,-0.5,-0.5,-0.5,4,4,0.4,3,142,0,1,NaN,1,0,0.6,0.8,-3.38635641948175,NaN,750,0,1,congruent,0.1,1266.74477750843,1228.32777635108
68,104,3,323,0.5,0.5,-0.5,3,3,0.4,3,832,1,0,832,0,0,0.6,NaN,2.45960340684788,2.45960340684788,750,1,0,congruent,0,1550.69482102893,2409.244139503
68,104,3,324,0.5,-0.5,0.5,4,2,0.2,4,649,1,1,649,0,0,0.2,NaN,0.909153192038715,0.909153192038715,750,0,0,incongruent,0,3244.57562252841,2544.35052164849
68,104,3,325,0.5,-0.5,-0.5,3,3,0.2,2,827,0,0,NaN,0,0,0.2,NaN,2.41724137912085,NaN,750,0,1,congruent,0,1716.64281507628,3529.67527900586
68,104,3,326,0.5,-0.5,0,1,NaN,0.2,1,490,1,1,490,0,0,0.2,NaN,-0.437959289680722,-0.437959289680722,750,0,0,neutral,0,1542.00102854627,1761.80162638759
68,104,3,327,0.5,0.5,0.5,2,3,0.2,2,602,1,1,602,1,0,0.2,NaN,0.510950131404668,0.510950131404668,750,0,0,incongruent,1,4080.19089676077,3300.17959668624
68,104,3,328,0.5,0.5,0,3,NaN,0.4,3,564,1,1,564,1,0,0.4,NaN,0.188998720679268,0.188998720679268,750,0,0,neutral,1,4465.29165714004,1679.34452201992
68,104,3,329,-0.5,-0.5,-0.5,2,2,0.4,2,496,1,1,496,1,0,0.8,0.8,-0.38712485640829,-0.38712485640829,750,1,0,congruent,0.1,3198.54872820019,5214.11226445342
68,104,3,330,0.5,-0.5,-0.5,1,1,0.4,1,514,1,1,514,1,0,1,NaN,-0.234621556590995,-0.234621556590995,750,1,0,congruent,1,3962.08107412831,1802.24093332458
68,104,3,331,-0.5,0.5,0,3,NaN,0.4,3,564,1,1,564,1,0,1.4,0.4,0.188998720679268,0.188998720679268,750,0,0,neutral,0.1,3379.16960532151,3853.25198853304
68,104,3,332,0.5,-0.5,0.5,2,3,0.6,2,670,1,1,670,0,0,1.6,NaN,1.08707370849223,1.08707370849223,750,0,0,incongruent,0,2717.70173814713,2475.93881524052
68,104,3,333,-0.5,-0.5,0,4,NaN,0.6,4,305,1,1,305,0,0,1.2,1,-2.0053543155807,-2.0053543155807,750,0,0,neutral,0,2513.44448981735,4714.41420564664
68,104,3,334,-0.5,-0.5,-0.5,1,1,0.6,1,449,1,1,449,1,0,0.8,0.8,-0.785327917042338,-0.785327917042338,750,1,0,congruent,0.1,2491.54254095074,3237.94299557552
68,104,3,335,0.5,-0.5,0,2,NaN,0.6,2,530,1,1,530,0,0,0.8,NaN,-0.0990630678645112,-0.0990630678645112,750,0,0,neutral,0,1236.07928733342,1959.26748519466
68,104,3,336,0.5,0.5,-0.5,1,1,0.6,1,387,1,1,387,1,0,0.4,NaN,-1.31061706085746,-1.31061706085746,750,1,0,congruent,1,2116.57402886075,1200.69425021499
68,104,3,337,-0.5,0.5,0,4,NaN,0.8,4,471,1,1,471,1,0,0.6,0.4,-0.598934995043422,-0.598934995043422,750,0,0,neutral,0.1,822.09513294361,3063.26967743283
68,104,3,338,-0.5,-0.5,-0.5,3,3,1,3,706,1,1,706,1,0,0.8,0.8,1.39208030812682,1.39208030812682,750,1,0,congruent,0.1,2677.93995354786,2415.53164722478
68,104,3,339,0.5,-0.5,0,1,NaN,1,1,460,1,1,460,1,0,1,NaN,-0.69213145604288,-0.69213145604288,750,0,0,neutral,1,2348.15234964038,1020.15528094169
68,104,3,340,-0.5,-0.5,-0.5,4,4,1,4,463,1,1,463,1,0,1.2,0.8,-0.666714239406664,-0.666714239406664,750,1,0,congruent,0.1,7073.48578123296,2967.61384186737
68,104,3,341,-0.5,0.5,0,1,NaN,1,1,602,1,1,602,1,0,1.4,0.4,0.510950131404668,0.510950131404668,750,0,0,neutral,0.1,887.33193579618,4429.47019240819
68,104,3,342,0.5,0.5,-0.5,2,2,1,2,497,1,1,497,1,0,1.2,NaN,-0.378652450862885,-0.378652450862885,750,1,0,congruent,1,540.662412510184,5150.02444388792
68,104,3,343,0.5,-0.5,0.5,3,1,1,3,684,1,1,684,1,0,1.4,NaN,1.2056873861279,1.2056873861279,750,0,0,incongruent,1,5560.76589011692,3211.62520677165
68,104,3,344,0.5,0.5,0,4,NaN,1,4,537,1,1,537,1,0,1.6,NaN,-0.0397562290466744,-0.0397562290466744,750,0,0,neutral,1,536.393244681032,6370.14465979491
68,104,3,345,0.5,0.5,-0.5,2,2,1,3,771,0,0,NaN,0,0,1.6,NaN,1.94278666857816,NaN,750,0,1,congruent,0,3217.55534003101,1276.98978802415
68,104,3,346,-0.5,-0.5,-0.5,3,3,0.8,3,629,1,1,629,1,0,1.4,0.8,0.73970508113061,0.73970508113061,750,1,0,congruent,0.1,5728.5606308586,4957.24494347756
68,104,3,347,0.5,0.5,-0.5,1,1,0.8,1,484,1,1,484,1,0,1.4,NaN,-0.488793722953153,-0.488793722953153,750,1,0,congruent,1,1188.96418322643,4071.66730140472
68,104,3,348,0.5,0.5,-0.5,4,4,0.8,4,432,1,1,432,1,0,1.4,NaN,-0.929358811314227,-0.929358811314227,750,1,0,congruent,1,1652.64850990241,472.7786965766
68,104,3,349,-0.5,-0.5,0.5,2,1,0.8,2,797,1,0,797,1,0,1.4,0.8,2.16306921275869,2.16306921275869,750,0,0,incongruent,0.1,1707.79072779705,7384.74406297289
68,104,3,350,0.5,0.5,-0.5,3,3,0.8,3,500,1,1,500,1,0,1.2,NaN,-0.353235234226669,-0.353235234226669,750,1,0,congruent,1,1801.20920462835,1731.03407046078
68,104,3,351,-0.5,-0.5,0.5,1,4,0.8,1,532,1,1,532,1,0,1.6,1,-0.0821182567737007,-0.0821182567737007,750,0,0,incongruent,0.1,2152.11609330908,1597.28481756419
68,104,3,352,-0.5,0.5,0.5,4,2,0.8,2,774,0,0,NaN,0,0,1.6,0.6,1.96820388521437,NaN,750,1,0,incongruent,0,2801.7537010133,1632.50796010396
68,104,3,353,0.5,0.5,0.5,1,3,0.6,1,651,1,1,651,1,0,1.2,NaN,0.926098003129526,0.926098003129526,750,0,0,incongruent,1,684.10609609528,1438.80637061301
68,104,3,354,0.5,-0.5,0.5,3,2,0.8,3,645,1,1,645,1,0,1.2,NaN,0.875263569857094,0.875263569857094,750,0,0,incongruent,1,2943.89348355948,3543.21949007819
68,104,3,355,0.5,0.5,0.5,2,4,0.8,2,635,1,1,635,1,0,1.4,NaN,0.790539514403041,0.790539514403041,750,0,0,incongruent,1,1693.55478022242,2578.15789513402
68,104,3,356,0.5,0.5,0,1,NaN,0.8,1,536,1,1,536,1,0,1.4,NaN,-0.0482286345920797,-0.0482286345920797,750,0,0,neutral,1,6379.63814579668,3826.51936642365
68,104,3,357,0.5,0.5,-0.5,3,3,0.8,3,510,1,1,510,1,0,1.6,NaN,-0.268511178772617,-0.268511178772617,750,1,0,congruent,1,4511.47539477034,4521.74460437016
68,104,3,358,-0.5,-0.5,0.5,2,4,0.8,3,633,0,1,NaN,1,0,2,1,0.773594703312231,NaN,750,0,1,incongruent,0.1,4687.69535839823,5133.39191783859
68,104,3,359,-0.5,0.5,-0.5,1,1,0.8,1,541,1,1,541,1,0,1.8,0.6,-0.00586660686505335,-0.00586660686505335,750,1,0,congruent,0.1,3987.16914760657,8239.9622031224
68,104,3,360,-0.5,0.5,0,4,NaN,1,4,547,1,1,547,1,0,1.6,0.8,0.0449678264073782,0.0449678264073782,750,0,0,neutral,0.1,4258.23106486012,1721.76639212434
68,104,3,361,0.5,0.5,-0.5,1,1,1,1,533,1,1,533,1,0,1.4,NaN,-0.0736458512282955,-0.0736458512282955,750,1,0,congruent,1,8216.95091496113,1507.10750181911
68,104,3,362,0.5,-0.5,-0.5,4,4,1,4,555,1,1,555,1,0,1.4,NaN,0.11274707077062,0.11274707077062,750,1,0,congruent,1,5196.11199245921,968.886016299544
68,104,3,363,0.5,0.5,0,1,NaN,1,1,528,1,1,528,1,0,1.4,NaN,-0.116007878955322,-0.116007878955322,750,0,0,neutral,1,1657.8441901971,837.763575172833
68,104,3,364,-0.5,-0.5,-0.5,4,4,1,3,728,0,1,NaN,1,0,1.6,1,1.57847323012573,NaN,750,0,1,congruent,0.1,977.962203157399,576.802147095354
68,104,3,365,0.5,-0.5,-0.5,1,1,1,1,547,1,1,547,1,0,1.6,NaN,0.0449678264073782,0.0449678264073782,750,1,0,congruent,1,2279.42409707231,1661.71065892587
68,104,3,366,-0.5,-0.5,-0.5,2,2,1,2,755,1,0,755,1,0,1.8,1,1.80722817985167,1.80722817985167,750,1,0,congruent,0.1,759.167605961124,1358.58757755643
68,104,3,367,-0.5,0.5,0,3,NaN,1,3,659,1,1,659,1,0,1.6,0.8,0.993877247492768,0.993877247492768,750,0,0,neutral,0.1,1613.50788620578,1747.12880912135
68,104,3,368,-0.5,0.5,-0.5,1,1,1,1,529,1,1,529,1,0,1.4,0.8,-0.107535473409917,-0.107535473409917,750,1,0,congruent,0.1,6028.12327482852,4128.43317320805
68,104,3,369,0.5,-0.5,0,2,NaN,1,2,624,1,1,624,1,0,1.2,NaN,0.697343053403584,0.697343053403584,750,0,0,neutral,1,6966.60899689453,2131.7150481743
68,104,3,370,-0.5,-0.5,-0.5,1,1,1,1,577,1,1,577,1,0,1.4,1,0.299139992769536,0.299139992769536,750,1,0,congruent,0.1,2224.54462457075,3869.22553239322
68,104,3,371,0.5,-0.5,-0.5,2,2,1,2,715,1,1,715,1,0,1.2,NaN,1.46833195803546,1.46833195803546,750,1,0,congruent,1,1348.41332766574,1619.51734141513
68,104,3,372,-0.5,0.5,-0.5,3,3,1,3,599,1,1,599,1,0,1.4,0.8,0.485532914768452,0.485532914768452,750,1,0,congruent,0.1,1266.1400937208,1739.12580493467
68,104,3,373,0.5,0.5,0,2,NaN,1,4,898,0,0,NaN,0,0,1.4,NaN,3.01878217284463,NaN,750,0,1,neutral,0,4266.90885031039,4007.69300411931
68,104,3,374,-0.5,0.5,-0.5,3,3,0.8,3,714,1,1,714,1,0,1.2,1,1.45985955249006,1.45985955249006,750,1,0,congruent,0.1,7527.18814721765,2872.86044330683
68,104,3,375,0.5,-0.5,-0.5,2,2,0.8,2,520,1,1,520,1,0,1,NaN,-0.183787123318564,-0.183787123318564,750,1,0,congruent,1,4417.82316344508,5148.42622557402
68,104,3,376,-0.5,-0.5,0,4,NaN,0.8,4,515,1,1,515,1,0,1.2,1,-0.22614915104559,-0.22614915104559,750,0,0,neutral,0.1,739.707028263832,5262.25724678893
68,104,3,377,-0.5,0.5,-0.5,2,2,0.8,2,551,1,1,551,1,0,1,1,0.0788574485889993,0.0788574485889993,750,1,0,congruent,0.1,6756.92922850404,5197.74111041012
68,104,3,378,-0.5,-0.5,0.5,4,3,0.8,4,519,1,1,519,1,0,1,1,-0.192259528863969,-0.192259528863969,750,0,0,incongruent,0.1,515.774444680284,1605.78348231992
68,104,3,379,0.5,-0.5,0,1,NaN,0.8,1,503,1,1,503,0,0,1.2,NaN,-0.327818017590453,-0.327818017590453,750,0,0,neutral,0,2231.17957509785,1289.38229415555
68,104,3,380,-0.5,-0.5,-0.5,2,2,0.8,2,454,1,1,454,0,0,1,1,-0.742965889315311,-0.742965889315311,750,1,0,congruent,0,2496.43977081686,2668.00803394036
68,104,3,381,0.5,0.5,0,4,NaN,0.8,4,584,1,1,584,1,0,0.6,NaN,0.358446831587373,0.358446831587373,750,0,0,neutral,1,3667.39596065673,1291.4062203788
68,104,3,382,0.5,0.5,0.5,3,2,0.8,3,701,1,1,701,1,0,0.8,NaN,1.34971828039979,1.34971828039979,750,0,0,incongruent,1,3923.11348254855,3855.70917667103
68,104,3,383,-0.5,-0.5,0.5,1,3,0.8,1,528,1,1,528,0,0,1,0.8,-0.116007878955322,-0.116007878955322,750,0,0,incongruent,0,1068.18220908654,1015.4822423122
68,104,3,384,-0.5,-0.5,0,2,NaN,0.8,2,693,1,1,693,1,0,0.8,0.6,1.28193903603655,1.28193903603655,750,0,0,neutral,0.1,2875.56164215346,1643.4886769622
68,104,3,385,0.5,-0.5,-0.5,3,3,0.8,3,575,1,1,575,1,0,1,NaN,0.282195181678726,0.282195181678726,750,1,0,congruent,1,2339.74954211367,843.84049355899
68,104,3,386,0.5,0.5,-0.5,2,2,0.8,2,552,1,1,552,1,0,1.4,NaN,0.0873298541344046,0.0873298541344046,750,1,0,congruent,1,8643.74184519931,2069.63500439129
68,104,3,387,-0.5,0.5,-0.5,3,3,1,3,697,1,1,697,1,0,1.4,1,1.31582865821817,1.31582865821817,750,1,0,congruent,0.1,879.395036935353,9464.19652432659
68,104,3,388,0.5,0.5,0,1,NaN,1,1,530,1,1,530,1,0,1.2,NaN,-0.0990630678645112,-0.0990630678645112,750,0,0,neutral,1,2428.82073535498,2637.41208749115
68,104,3,389,0.5,0.5,-0.5,2,2,1,2,504,1,1,504,1,0,1.6,NaN,-0.319345612045048,-0.319345612045048,750,1,0,congruent,1,2098.0402298271,1774.49472854728
68,104,3,390,-0.5,0.5,0,4,NaN,1,4,561,1,1,561,1,0,1.8,1,0.163581504043052,0.163581504043052,750,0,0,neutral,0.1,2649.7402579392,2354.29643929999
68,104,3,392,-0.5,-0.5,-0.5,2,2,0.8,2,534,1,1,534,1,0,1.2,0.6,-0.0651734456828902,-0.0651734456828902,750,1,0,congruent,0.1,1415.72340516745,8552.07499075895
68,104,3,393,0.5,0.5,0.5,3,1,0.8,3,685,1,1,685,1,0,1.2,NaN,1.2141597916733,1.2141597916733,750,0,0,incongruent,1,2073.82897491663,2665.84874890097
68,104,3,394,-0.5,-0.5,-0.5,4,4,0.8,4,337,1,1,337,1,0,1.2,0.6,-1.73423733812773,-1.73423733812773,750,1,0,congruent,0.1,8821.41895129523,1274.04204925518
68,104,3,395,-0.5,0.5,-0.5,2,2,0.8,2,493,1,1,493,1,0,1,0.8,-0.412542073044506,-0.412542073044506,750,1,0,congruent,0.1,3781.09815550642,3384.48883875252
68,104,3,396,0.5,0.5,0,1,NaN,0.8,1,576,1,1,576,1,0,1,NaN,0.290667587224131,0.290667587224131,750,0,0,neutral,1,1803.87924095474,763.997321897407
68,104,3,397,-0.5,0.5,-0.5,4,4,0.8,4,482,1,1,482,1,0,1.4,0.8,-0.505738534043964,-0.505738534043964,750,1,0,congruent,0.1,1219.36499870248,2274.9791529714
68,104,3,399,-0.5,0.5,0,2,NaN,0.8,2,634,1,1,634,1,0,1.4,0.8,0.782067108857636,0.782067108857636,750,0,0,neutral,0.1,2118.28199300706,555.495205341725
68,104,3,400,-0.5,-0.5,0.5,4,2,1,4,463,1,1,463,1,0,1.4,0.6,-0.666714239406664,-0.666714239406664,750,0,0,incongruent,0.1,1971.45160403669,4033.1668872339
68,104,3,401,-0.5,-0.5,0,3,NaN,1,3,664,1,1,664,1,0,1.4,0.8,1.03623927521979,1.03623927521979,750,0,0,neutral,0.1,12322.7286171282,2735.40599682344
68,104,3,402,-0.5,0.5,-0.5,2,2,1,2,533,1,1,533,1,0,1.2,0.8,-0.0736458512282955,-0.0736458512282955,750,1,0,congruent,0.1,5163.21736324263,1380.15322884634
68,104,3,403,-0.5,-0.5,0,3,NaN,1,3,554,1,1,554,1,0,1.2,1,0.104274665225215,0.104274665225215,750,0,0,neutral,0.1,2968.34287995004,1571.27808945035
68,104,3,404,0.5,-0.5,-0.5,2,2,1,2,516,1,1,516,1,0,1,NaN,-0.217676745500185,-0.217676745500185,750,1,0,congruent,1,1188.95037020968,2205.688750192
68,104,3,405,-0.5,-0.5,0.5,1,3,1,1,526,1,1,526,1,0,1.2,1,-0.132952690046132,-0.132952690046132,750,0,0,incongruent,0.1,3746.04135780867,4200.08504826702
68,104,3,406,0.5,0.5,0.5,3,4,1,4,508,0,1,NaN,0,0,1.2,NaN,-0.285455989863427,NaN,750,1,0,incongruent,0,3776.36973475822,1143.88043873924
68,104,3,407,0.5,-0.5,0,1,NaN,0.8,1,574,1,1,574,1,0,1,NaN,0.27372277613332,0.27372277613332,750,0,0,neutral,1,2267.58770176654,2941.97189825768
68,104,3,408,0.5,0.5,-0.5,4,4,0.8,3,841,0,0,NaN,0,0,1.2,NaN,2.53585505675653,NaN,750,0,1,congruent,0,3409.47097221774,7370.12274264287
68,104,3,409,-0.5,-0.5,0,3,NaN,0.6,3,603,1,1,603,0,0,1,1,0.519422536950073,0.519422536950073,750,0,0,neutral,0,6228.60924811781,4514.66884815596
68,104,3,410,-0.5,0.5,-0.5,2,2,0.6,2,630,1,1,630,1,0,0.6,0.8,0.748177486676015,0.748177486676015,750,1,0,congruent,0.1,2191.49197786578,2523.92630251884
68,104,3,411,0.5,-0.5,0,3,NaN,0.6,3,613,1,1,613,1,0,0.6,NaN,0.604146592404126,0.604146592404126,750,0,0,neutral,1,1841.05603134532,3581.97483196848
68,104,3,412,-0.5,0.5,0.5,2,1,0.6,2,542,1,1,542,1,0,1,1,0.00260579868035192,0.00260579868035192,750,0,0,incongruent,0.1,2032.21358220542,3234.98649291119
68,104,3,413,-0.5,0.5,0.5,1,2,0.6,1,582,1,1,582,1,0,0.8,1,0.341502020496562,0.341502020496562,750,0,0,incongruent,0.1,1503.81967930626,3228.50259049462
68,104,3,414,-0.5,0.5,0,4,NaN,0.6,4,594,1,1,594,1,0,1,1,0.443170887041426,0.443170887041426,750,0,0,neutral,0.1,5228.91749761127,2187.80457192881
68,104,3,415,0.5,0.5,-0.5,2,2,0.8,2,525,1,1,525,1,0,1.2,NaN,-0.141425095591538,-0.141425095591538,750,1,0,congruent,1,1371.33307470929,2828.69987208831
68,104,3,418,-0.5,-0.5,0.5,1,2,1,1,611,1,1,611,1,0,1.6,0.8,0.587201781313315,0.587201781313315,750,0,0,incongruent,0.1,3564.93378459399,1276.51101911742
68,104,3,419,-0.5,-0.5,0,2,NaN,1,2,576,1,1,576,1,0,1.6,0.8,0.290667587224131,0.290667587224131,750,0,0,neutral,0.1,1204.8232802075,1642.47177320572
68,104,3,420,-0.5,0.5,-0.5,4,4,1,4,577,1,1,577,1,0,1.6,1,0.299139992769536,0.299139992769536,750,1,0,congruent,0.1,1809.33685931616,3151.54411297054
68,104,3,421,-0.5,-0.5,0.5,2,3,1,2,530,1,1,530,1,0,1.4,0.8,-0.0990630678645112,-0.0990630678645112,750,0,0,incongruent,0.1,4329.4465299689,1569.0909011147
68,104,3,422,-0.5,-0.5,0.5,3,1,1,3,623,1,1,623,1,0,1.2,0.8,0.688870647858178,0.688870647858178,750,0,0,incongruent,0.1,4837.75470660745,2663.3762991798
68,104,3,423,0.5,-0.5,0,1,NaN,1,1,705,1,1,705,1,0,1,NaN,1.38360790258141,1.38360790258141,750,0,0,neutral,1,4638.71867871029,1581.89573525539
68,104,3,424,0.5,0.5,-0.5,3,3,1,3,725,1,1,725,1,0,1.2,NaN,1.55305601348952,1.55305601348952,750,1,0,congruent,1,3758.27274610684,1504.22891698668
68,104,3,425,0.5,-0.5,0,2,NaN,1,2,555,1,1,555,1,0,1.4,NaN,0.11274707077062,0.11274707077062,750,0,0,neutral,1,1475.62386961121,4760.74369607124
68,104,3,426,0.5,-0.5,0.5,4,2,1,4,519,1,1,519,1,0,1.6,NaN,-0.192259528863969,-0.192259528863969,750,0,0,incongruent,1,1261.40015388549,2094.36209038005
68,104,3,427,0.5,-0.5,0.5,2,4,1,2,631,1,1,631,1,0,1.8,NaN,0.75664989222142,0.75664989222142,750,0,0,incongruent,1,635.737600986379,1694.97140879675
68,104,3,428,0.5,-0.5,0.5,4,2,1,4,516,1,1,516,1,0,2,NaN,-0.217676745500185,-0.217676745500185,750,0,0,incongruent,1,2612.20601410556,3945.88298828801
68,104,3,429,0.5,-0.5,0.5,3,4,1,3,723,1,1,723,1,0,2,NaN,1.5361112023987,1.5361112023987,750,0,0,incongruent,1,7806.96287662241,5809.12376408738
68,104,3,430,-0.5,-0.5,-0.5,2,2,1,2,758,1,0,758,1,0,2,0.8,1.83264539648789,1.83264539648789,750,1,0,congruent,0.1,2613.48614860321,3304.57266735785
68,104,3,431,-0.5,0.5,0.5,1,3,1,1,924,1,0,924,0,0,1.8,1,3.23906471702516,3.23906471702516,750,0,0,incongruent,0,1516.67093137989,3491.79298167694
68,104,3,432,-0.5,0.5,0.5,3,4,0.8,2,579,0,1,NaN,0,0,1.4,0.8,0.316084803860347,NaN,750,0,1,incongruent,0,3027.81598050811,816.380763691175
68,104,3,434,0.5,0.5,0,4,NaN,0.6,4,524,1,1,524,1,0,0.8,NaN,-0.149897501136943,-0.149897501136943,750,0,0,neutral,1,7840.62202540733,2248.70562734526
68,104,3,435,0.5,-0.5,-0.5,1,1,0.6,1,465,1,1,465,1,0,0.8,NaN,-0.649769428315853,-0.649769428315853,750,1,0,congruent,1,4666.20939759827,1346.85534541326
68,104,3,437,-0.5,-0.5,0,2,NaN,0.6,2,533,1,1,533,1,0,1.2,1,-0.0736458512282955,-0.0736458512282955,750,0,0,neutral,0.1,1454.61905166952,975.013939805803
68,104,3,438,-0.5,-0.5,-0.5,3,3,0.6,3,647,1,1,647,1,0,1.4,1,0.892208380947905,0.892208380947905,750,1,0,congruent,0.1,1011.14367365973,2562.39769489601
68,104,3,439,0.5,-0.5,0.5,4,1,0.6,4,484,1,1,484,1,0,1.4,NaN,-0.488793722953153,-0.488793722953153,750,0,0,incongruent,1,2363.46095814029,1876.1168169324
68,104,3,440,-0.5,0.5,-0.5,3,3,0.6,3,550,1,1,550,1,0,1.4,0.6,0.070385043043594,0.070385043043594,750,1,0,congruent,0.1,3026.15864129073,1749.85345343655
68,104,3,441,-0.5,0.5,0,2,NaN,0.8,2,606,1,1,606,1,0,1.2,0.6,0.544839753586289,0.544839753586289,750,0,0,neutral,0.1,3530.2695979565,6148.80090173891
68,104,3,442,-0.5,0.5,-0.5,3,3,1,3,607,1,1,607,1,0,1.2,0.8,0.553312159131694,0.553312159131694,750,1,0,congruent,0.1,2790.12609249097,1801.04716893195
68,104,3,443,-0.5,0.5,0.5,2,4,1,2,532,1,1,532,1,0,1.2,1,-0.0821182567737007,-0.0821182567737007,750,0,0,incongruent,0.1,4151.18603292573,735.70827251047
68,104,3,444,-0.5,-0.5,0,4,NaN,1,4,475,1,1,475,1,0,1.2,1,-0.565045372861801,-0.565045372861801,750,0,0,neutral,0.1,7366.24884178086,6334.91940003611
68,104,3,445,0.5,-0.5,-0.5,1,1,1,1,517,1,1,517,1,0,1,NaN,-0.20920433995478,-0.20920433995478,750,1,0,congruent,1,2576.93421422376,3338.68216202147
68,104,3,446,0.5,0.5,0.5,3,4,1,3,658,1,1,658,1,0,1.2,NaN,0.985404841947363,0.985404841947363,750,0,0,incongruent,1,5584.04332306049,1634.45823199288
68,104,3,447,-0.5,0.5,-0.5,2,2,1,2,494,1,1,494,1,0,1.4,1,-0.404069667499101,-0.404069667499101,750,1,0,congruent,0.1,6350.71850210386,2342.64584486809
68,104,3,448,-0.5,-0.5,0,4,NaN,1,4,489,1,1,489,1,0,1.4,1,-0.446431695226127,-0.446431695226127,750,0,0,neutral,0.1,5559.23301987199,2556.11584753305
68,104,3,449,-0.5,-0.5,-0.5,3,3,1,3,706,1,1,706,1,0,1.4,1,1.39208030812682,1.39208030812682,750,1,0,congruent,0.1,4003.02264968993,2491.08483276249
68,104,3,450,-0.5,-0.5,0.5,1,4,1,1,537,1,1,537,1,0,1.4,1,-0.0397562290466744,-0.0397562290466744,750,0,0,incongruent,0.1,2968.26173028023,2660.76835792022
68,104,4,451,0.5,0.5,0.5,3,2,1,3,848,1,0,848,0,0,1.2,NaN,2.59516189557436,2.59516189557436,750,0,0,incongruent,0,1001.86588510627,2764.8074058728
68,104,4,452,-0.5,0.5,0,2,NaN,0.8,2,574,1,1,574,1,0,0.8,1,0.27372277613332,0.27372277613332,750,0,0,neutral,0.1,550.416015452601,4688.50760790859
68,104,4,453,-0.5,0.5,0.5,1,4,0.8,1,450,1,1,450,1,0,0.8,1,-0.776855511496932,-0.776855511496932,750,0,0,incongruent,0.1,2860.86260173385,366.297927881858
68,104,4,454,-0.5,0.5,0.5,4,1,0.8,4,616,1,1,616,1,0,0.8,1,0.629563809040341,0.629563809040341,750,0,0,incongruent,0.1,547.559702765893,1220.94757201315
68,104,4,455,0.5,0.5,-0.5,2,2,0.8,2,637,1,1,637,1,0,0.8,NaN,0.807484325493852,0.807484325493852,750,1,0,congruent,1,1861.15892010605,9720.75718390005
68,104,4,456,0.5,0.5,0.5,1,3,0.8,1,714,1,1,714,1,0,1,NaN,1.45985955249006,1.45985955249006,750,0,0,incongruent,1,1418.81491886755,1770.0951698537
68,104,4,457,0.5,0.5,-0.5,4,4,1,3,499,0,1,NaN,0,0,1.4,NaN,-0.361707639772074,NaN,750,0,1,congruent,0,737.203686072466,1311.11048751235
68,104,4,458,-0.5,0.5,0.5,3,1,0.8,3,631,1,1,631,1,0,1.2,1,0.75664989222142,0.75664989222142,750,0,0,incongruent,0.1,2237.38227943002,1477.91426842706
68,104,4,459,-0.5,0.5,0,1,NaN,0.8,1,535,1,1,535,1,0,1.2,1,-0.0567010401374849,-0.0567010401374849,750,0,0,neutral,0.1,3329.97326435535,447.820235292004
68,104,4,460,-0.5,0.5,0.5,2,4,0.8,2,671,1,1,671,1,0,1.2,1,1.09554611403763,1.09554611403763,750,0,0,incongruent,0.1,7454.43975063914,2575.11758107198
68,104,4,461,-0.5,0.5,0.5,3,1,0.8,2,767,0,0,NaN,0,0,1,1,1.90889704639654,NaN,750,0,1,incongruent,0,2043.44440338376,2572.0262754824
68,104,4,462,0.5,0.5,0.5,1,3,0.6,1,484,1,1,484,1,0,0.6,NaN,-0.488793722953153,-0.488793722953153,750,0,0,incongruent,1,3083.362762382,1016.52082312519
68,104,4,463,-0.5,-0.5,0,3,NaN,0.8,4,121,0,1,NaN,1,0,1,1,-3.56427693593526,NaN,750,0,1,neutral,0.1,4926.19575985747,2712.95150990199
68,104,4,464,0.5,-0.5,0.5,4,3,0.8,4,527,1,1,527,1,0,1,NaN,-0.124480284500727,-0.124480284500727,750,0,0,incongruent,1,1712.19672856973,4125.66496371113
68,104,4,465,-0.5,-0.5,0,3,NaN,0.8,3,0,1,1,NaN,1,0,1.2,1,-4.5894380069293,-4.5894380069293,750,0,0,neutral,0.1,4273.72368295656,2257.54528890702
68,104,4,466,0.5,0.5,-0.5,2,2,0.8,2,589,1,1,589,1,0,1.2,NaN,0.400808859314399,0.400808859314399,750,1,0,congruent,1,2947.46841035323,2356.38552668234
68,104,4,467,-0.5,-0.5,0,1,NaN,0.8,4,194,0,1,NaN,0,0,1.6,1,-2.94579133112068,NaN,750,0,1,neutral,0,3181.59370503379,3225.23419995339
68,104,4,468,0.5,0.5,0.5,2,4,0.8,2,613,1,1,613,1,0,1.2,NaN,0.604146592404126,0.604146592404126,750,0,0,incongruent,1,1552.58006768957,1348.23185942118
68,104,4,469,0.5,0.5,-0.5,1,1,0.8,1,384,1,1,384,1,0,1.4,NaN,-1.33603427749368,-1.33603427749368,750,1,0,congruent,1,5925.9567923747,4182.81159113804
68,104,4,470,0.5,0.5,0.5,3,4,0.8,3,417,1,1,417,1,0,1.4,NaN,-1.05644489449531,-1.05644489449531,750,0,0,incongruent,1,730.656239445396,725.362289434893
68,104,4,471,0.5,0.5,0.5,2,1,1,2,483,1,1,483,1,0,1.6,NaN,-0.497266128498559,-0.497266128498559,750,0,0,incongruent,1,8207.91347487746,2558.56353043269
68,104,4,472,0.5,0.5,0.5,1,3,1,1,414,1,1,414,1,0,1.6,NaN,-1.08186211113152,-1.08186211113152,750,0,0,incongruent,1,1908.68253802533,1632.55596880949
68,104,4,473,-0.5,-0.5,0,3,NaN,1,3,491,1,1,491,1,0,2,0.8,-0.429486884135317,-0.429486884135317,750,0,0,neutral,0.1,2768.25290007965,886.412690716043
68,104,4,474,-0.5,-0.5,0.5,1,3,1,1,473,1,1,473,1,0,1.8,0.8,-0.581990183952611,-0.581990183952611,750,0,0,incongruent,0.1,3175.04670148121,1446.59202281723
68,104,4,475,-0.5,-0.5,-0.5,2,2,1,2,528,1,1,528,1,0,1.6,0.8,-0.116007878955322,-0.116007878955322,750,1,0,congruent,0.1,3270.09434350625,1125.40538093008
68,104,4,476,0.5,0.5,0,1,NaN,1,1,500,1,1,500,1,0,1.4,NaN,-0.353235234226669,-0.353235234226669,750,0,0,neutral,1,1605.80347243383,2040.8995627352
68,104,4,477,-0.5,0.5,-0.5,3,3,1,3,605,1,1,605,1,0,1.4,0.8,0.536367348040884,0.536367348040884,750,1,0,congruent,0.1,1867.40819410666,2395.84600762523
68,104,4,478,-0.5,0.5,0.5,4,2,1,4,640,1,1,640,1,0,1.2,0.8,0.832901542130068,0.832901542130068,750,0,0,incongruent,0.1,2772.77956954841,2449.42395944253
68,104,4,479,-0.5,0.5,0.5,2,4,1,2,611,1,1,611,1,0,1.2,0.8,0.587201781313315,0.587201781313315,750,0,0,incongruent,0.1,2095.48825361426,429.322750890795
68,104,4,480,-0.5,0.5,-0.5,1,1,1,1,507,1,1,507,1,0,1.2,0.8,-0.293928395408832,-0.293928395408832,750,1,0,congruent,0.1,1208.27259571564,2616.29414927337
68,104,4,481,-0.5,0.5,0.5,3,4,1,2,812,0,0,NaN,0,0,1.2,0.8,2.29015529593977,NaN,750,0,1,incongruent,0,6074.54410146695,4006.10369795858
68,104,4,482,-0.5,-0.5,0.5,1,2,0.8,2,581,0,1,NaN,1,0,0.8,0.8,0.333029614951157,NaN,750,1,0,incongruent,0.1,2247.06679858863,343.9998248053
68,104,4,483,-0.5,-0.5,-0.5,4,4,0.8,4,412,1,1,412,1,0,0.8,0.8,-1.09880692222233,-1.09880692222233,750,1,0,congruent,0.1,2441.04725537764,1178.05799614039
68,104,4,484,-0.5,-0.5,0.5,1,3,0.8,1,532,1,1,532,1,0,0.8,1,-0.0821182567737007,-0.0821182567737007,750,0,0,incongruent,0.1,2321.97753302909,1546.33124358818
68,104,4,485,-0.5,-0.5,-0.5,2,2,0.8,2,471,1,1,471,0,0,0.8,1,-0.598934995043422,-0.598934995043422,750,1,0,congruent,0,1773.61147708299,1809.56854314503
68,104,4,486,0.5,-0.5,0.5,4,1,0.8,4,532,1,1,532,1,0,0.6,NaN,-0.0821182567737007,-0.0821182567737007,750,0,0,incongruent,1,2269.69298850852,1773.83604888657
68,104,4,487,-0.5,0.5,0.5,2,4,0.8,2,549,1,1,549,1,0,1,0.8,0.0619126374981888,0.0619126374981888,750,0,0,incongruent,0.1,5148.5931249502,1826.60353576905
68,104,4,489,-0.5,0.5,0.5,4,1,0.6,4,434,1,1,434,1,0,0.8,0.8,-0.912414000223417,-0.912414000223417,750,0,0,incongruent,0.1,1891.55146333858,818.299267638669
68,104,4,490,-0.5,0.5,0,1,NaN,0.6,1,703,1,1,703,1,0,0.8,0.8,1.3666630914906,1.3666630914906,750,0,0,neutral,0.1,1193.90819328651,1136.71533184322
68,104,4,491,-0.5,-0.5,-0.5,3,3,0.6,3,624,1,1,624,1,0,1,0.8,0.697343053403584,0.697343053403584,750,1,0,congruent,0.1,6542.44826671183,6399.68855881665
68,104,4,492,0.5,0.5,0.5,2,1,0.6,3,769,0,0,NaN,0,0,0.8,NaN,1.92584185748735,NaN,750,0,1,incongruent,0,6414.9173534197,3917.22553303556
68,104,4,493,0.5,0.5,-0.5,3,3,0.6,3,699,1,1,699,1,0,0.6,NaN,1.33277346930898,1.33277346930898,750,1,0,congruent,1,2185.97312914999,891.897947869674
68,104,4,494,0.5,0.5,0,2,NaN,0.6,2,484,1,1,484,1,0,1,NaN,-0.488793722953153,-0.488793722953153,750,0,0,neutral,1,1509.32554660216,1927.63432270789
68,104,4,495,0.5,0.5,-0.5,3,3,0.8,3,558,1,1,558,1,0,1.2,NaN,0.138164287406836,0.138164287406836,750,1,0,congruent,1,1617.35502548395,4771.30402047718
68,104,4,496,-0.5,0.5,0.5,2,4,0.8,2,528,1,1,528,1,0,1.4,0.8,-0.116007878955322,-0.116007878955322,750,0,0,incongruent,0.1,1303.15891001142,574.83438570828
68,104,4,497,0.5,0.5,0,1,NaN,0.8,1,475,1,1,475,1,0,1.4,NaN,-0.565045372861801,-0.565045372861801,750,0,0,neutral,1,2499.4028432674,1279.69679036817
68,104,4,498,0.5,0.5,-0.5,2,2,1,2,521,1,1,521,1,0,1.8,NaN,-0.175314717773159,-0.175314717773159,750,1,0,congruent,1,3162.52133257947,2338.11983336608
68,104,4,499,0.5,0.5,0.5,3,4,1,3,522,1,1,522,1,0,1.8,NaN,-0.166842312227753,-0.166842312227753,750,0,0,incongruent,1,4327.15478779143,1888.39320360508
68,104,4,500,-0.5,0.5,0,4,NaN,1,4,587,1,1,587,1,0,1.8,0.8,0.383864048223589,0.383864048223589,750,0,0,neutral,0.1,1527.00120125689,1033.82560986918
68,104,4,502,0.5,-0.5,0.5,1,4,1,1,473,1,1,473,1,0,1.6,NaN,-0.581990183952611,-0.581990183952611,750,0,0,incongruent,1,2362.30543526732,2094.27858226113
68,104,4,503,0.5,-0.5,0,2,NaN,1,2,492,1,1,492,1,0,1.6,NaN,-0.421014478589911,-0.421014478589911,750,0,0,neutral,1,2878.71822655699,2575.52696699894
68,104,4,504,0.5,-0.5,-0.5,3,3,1,3,542,1,1,542,1,0,1.6,NaN,0.00260579868035192,0.00260579868035192,750,1,0,congruent,1,3198.4472741999,1702.97823411751
68,104,4,505,0.5,-0.5,0,1,NaN,1,1,572,1,1,572,1,0,1.6,NaN,0.25677796504251,0.25677796504251,750,0,0,neutral,1,2871.851678192,1447.12070656057
68,104,4,506,0.5,-0.5,-0.5,4,4,1,4,545,1,1,545,1,0,1.8,NaN,0.0280230153165677,0.0280230153165677,750,1,0,congruent,1,2227.69679174221,9256.90360724512
68,104,4,507,0.5,0.5,-0.5,1,1,1,1,568,1,1,568,1,0,2,NaN,0.222888342860889,0.222888342860889,750,1,0,congruent,1,1565.60321525806,3526.73401692157
68,104,4,508,-0.5,-0.5,0.5,4,2,1,4,501,1,1,501,1,0,2,0.8,-0.344762828681264,-0.344762828681264,750,0,0,incongruent,0.1,1960.7154129434,1944.58847258771
68,104,4,509,0.5,-0.5,-0.5,3,3,1,3,648,1,1,648,1,0,1.8,NaN,0.90068078649331,0.90068078649331,750,1,0,congruent,1,927.354463656915,1820.54058569528
68,104,4,510,-0.5,0.5,-0.5,1,1,1,1,517,1,1,517,1,0,1.8,1,-0.20920433995478,-0.20920433995478,750,1,0,congruent,0.1,4288.68301650385,1459.6076527675
68,104,4,511,0.5,-0.5,-0.5,3,3,1,3,605,1,1,605,1,0,1.6,NaN,0.536367348040884,0.536367348040884,750,1,0,congruent,1,1635.9859791173,522.538769522425
68,104,4,512,-0.5,0.5,0,4,NaN,1,4,508,1,1,508,1,0,1.6,1,-0.285455989863427,-0.285455989863427,750,0,0,neutral,0.1,2529.19769586481,3801.2817800941
68,104,4,513,-0.5,-0.5,0.5,2,1,1,2,706,1,1,706,1,0,1.4,0.8,1.39208030812682,1.39208030812682,750,0,0,incongruent,0.1,4904.56389017141,1266.47302655461
68,104,4,515,-0.5,0.5,0.5,2,3,1,2,565,1,1,565,1,0,1.4,1,0.197471126224673,0.197471126224673,750,0,0,incongruent,0.1,2988.90617978264,2895.89195789433
68,104,4,516,0.5,-0.5,0,1,NaN,1,1,455,1,1,455,1,0,1.4,NaN,-0.734493483769906,-0.734493483769906,750,0,0,neutral,1,2051.5528122909,2358.78976405485
68,104,4,517,0.5,-0.5,-0.5,3,3,1,4,495,0,1,NaN,1,0,1.4,NaN,-0.395597261953695,NaN,750,0,1,congruent,1,3185.78813756722,390.629986912845
68,104,4,518,-0.5,-0.5,-0.5,4,4,1,4,463,1,1,463,1,0,1.6,0.8,-0.666714239406664,-0.666714239406664,750,1,0,congruent,0.1,440.866065995188,795.825099957033
68,104,4,519,0.5,-0.5,-0.5,2,2,1,2,451,1,1,451,1,0,1.6,NaN,-0.768383105951527,-0.768383105951527,750,1,0,congruent,1,3358.27892790648,5975.83386913932
68,104,4,520,-0.5,0.5,-0.5,1,1,1,1,474,1,1,474,1,0,1.6,1,-0.573517778407206,-0.573517778407206,750,1,0,congruent,0.1,1634.58809073786,2072.65211486464
68,104,4,521,0.5,-0.5,0,4,NaN,1,4,498,1,1,498,1,0,1.6,NaN,-0.37018004531748,-0.37018004531748,750,0,0,neutral,1,3276.11292882469,2646.4548970898
68,104,4,522,0.5,0.5,0.5,2,4,1,2,609,1,1,609,1,0,1.6,NaN,0.570256970222505,0.570256970222505,750,0,0,incongruent,1,3428.40545548521,3912.43013187161
68,104,4,523,-0.5,0.5,0.5,4,3,1,4,493,1,1,493,1,0,1.6,1,-0.412542073044506,-0.412542073044506,750,0,0,incongruent,0.1,3534.05132094494,1855.12333845004
68,104,4,525,0.5,0.5,0,2,NaN,1,2,527,1,1,527,1,0,1.6,NaN,-0.124480284500727,-0.124480284500727,750,0,0,neutral,1,3129.17067295859,1335.06550506974
68,104,4,526,-0.5,0.5,-0.5,1,1,1,1,461,1,1,461,1,0,1.8,1,-0.683659050497474,-0.683659050497474,750,1,0,congruent,0.1,1852.44935629432,1915.72283868
68,104,4,527,0.5,-0.5,0.5,3,4,1,3,617,1,1,617,1,0,1.6,NaN,0.638036214585747,0.638036214585747,750,0,0,incongruent,1,870.582828918344,2014.86806819185
68,104,4,530,-0.5,0.5,0.5,3,4,1,3,552,1,1,552,1,0,1.4,1,0.0873298541344046,0.0873298541344046,750,0,0,incongruent,0.1,3122.16846061354,1791.19956939434
68,104,4,531,0.5,-0.5,0.5,2,1,1,2,636,1,1,636,1,0,1.2,NaN,0.799011919948447,0.799011919948447,750,0,0,incongruent,1,1530.33228470097,1724.2853661314
68,104,4,532,-0.5,-0.5,-0.5,4,4,1,4,499,1,1,499,1,0,1.4,1,-0.361707639772074,-0.361707639772074,750,1,0,congruent,0.1,1912.56042375789,2461.94015833631
68,104,4,533,-0.5,0.5,0.5,1,2,1,1,483,1,1,483,1,0,1.2,1,-0.497266128498559,-0.497266128498559,750,0,0,incongruent,0.1,1492.38888426891,3165.31289144605
68,104,4,534,-0.5,0.5,0,3,NaN,1,3,724,1,1,724,1,0,1.2,1,1.54458360794411,1.54458360794411,750,0,0,neutral,0.1,3120.68831159183,3863.24907732844
68,104,4,535,-0.5,-0.5,-0.5,1,1,1,1,450,1,1,450,1,0,1.2,1,-0.776855511496932,-0.776855511496932,750,1,0,congruent,0.1,3064.2579749944,3129.8694188545
68,104,4,536,0.5,0.5,-0.5,3,3,1,3,668,1,1,668,1,0,1.2,NaN,1.07012889740142,1.07012889740142,750,1,0,congruent,1,4908.33114214201,1341.36267921261
68,104,4,537,0.5,-0.5,0,4,NaN,1,4,458,1,1,458,1,0,1.2,NaN,-0.70907626713369,-0.70907626713369,750,0,0,neutral,1,2737.94061009275,1133.18518241944
68,104,4,538,0.5,0.5,-0.5,1,1,1,1,437,1,1,437,1,0,1.4,NaN,-0.886996783587201,-0.886996783587201,750,1,0,congruent,1,2550.8174608512,2159.12372859668
68,104,4,539,-0.5,0.5,-0.5,3,3,1,3,577,1,1,577,1,0,1.6,1,0.299139992769536,0.299139992769536,750,1,0,congruent,0.1,4682.93864420578,3603.45823806305
68,104,4,540,-0.5,0.5,0,2,NaN,1,2,581,1,1,581,1,0,1.6,1,0.333029614951157,0.333029614951157,750,0,0,neutral,0.1,895.917850585039,673.703476476095
68,104,4,541,-0.5,-0.5,0.5,1,3,1,1,509,1,1,509,1,0,1.6,1,-0.276983584318022,-0.276983584318022,750,0,0,incongruent,0.1,3872.84295382997,1370.07752414731
68,104,4,542,-0.5,0.5,-0.5,4,4,1,4,729,1,1,729,1,0,1.4,1,1.58694563567114,1.58694563567114,750,1,0,congruent,0.1,3496.36125858163,2157.71807628784
68,104,4,543,0.5,0.5,0,2,NaN,1,2,519,1,1,519,1,0,1.2,NaN,-0.192259528863969,-0.192259528863969,750,0,0,neutral,1,3490.46932168386,996.711431041889
68,104,4,544,-0.5,0.5,-0.5,3,3,1,3,708,1,1,708,1,0,1.2,1,1.40902511921763,1.40902511921763,750,1,0,congruent,0.1,691.161527016037,1808.13702186223
68,104,4,545,-0.5,0.5,0,4,NaN,1,4,532,1,1,532,1,0,1.2,1,-0.0821182567737007,-0.0821182567737007,750,0,0,neutral,0.1,495.972898241928,1324.64823590448
68,104,4,546,0.5,0.5,-0.5,3,3,1,3,573,1,1,573,1,0,1.2,NaN,0.265250370587915,0.265250370587915,750,1,0,congruent,1,3148.59669643768,2200.30183899185
68,104,4,547,0.5,-0.5,0,1,NaN,1,1,518,1,1,518,1,0,1.4,NaN,-0.200731934409374,-0.200731934409374,750,0,0,neutral,1,476.104703880802,2517.92956323182
68,104,4,548,0.5,-0.5,-0.5,3,3,1,3,569,1,1,569,1,0,1.6,NaN,0.231360748406294,0.231360748406294,750,1,0,congruent,1,1205.21936059714,976.937939427842
68,104,4,549,0.5,0.5,0.5,2,4,1,2,544,1,1,544,1,0,1.6,NaN,0.0195506097711624,0.0195506097711624,750,0,0,incongruent,1,5418.34852127843,3127.3606453807
68,104,4,550,-0.5,-0.5,0,3,NaN,1,3,588,1,1,588,1,0,1.8,1,0.392336453768994,0.392336453768994,750,0,0,neutral,0.1,4774.69801607018,2900.14273524576
68,104,4,551,0.5,0.5,0.5,4,3,1,4,477,1,1,477,1,0,1.8,NaN,-0.54810056177099,-0.54810056177099,750,0,0,incongruent,1,3548.14384868888,1133.28675365777
68,104,4,552,-0.5,-0.5,-0.5,2,2,1,2,812,1,0,812,1,0,1.8,1,2.29015529593977,2.29015529593977,750,1,0,congruent,0.1,8359.44496686471,3447.33057727988
68,104,4,553,-0.5,0.5,0,3,NaN,1,3,504,1,1,504,1,0,1.6,1,-0.319345612045048,-0.319345612045048,750,0,0,neutral,0.1,1281.7932831566,1607.71817066634
68,104,4,554,0.5,-0.5,-0.5,2,2,1,2,466,1,1,466,1,0,1.4,NaN,-0.641297022770448,-0.641297022770448,750,1,0,congruent,1,1602.72835405924,4159.10238740862
68,104,4,555,-0.5,-0.5,0.5,3,1,1,3,561,1,1,561,1,0,1.4,1,0.163581504043052,0.163581504043052,750,0,0,incongruent,0.1,4025.54076468471,2646.76631890842
68,104,4,556,0.5,-0.5,0,1,NaN,1,1,498,1,1,498,1,0,1.4,NaN,-0.37018004531748,-0.37018004531748,750,0,0,neutral,1,4111.71436837994,3603.98653008559
68,104,4,557,0.5,-0.5,0.5,3,4,1,3,569,1,1,569,1,0,1.4,NaN,0.231360748406294,0.231360748406294,750,0,0,incongruent,1,1609.31686981235,1251.36298764543
68,104,4,558,-0.5,-0.5,0,4,NaN,1,4,504,1,1,504,1,0,1.6,1,-0.319345612045048,-0.319345612045048,750,0,0,neutral,0.1,2081.32218150364,809.244608462212
68,104,4,559,-0.5,0.5,-0.5,2,2,1,2,526,1,1,526,1,0,1.6,1,-0.132952690046132,-0.132952690046132,750,1,0,congruent,0.1,3622.13994274516,2593.88864039346
68,104,4,560,-0.5,-0.5,-0.5,3,3,1,3,652,1,1,652,1,0,1.4,1,0.934570408674931,0.934570408674931,750,1,0,congruent,0.1,1039.99320576546,2998.12639197631
68,104,4,561,-0.5,0.5,0.5,4,2,1,4,519,1,1,519,1,0,1.4,1,-0.192259528863969,-0.192259528863969,750,0,0,incongruent,0.1,811.821399327775,1120.49034553761
68,104,4,562,0.5,-0.5,0,1,NaN,1,1,503,1,1,503,1,0,1.2,NaN,-0.327818017590453,-0.327818017590453,750,0,0,neutral,1,924.941124950162,1480.63837095011
68,104,4,563,0.5,0.5,-0.5,3,3,1,3,740,1,1,740,1,0,1.2,NaN,1.68014209667059,1.68014209667059,750,1,0,congruent,1,2055.04139090887,1959.10268225983
68,104,4,564,0.5,0.5,-0.5,2,2,1,2,683,1,1,683,1,0,1.4,NaN,1.19721498058249,1.19721498058249,750,1,0,congruent,1,2823.47801968385,7273.90209677624
68,104,4,565,-0.5,-0.5,0.5,3,1,1,3,556,1,1,556,1,0,1.6,1,0.121219476316026,0.121219476316026,750,0,0,incongruent,0.1,4279.80047668291,2582.24794285167
68,104,4,566,0.5,0.5,0.5,1,4,1,1,643,1,1,643,1,0,1.6,NaN,0.858318758766284,0.858318758766284,750,0,0,incongruent,1,5529.31908266447,1769.04744099205
68,104,4,567,-0.5,-0.5,0.5,2,1,1,2,546,1,1,546,1,0,1.8,1,0.036495420861973,0.036495420861973,750,0,0,incongruent,0.1,702.358797156166,1723.67190657733
68,104,4,568,0.5,0.5,-0.5,4,4,1,4,436,1,1,436,1,0,1.6,NaN,-0.895469189132606,-0.895469189132606,750,1,0,congruent,1,3783.02673377155,604.962357858133
68,104,4,569,-0.5,-0.5,0.5,1,2,1,3,285,0,1,NaN,1,0,1.6,1,-2.1748024264888,NaN,750,0,1,incongruent,0.1,7483.97671782844,2471.27566886372
68,104,4,570,0.5,-0.5,-0.5,4,4,1,4,389,1,1,389,1,0,1.4,NaN,-1.29367224976665,-1.29367224976665,750,1,0,congruent,1,1582.30092703574,2495.83443267205
68,104,4,571,-0.5,0.5,0,1,NaN,1,1,500,1,1,500,1,0,1.6,1,-0.353235234226669,-0.353235234226669,750,0,0,neutral,0.1,2054.61727381199,1641.67031728425
68,104,4,572,-0.5,0.5,0.5,2,1,1,2,695,1,1,695,1,0,1.4,1,1.29888384712736,1.29888384712736,750,0,0,incongruent,0.1,5210.81182169455,2380.98112667389
68,104,4,573,-0.5,-0.5,0,4,NaN,1,4,635,1,1,635,1,0,1.4,1,0.790539514403041,0.790539514403041,750,0,0,neutral,0.1,1617.04562560875,3078.93193535171
68,104,4,574,-0.5,0.5,-0.5,2,2,1,2,572,1,1,572,1,0,1.2,1,0.25677796504251,0.25677796504251,750,1,0,congruent,0.1,1263.28938322862,3133.22444973282
68,104,4,575,0.5,0.5,0,3,NaN,1,3,497,1,1,497,1,0,1.2,NaN,-0.378652450862885,-0.378652450862885,750,0,0,neutral,1,3626.48900389822,1727.82051471568
68,104,4,576,0.5,0.5,0.5,2,1,1,2,610,1,1,610,1,0,1.2,NaN,0.57872937576791,0.57872937576791,750,0,0,incongruent,1,2156.78717475715,940.684527683409
68,104,4,577,-0.5,-0.5,0,1,NaN,1,1,491,1,1,491,1,0,1.4,1,-0.429486884135317,-0.429486884135317,750,0,0,neutral,0.1,7304.50661822863,3300.38777532803
68,104,4,578,0.5,0.5,0.5,4,2,1,4,611,1,1,611,1,0,1.4,NaN,0.587201781313315,0.587201781313315,750,0,0,incongruent,1,4795.04682867818,5685.31468373966
68,104,4,579,-0.5,0.5,0.5,2,1,1,2,523,1,1,523,1,0,1.6,1,-0.158369906682348,-0.158369906682348,750,0,0,incongruent,0.1,639.603070305929,1756.21946110997
68,104,4,580,-0.5,0.5,0,3,NaN,1,3,608,1,1,608,1,0,1.6,1,0.561784564677099,0.561784564677099,750,0,0,neutral,0.1,653.006431033206,1328.24412482521
68,104,4,581,-0.5,-0.5,-0.5,2,2,1,2,493,1,1,493,1,0,1.4,1,-0.412542073044506,-0.412542073044506,750,1,0,congruent,0.1,1945.9467096217,2127.68287889407
68,104,4,582,-0.5,0.5,0,1,NaN,1,1,560,1,1,560,1,0,1.2,1,0.155109098497647,0.155109098497647,750,0,0,neutral,0.1,2031.67660537543,2018.071004767
68,104,4,583,-0.5,-0.5,0.5,3,2,1,3,637,1,1,637,1,0,1.2,1,0.807484325493852,0.807484325493852,750,0,0,incongruent,0.1,3573.56697883862,2721.46854677915
68,104,4,584,-0.5,0.5,-0.5,4,4,1,4,528,1,1,528,1,0,1,1,-0.116007878955322,-0.116007878955322,750,1,0,congruent,0.1,5038.09532266797,756.49210919496
68,104,4,585,-0.5,0.5,0,1,NaN,1,1,486,1,1,486,1,0,1,1,-0.471848911862343,-0.471848911862343,750,0,0,neutral,0.1,5277.21965039586,638.36728384456
68,104,4,586,0.5,-0.5,-0.5,2,2,1,2,471,1,1,471,1,0,1,NaN,-0.598934995043422,-0.598934995043422,750,1,0,congruent,1,2752.73331774008,456.312892147187
68,104,4,587,-0.5,0.5,-0.5,1,1,1,1,408,1,1,408,1,0,1.2,1,-1.13269654440395,-1.13269654440395,750,1,0,congruent,0.1,5477.19882714863,2394.53294303086
68,104,4,588,-0.5,0.5,-0.5,2,2,1,2,508,1,1,508,1,0,1.2,1,-0.285455989863427,-0.285455989863427,750,1,0,congruent,0.1,1110.1013983459,1528.75856696471
68,104,4,589,0.5,-0.5,-0.5,1,1,1,1,506,1,1,506,1,0,1.2,NaN,-0.302400800954238,-0.302400800954238,750,1,0,congruent,1,6516.54434852573,3383.77471195274
68,104,4,590,-0.5,-0.5,0.5,4,2,1,4,562,1,1,562,1,0,1.4,1,0.172053909588457,0.172053909588457,750,0,0,incongruent,0.1,8442.20790408914,742.230071088238
68,104,4,591,-0.5,0.5,-0.5,3,3,1,2,571,0,1,NaN,0,0,1.4,1,0.248305559497105,NaN,750,0,1,congruent,0,3903.00311855311,2177.58952052172
68,104,4,592,0.5,0.5,-0.5,2,2,0.8,2,503,1,1,503,1,0,1,NaN,-0.327818017590453,-0.327818017590453,750,1,0,congruent,1,1544.74729565171,2768.23538867798
68,104,4,593,0.5,0.5,-0.5,3,3,0.8,3,540,1,1,540,1,0,1.2,NaN,-0.0143390124104586,-0.0143390124104586,750,1,0,congruent,1,1713.85948715203,654.740552802827
68,104,4,594,0.5,0.5,0,4,NaN,0.8,4,649,1,1,649,1,0,1.4,NaN,0.909153192038715,0.909153192038715,750,0,0,neutral,1,2964.18354157467,1568.62199387858
68,104,4,595,-0.5,0.5,-0.5,2,2,0.8,2,540,1,1,540,1,0,1.4,0.8,-0.0143390124104586,-0.0143390124104586,750,1,0,congruent,0.1,2151.14878934286,1266.31879619081
68,104,4,596,0.5,0.5,0,3,NaN,0.8,3,670,1,1,670,1,0,1.4,NaN,1.08707370849223,1.08707370849223,750,0,0,neutral,1,4200.69747779897,2416.82115144923
68,104,4,597,-0.5,0.5,-0.5,4,4,1,4,544,1,1,544,1,0,1.8,0.8,0.0195506097711624,0.0195506097711624,750,1,0,congruent,0.1,392.667691451582,643.606711921986
68,104,4,598,0.5,-0.5,-0.5,3,3,1,3,599,1,1,599,1,0,1.6,NaN,0.485532914768452,0.485532914768452,750,1,0,congruent,1,5267.60655912638,2019.13833857977
68,104,4,599,-0.5,-0.5,-0.5,4,4,1,4,555,1,1,555,1,0,1.6,1,0.11274707077062,0.11274707077062,750,1,0,congruent,0.1,7239.75789528009,3473.06660812471
