subid,vers,block,trial,rewlvl,efflvl,congruency,targetresp,distractorresp,rollingefflvl,resp,rt,acc,fast,accrt,isrewarded,ismiss,runavgrrgen,runavgrrcond,zrt,acczrt,rtthreshold,isdisterror,isranderror,congruence,feedback,fcz_resp_theta,fcz_resp_theta_baseline
70,104,1,1,-0.5,-0.5,0,4,NaN,0.8,4,673,1,1,673,1,0,0,0,0.60422449380515,0.60422449380515,750,0,0,neutral,0.1,2211.61657520435,1997.67379817059
70,104,1,2,0.5,-0.5,-0.5,1,1,0.8,1,778,1,0,778,1,0,0.2,NaN,1.49180797018598,1.49180797018598,750,1,0,congruent,1,5325.17487438469,1498.55475856126
70,104,1,3,0.5,0.5,0,4,NaN,0.8,4,507,1,1,507,1,0,0.6,NaN,-0.799002716473115,-0.799002716473115,750,0,0,neutral,1,3752.30490248205,1317.67932388414
70,104,1,4,0.5,0.5,-0.5,3,3,0.8,3,838,1,0,838,0,0,1,NaN,1.99899852811788,1.99899852811788,750,1,0,congruent,0,2160.04613915872,3559.80831246786
70,104,1,6,-0.5,-0.5,-0.5,3,3,0.6,3,603,1,1,603,0,0,1,0.2,0.0125021762179297,0.0125021762179297,750,1,0,congruent,0,2018.84306284806,2593.0668082324
70,104,1,7,0.5,0.5,0,4,NaN,0.6,4,519,1,1,519,1,0,0.8,NaN,-0.697564604886734,-0.697564604886734,750,0,0,neutral,1,2684.0885312391,1655.1362517341
70,104,1,8,0.5,-0.5,0.5,3,4,0.6,3,724,1,1,724,0,0,0.8,NaN,1.03533646804727,1.03533646804727,750,0,0,incongruent,0,2746.99375974541,8343.53481234327
70,104,1,9,0.5,0.5,0,1,NaN,0.6,1,763,1,0,763,0,0,0.4,NaN,1.365010330703,1.365010330703,750,0,0,neutral,0,3114.80993973106,2253.98217573135
70,104,1,10,0.5,0.5,-0.5,2,2,0.4,2,845,1,0,845,0,0,0.4,NaN,2.0581707598766,2.0581707598766,750,1,0,congruent,0,12892.6384516063,9961.90768797538
70,104,1,11,0.5,0.5,0.5,3,1,0.2,3,725,1,1,725,1,0,0.4,NaN,1.0437896440128,1.0437896440128,750,0,0,incongruent,1,4568.33674068164,9684.61670323702
70,104,1,12,0.5,-0.5,0.5,4,2,0.4,4,513,1,1,513,1,0,0.8,NaN,-0.748283660679924,-0.748283660679924,750,0,0,incongruent,1,9117.64495251985,884.543525721371
70,104,1,13,0.5,0.5,0,3,NaN,0.4,3,710,1,1,710,1,0,0.8,NaN,0.916992004529823,0.916992004529823,750,0,0,neutral,1,1881.40374689173,9775.08489920491
70,104,1,14,-0.5,0.5,0.5,4,3,0.6,4,537,1,1,537,1,0,1.2,0,-0.545407437507163,-0.545407437507163,750,0,0,incongruent,0.1,2711.37267599588,2903.6614315308
70,104,1,15,0.5,-0.5,-0.5,1,1,0.6,3,538,0,1,NaN,0,0,1.4,NaN,-0.536954261541632,NaN,750,0,1,congruent,0,6333.27780830145,4041.07285002871
70,104,1,16,0.5,-0.5,0.5,3,2,0.6,3,686,1,1,686,1,0,1.4,NaN,0.714115781357062,0.714115781357062,750,0,0,incongruent,1,2100.79552111581,6518.15710203216
70,104,1,17,-0.5,-0.5,0.5,4,3,0.6,4,508,1,1,508,0,0,1.4,0.2,-0.790549540507583,-0.790549540507583,750,0,0,incongruent,0,926.713924281148,1376.59850480397
70,104,1,18,-0.5,-0.5,-0.5,1,1,0.6,1,483,1,1,483,1,0,1,0.2,-1.00187893964588,-1.00187893964588,750,1,0,congruent,0.1,3939.91680840531,1148.41352335721
70,104,1,19,-0.5,-0.5,0,3,NaN,0.6,3,501,1,1,501,0,0,0.8,0.4,-0.849721772266305,-0.849721772266305,750,0,0,neutral,0,3953.71744153915,1683.01498193039
70,104,1,20,0.5,-0.5,-0.5,1,1,0.6,3,580,0,1,NaN,1,0,0.6,NaN,-0.1819208709893,NaN,750,0,1,congruent,1,9456.85312160344,6203.15731696621
70,104,1,21,-0.5,-0.5,0.5,2,4,0.6,1,754,0,0,NaN,1,0,1,0.4,1.28893174701322,NaN,750,0,1,incongruent,0.1,6290.77878765468,10331.5872432343
70,104,1,22,0.5,-0.5,0.5,4,1,0.6,3,676,0,1,NaN,1,0,0.8,NaN,0.629584021701745,NaN,750,0,1,incongruent,1,5096.39943809075,5065.049282911
70,104,1,23,0.5,-0.5,0,3,NaN,0.6,3,586,1,1,586,1,0,1.2,NaN,-0.131201815196109,-0.131201815196109,750,0,0,neutral,1,8881.84247780085,5951.89089028467
70,104,1,24,-0.5,-0.5,-0.5,1,1,0.6,1,477,1,1,477,1,0,1.4,0.4,-1.05259799543907,-1.05259799543907,750,1,0,congruent,0.1,1728.93417437746,3425.38867693827
70,104,1,25,-0.5,-0.5,-0.5,2,2,0.6,2,559,1,1,559,0,0,1.6,0.6,-0.359437566265466,-0.359437566265466,750,1,0,congruent,0,891.951844192553,2243.38408742883
70,104,1,26,0.5,0.5,0,3,NaN,0.6,3,572,1,1,572,1,0,1.2,NaN,-0.249546278713553,-0.249546278713553,750,0,0,neutral,1,1658.94987438911,3636.84820854817
70,104,1,27,-0.5,-0.5,-0.5,1,1,0.8,1,651,1,1,651,1,0,1.4,0.6,0.418254622563452,0.418254622563452,750,1,0,congruent,0.1,3733.1376882338,2320.94738754172
70,104,1,28,-0.5,-0.5,0,4,NaN,0.8,4,520,1,1,520,0,0,1.2,0.6,-0.689111428921202,-0.689111428921202,750,0,0,neutral,0,6387.07551489852,5842.58757052561
70,104,1,29,0.5,-0.5,-0.5,1,1,0.8,1,345,1,1,345,1,0,0.8,NaN,-2.16841722288925,-2.16841722288925,750,1,0,congruent,1,4440.75172073705,1157.05663283083
70,104,1,30,0.5,0.5,0.5,2,3,0.8,2,668,1,1,668,1,0,1,NaN,0.561958613977491,0.561958613977491,750,0,0,incongruent,1,7993.56352055295,1804.72821852207
70,104,1,31,-0.5,-0.5,-0.5,4,4,1,4,447,1,1,447,1,0,1.4,0.6,-1.30619327440502,-1.30619327440502,750,1,0,congruent,0.1,1194.04352054527,1453.30038182541
70,104,1,32,0.5,0.5,-0.5,1,1,1,1,645,1,1,645,1,0,1.2,NaN,0.367535566770262,0.367535566770262,750,1,0,congruent,1,2397.80550592318,5640.81088534431
70,104,1,33,-0.5,0.5,0.5,4,2,1,4,859,1,0,859,0,0,1.4,0.2,2.17651522339405,2.17651522339405,750,0,0,incongruent,0,4882.08906097101,16759.4431490361
70,104,1,34,-0.5,-0.5,0,3,NaN,0.8,3,587,1,1,587,1,0,1.4,0.6,-0.122748639230578,-0.122748639230578,750,0,0,neutral,0.1,12365.6256701415,4576.66106296552
70,104,1,35,-0.5,0.5,-0.5,2,2,0.8,2,642,1,1,642,1,0,1.2,0.2,0.342176038873666,0.342176038873666,750,1,0,congruent,0.1,3831.45571909878,4319.99375324956
70,104,1,36,-0.5,0.5,-0.5,1,1,0.8,1,545,1,1,545,1,0,1,0.4,-0.47778202978291,-0.47778202978291,750,1,0,congruent,0.1,8144.79963544424,2746.50002468496
70,104,1,37,-0.5,0.5,0.5,2,3,0.8,3,709,0,1,NaN,0,0,1,0.6,0.908538828564291,NaN,750,1,0,incongruent,0,804.002194803713,4158.38092160721
70,104,1,38,0.5,0.5,0,4,NaN,0.6,4,497,1,1,497,1,0,0.6,NaN,-0.883534476128432,-0.883534476128432,750,0,0,neutral,1,2032.65289663533,623.71165457938
70,104,1,39,-0.5,0.5,-0.5,1,1,0.6,3,644,0,1,NaN,0,0,1,0.6,0.35908239080473,NaN,750,0,1,congruent,0,10280.3554046774,2798.29980977407
70,104,1,40,0.5,-0.5,0.5,3,2,0.6,3,855,1,0,855,1,0,0.8,NaN,2.14270251953192,2.14270251953192,750,0,0,incongruent,1,2984.30902420066,12026.9051912801
70,104,1,41,-0.5,0.5,0,4,NaN,0.6,4,499,1,1,499,1,0,1,0.4,-0.866628124197368,-0.866628124197368,750,0,0,neutral,0.1,1078.14349728365,2190.93330570822
70,104,1,42,0.5,-0.5,-0.5,1,1,0.6,1,670,1,1,670,1,0,1,NaN,0.578864965908554,0.578864965908554,750,1,0,congruent,1,5620.33234129026,3538.31733835783
70,104,1,43,-0.5,-0.5,0,4,NaN,0.6,4,485,1,1,485,1,0,1.4,0.6,-0.984972587714812,-0.984972587714812,750,0,0,neutral,0.1,1023.52115132626,5158.91146286539
70,104,1,44,-0.5,0.5,0.5,3,2,0.6,3,808,1,0,808,0,0,1.2,0.6,1.74540324915193,1.74540324915193,750,0,0,incongruent,0,493.548684083863,1125.69188005577
70,104,1,45,-0.5,0.5,0.5,4,3,0.4,4,659,1,1,659,1,0,1.2,0.4,0.485880030287706,0.485880030287706,750,0,0,incongruent,0.1,5921.36337449751,6313.67045582824
70,104,1,46,0.5,-0.5,0.5,1,4,0.6,1,862,1,0,862,0,0,1,NaN,2.20187475129064,2.20187475129064,750,0,0,incongruent,0,1832.4317978404,5095.51017569912
70,104,1,47,0.5,0.5,-0.5,3,3,0.6,3,532,1,1,532,1,0,0.8,NaN,-0.587673317334822,-0.587673317334822,750,1,0,congruent,1,1405.821987791,2966.08567381095
70,104,1,48,0.5,0.5,0,1,NaN,0.6,1,734,1,1,734,1,0,0.8,NaN,1.11986822770258,1.11986822770258,750,0,0,neutral,1,3068.70478810048,11764.5113778543
70,104,1,49,-0.5,0.5,0.5,2,4,0.8,2,850,1,0,850,0,0,1,0.4,2.10043663970426,2.10043663970426,750,0,0,incongruent,0,1577.61325876533,5710.55828340051
70,104,1,50,-0.5,-0.5,-0.5,1,1,0.6,1,678,1,1,678,1,0,1,0.8,0.646490373632808,0.646490373632808,750,1,0,congruent,0.1,1922.85660767728,3963.18550402514
70,104,1,51,-0.5,0.5,0,2,NaN,0.6,2,669,1,1,669,1,0,1,0.4,0.570411789943023,0.570411789943023,750,0,0,neutral,0.1,8864.80418336698,2426.86350362481
70,104,1,52,-0.5,-0.5,0.5,3,1,0.8,3,838,1,0,838,0,0,1.2,0.8,1.99899852811788,1.99899852811788,750,0,0,incongruent,0,1266.52422903767,1585.00627752263
70,104,1,53,0.5,0.5,0.5,4,2,0.8,4,601,1,1,601,1,0,0.8,NaN,-0.00440417571313373,-0.00440417571313373,750,0,0,incongruent,1,1194.1040998131,3966.71902116423
70,104,1,54,0.5,-0.5,0,1,NaN,0.8,1,604,1,1,604,1,0,0.8,NaN,0.0209553521834614,0.0209553521834614,750,0,0,neutral,1,6258.62318715776,10496.4545553796
70,104,1,55,-0.5,-0.5,-0.5,2,2,0.8,2,595,1,1,595,1,0,1.2,0.8,-0.055123231506324,-0.055123231506324,750,1,0,congruent,0.1,1120.72207501023,1258.90338606753
70,104,1,56,-0.5,-0.5,0.5,4,1,0.8,4,628,1,1,628,1,0,1.2,0.8,0.223831575356223,0.223831575356223,750,0,0,incongruent,0.1,2418.45381485779,7828.00856288494
70,104,1,57,0.5,-0.5,0.5,1,3,0.8,1,818,1,0,818,1,0,1.2,NaN,1.82993500880725,1.82993500880725,750,0,0,incongruent,1,6914.04450566628,4587.73216231199
70,104,1,58,-0.5,-0.5,0,4,NaN,0.8,4,618,1,1,618,0,0,1.6,0.8,0.139299815700905,0.139299815700905,750,0,0,neutral,0,1896.55950633984,3598.90958076624
70,104,1,59,-0.5,-0.5,-0.5,3,3,0.8,3,394,1,1,394,0,0,1.2,0.6,-1.7542116005782,-1.7542116005782,750,1,0,congruent,0,1713.76621362932,2657.7135118403
70,104,1,60,0.5,0.5,0,2,NaN,0.8,1,562,0,1,NaN,0,0,0.8,NaN,-0.334078038368871,NaN,750,0,1,neutral,0,9134.13135215594,4124.92391393909
70,104,1,61,-0.5,-0.5,0.5,4,1,0.6,4,763,1,0,763,1,0,0.6,0.4,1.365010330703,1.365010330703,750,0,0,incongruent,0.1,4941.35718070952,952.868252743285
70,104,1,62,-0.5,-0.5,-0.5,3,3,0.6,3,649,1,1,649,1,0,0.6,0.6,0.401348270632388,0.401348270632388,750,1,0,congruent,0.1,736.961027693362,2117.98355854233
70,104,1,63,-0.5,0.5,0,4,NaN,0.6,4,487,1,1,487,1,0,0.4,0.6,-0.968066235783749,-0.968066235783749,750,0,0,neutral,0.1,4165.52835930393,628.188206335345
70,104,1,64,0.5,0.5,-0.5,3,3,0.6,3,650,1,1,650,1,0,0.6,NaN,0.40980144659792,0.40980144659792,750,1,0,congruent,1,2336.84298280885,934.546632808509
70,104,1,65,0.5,0.5,0,4,NaN,0.8,4,475,1,1,475,1,0,1,NaN,-1.06950434737013,-1.06950434737013,750,0,0,neutral,1,3093.40703588756,1126.17018077451
70,104,1,66,-0.5,0.5,-0.5,3,3,0.8,3,576,1,1,576,1,0,1.4,0.6,-0.215733574851427,-0.215733574851427,750,1,0,congruent,0.1,1559.69694780603,1949.12175831347
70,104,1,68,0.5,-0.5,0.5,1,2,0.8,1,759,1,0,759,1,0,1.2,NaN,1.33119762684088,1.33119762684088,750,0,0,incongruent,1,4147.62438165956,5395.65003279027
70,104,1,69,0.5,-0.5,0,2,NaN,0.8,2,715,1,1,715,1,0,1.4,NaN,0.959257884357481,0.959257884357481,750,0,0,neutral,1,7637.14194760206,4998.51384219368
70,104,1,70,0.5,-0.5,0.5,1,4,0.8,1,849,1,0,849,1,0,1.4,NaN,2.09198346373873,2.09198346373873,750,0,0,incongruent,1,1884.25575931267,11703.6367573564
70,104,1,71,-0.5,-0.5,-0.5,2,2,0.8,2,475,1,1,475,1,0,1.4,0.6,-1.06950434737013,-1.06950434737013,750,1,0,congruent,0.1,2995.05409207646,2569.94998483022
70,104,1,72,0.5,0.5,-0.5,3,3,0.8,3,483,1,1,483,1,0,1.4,NaN,-1.00187893964588,-1.00187893964588,750,1,0,congruent,1,6121.69119918479,2314.28258522899
70,104,1,73,-0.5,-0.5,-0.5,2,2,0.8,1,668,0,1,NaN,1,0,1.8,0.6,0.561958613977491,NaN,750,0,1,congruent,0.1,10411.6798948012,4438.91910103123
70,104,1,74,0.5,0.5,0,3,NaN,0.8,3,621,1,1,621,1,0,1.6,NaN,0.164659343597501,0.164659343597501,750,0,0,neutral,1,4528.10606057948,3813.13891668227
70,104,1,75,-0.5,0.5,0.5,2,4,0.8,1,717,0,1,NaN,0,0,1.6,0.6,0.976164236288545,NaN,750,0,1,incongruent,0,4666.46536920019,3788.14499204333
70,104,1,77,-0.5,-0.5,-0.5,2,2,0.4,2,595,1,1,595,1,0,1,0.8,-0.055123231506324,-0.055123231506324,750,1,0,congruent,0.1,2348.21701194514,1611.17480657126
70,104,1,78,-0.5,-0.5,0.5,4,1,0.4,4,762,1,0,762,1,0,0.8,1,1.35655715473747,1.35655715473747,750,0,0,incongruent,0.1,1154.42560066746,1115.40898532538
70,104,1,79,0.5,-0.5,0,2,NaN,0.4,2,708,1,1,708,1,0,0.8,NaN,0.900085652598759,0.900085652598759,750,0,0,neutral,1,6510.33739017025,6486.52405222383
70,104,1,80,-0.5,-0.5,-0.5,3,3,0.4,3,494,1,1,494,0,0,0.8,1,-0.908894004025027,-0.908894004025027,750,1,0,congruent,0,1733.7753822596,525.419827956126
70,104,1,81,0.5,-0.5,0.5,4,1,0.4,4,855,1,0,855,1,0,0.8,NaN,2.14270251953192,2.14270251953192,750,0,0,incongruent,1,1631.38611480603,3842.8655256651
70,104,1,82,-0.5,-0.5,-0.5,3,3,0.4,3,555,1,1,555,1,0,1.2,0.8,-0.393250270127593,-0.393250270127593,750,1,0,congruent,0.1,3750.38210301398,2026.74218471762
70,104,1,83,-0.5,-0.5,-0.5,2,2,0.4,2,703,1,1,703,0,0,1.2,0.8,0.857819772771101,0.857819772771101,750,1,0,congruent,0,10319.541914176,6944.29897574974
70,104,1,84,-0.5,-0.5,0.5,4,1,0.4,4,536,1,1,536,0,0,1,0.6,-0.553860613472695,-0.553860613472695,750,0,0,incongruent,0,1369.6997067833,8272.83614245041
70,104,1,85,0.5,-0.5,0,1,NaN,0.4,1,671,1,1,671,1,0,0.6,NaN,0.587318141874086,0.587318141874086,750,0,0,neutral,1,9297.27387696295,4918.94572364837
70,104,1,86,0.5,0.5,0.5,2,3,0.4,4,683,0,1,NaN,0,0,1,NaN,0.688756253460467,NaN,750,0,1,incongruent,0,5055.15601458917,8277.41998665942
70,104,1,87,0.5,0.5,0,3,NaN,0.4,3,559,1,1,559,1,0,0.6,NaN,-0.359437566265466,-0.359437566265466,750,0,0,neutral,1,10132.8950436008,1956.19515289391
70,104,1,88,0.5,-0.5,-0.5,4,4,0.4,4,516,1,1,516,1,0,0.8,NaN,-0.722924132783329,-0.722924132783329,750,1,0,congruent,1,2261.44739141783,1492.78530064573
70,104,1,89,-0.5,-0.5,-0.5,2,2,0.4,2,529,1,1,529,1,0,1.2,0.4,-0.613032845231417,-0.613032845231417,750,1,0,congruent,0.1,5727.03690979301,1309.33535278103
70,104,1,90,-0.5,-0.5,0.5,4,3,0.4,4,717,1,1,717,0,0,1.4,0.4,0.976164236288545,0.976164236288545,750,0,0,incongruent,0,2748.80941368162,4422.82259932479
70,104,1,91,0.5,-0.5,0,1,NaN,0.4,2,544,0,1,NaN,1,0,1,NaN,-0.486235205748441,NaN,750,0,1,neutral,1,1107.05824085387,2278.03540454676
70,104,1,92,-0.5,-0.5,-0.5,3,3,0.4,3,545,1,1,545,0,0,1.4,0.4,-0.47778202978291,-0.47778202978291,750,1,0,congruent,0,3691.76869021912,3859.68113259998
70,104,1,93,-0.5,-0.5,0,2,NaN,0.4,1,637,0,1,NaN,0,0,1,0.2,0.299910159046008,NaN,750,0,1,neutral,0,4428.64402081049,11918.2867775576
70,104,1,94,0.5,-0.5,-0.5,4,4,0.4,4,365,1,1,365,1,0,0.6,NaN,-1.99935370357862,-1.99935370357862,750,1,0,congruent,1,822.331114804176,1749.89986410457
70,104,1,95,-0.5,0.5,-0.5,2,2,0.4,2,610,1,1,610,1,0,0.8,0.6,0.0716744079766517,0.0716744079766517,750,1,0,congruent,0.1,15179.2465202179,2850.8588913762
70,104,1,96,-0.5,0.5,-0.5,3,3,0.4,2,575,0,1,NaN,0,0,1,0.6,-0.224186750816958,NaN,750,0,1,congruent,0,17861.8358020357,1443.72222993888
70,104,1,97,0.5,-0.5,0,4,NaN,0.4,4,413,1,1,413,0,0,0.6,NaN,-1.5936012572331,-1.5936012572331,750,0,0,neutral,0,1567.82767223386,1595.86696152186
70,104,1,98,0.5,-0.5,-0.5,3,3,0.4,3,574,1,1,574,1,0,0.6,NaN,-0.23263992678249,-0.23263992678249,750,1,0,congruent,1,7586.79090313845,2025.44466980797
70,104,1,99,0.5,-0.5,-0.5,1,1,0.4,1,558,1,1,558,1,0,1,NaN,-0.367890742230997,-0.367890742230997,750,1,0,congruent,1,6058.5862336134,3457.81692458743
70,104,1,100,0.5,-0.5,0,2,NaN,0.4,2,608,1,1,608,0,0,1,NaN,0.0547680560455883,0.0547680560455883,750,0,0,neutral,0,3839.37763369047,1618.26666754035
70,104,1,101,0.5,-0.5,0.5,1,4,0.4,3,577,0,1,NaN,0,0,0.8,NaN,-0.207280398885895,NaN,750,0,1,incongruent,0,2457.81251815132,1040.6829438149
70,104,1,102,0.5,-0.5,0.5,4,3,0.4,4,627,1,1,627,0,0,0.8,NaN,0.215378399390691,0.215378399390691,750,0,0,incongruent,0,4163.68789593289,4341.90390832971
70,104,1,103,-0.5,-0.5,0,2,NaN,0.4,2,643,1,1,643,0,0,0.8,0.2,0.350629214839198,0.350629214839198,750,0,0,neutral,0,3217.84302458232,3506.70842333553
70,104,1,104,0.5,0.5,0.5,3,1,0.4,3,772,1,0,772,0,0,0.4,NaN,1.44108891439279,1.44108891439279,750,0,0,incongruent,0,8020.78434110974,2205.15296802217
70,104,1,105,0.5,-0.5,0.5,2,3,0.4,2,716,1,1,716,1,0,0,NaN,0.967711060323013,0.967711060323013,750,0,0,incongruent,1,6364.69468922178,2518.46964482035
70,104,1,106,-0.5,0.5,0,1,NaN,0.4,1,672,1,1,672,1,0,0.4,0.4,0.595771317839618,0.595771317839618,750,0,0,neutral,0.1,8277.75260157278,3557.29265947425
70,104,1,107,0.5,-0.5,-0.5,3,3,0.6,3,522,1,1,522,1,0,0.6,NaN,-0.672205076990139,-0.672205076990139,750,1,0,congruent,1,2115.97589427748,4308.88224506608
70,104,1,108,-0.5,-0.5,-0.5,1,1,0.6,1,630,1,1,630,1,0,1,0.2,0.240737927287286,0.240737927287286,750,1,0,congruent,0.1,9434.3675548769,2541.07591419352
70,104,1,109,-0.5,0.5,0.5,4,2,0.6,4,787,1,0,787,0,0,1.2,0.4,1.56788655387576,1.56788655387576,750,0,0,incongruent,0,4884.08939655062,3110.42026750654
70,104,1,110,-0.5,0.5,0,3,NaN,0.4,3,627,1,1,627,1,0,1.2,0.4,0.215378399390691,0.215378399390691,750,0,0,neutral,0.1,10866.5305688112,3425.43067405414
70,104,1,111,0.5,-0.5,-0.5,2,2,0.4,1,733,0,1,NaN,0,0,1,NaN,1.11141505173705,NaN,750,0,1,congruent,0,15567.548261866,10684.5806711813
70,104,1,112,-0.5,0.5,-0.5,4,4,0.4,4,717,1,1,717,1,0,0.8,0.6,0.976164236288545,0.976164236288545,750,1,0,congruent,0.1,3860.8369105949,11429.371720365
70,104,1,113,0.5,0.5,-0.5,3,3,0.6,3,447,1,1,447,1,0,0.6,NaN,-1.30619327440502,-1.30619327440502,750,1,0,congruent,1,1595.75696392648,4129.51549298175
70,104,1,114,0.5,0.5,0,1,NaN,0.8,1,601,1,1,601,1,0,0.8,NaN,-0.00440417571313373,-0.00440417571313373,750,0,0,neutral,1,1742.95150711249,5808.85784724035
70,104,1,115,0.5,0.5,0.5,2,1,0.8,3,810,0,0,NaN,0,0,1.2,NaN,1.76230960108299,NaN,750,0,1,incongruent,0,8022.64663746644,3699.28077803191
70,104,1,116,-0.5,0.5,0.5,3,4,0.8,3,696,1,1,696,1,0,1,0.6,0.798647541012379,0.798647541012379,750,0,0,incongruent,0.1,5113.04028508963,5050.51528013439
70,104,1,117,-0.5,0.5,0,2,NaN,0.8,2,670,1,1,670,1,0,1.2,0.8,0.578864965908554,0.578864965908554,750,0,0,neutral,0.1,1243.9989675646,1826.53569808024
70,104,1,118,-0.5,0.5,-0.5,3,3,0.8,3,594,1,1,594,1,0,1.2,0.8,-0.0635764074718557,-0.0635764074718557,750,1,0,congruent,0.1,12475.675414275,2640.30063278835
70,104,1,119,-0.5,0.5,0.5,4,1,0.8,4,490,1,1,490,1,0,1,1,-0.942706707887154,-0.942706707887154,750,0,0,incongruent,0.1,6101.05465910435,2299.60481512102
70,104,1,120,-0.5,-0.5,0.5,1,2,0.8,1,448,1,1,448,1,0,0.8,0.2,-1.29774009843949,-1.29774009843949,750,0,0,incongruent,0.1,3048.50384873792,930.947802005004
70,104,1,121,0.5,0.5,0.5,2,3,0.8,2,495,1,1,495,1,0,1,NaN,-0.900440828059495,-0.900440828059495,750,0,0,incongruent,1,3495.70803766922,3576.5898558524
70,104,1,122,-0.5,-0.5,0.5,1,4,1,2,599,0,1,NaN,1,0,1.2,0.4,-0.0213105276441972,NaN,750,0,1,incongruent,0.1,673.293246085334,5687.51000680003
70,104,1,123,-0.5,0.5,0,4,NaN,1,4,553,1,1,553,1,0,1.2,1,-0.410156622058656,-0.410156622058656,750,0,0,neutral,0.1,3151.42936522254,7464.46346864915
70,104,1,124,-0.5,0.5,-0.5,3,3,1,3,524,1,1,524,1,0,1.2,1,-0.655298725059075,-0.655298725059075,750,1,0,congruent,0.1,1095.23264390876,1992.1248838544
70,104,1,125,0.5,-0.5,-0.5,4,4,1,4,526,1,1,526,1,0,1.2,NaN,-0.638392373128012,-0.638392373128012,750,1,0,congruent,1,2968.53019135178,1127.72644713526
70,104,1,126,0.5,-0.5,-0.5,2,2,1,2,563,1,1,563,1,0,1.4,NaN,-0.325624862403339,-0.325624862403339,750,1,0,congruent,1,2543.53602190533,1357.48125046902
70,104,1,127,-0.5,-0.5,0.5,3,1,1,3,764,1,0,764,1,0,1.4,0.6,1.37346350666854,1.37346350666854,750,0,0,incongruent,0.1,6678.83879504843,2030.82946298461
70,104,1,128,0.5,0.5,0,2,NaN,1,2,631,1,1,631,1,0,1.4,NaN,0.249191103252818,0.249191103252818,750,0,0,neutral,1,5022.15363354383,1968.1502333408
70,104,1,129,-0.5,0.5,-0.5,4,4,1,4,520,1,1,520,1,0,1.6,1,-0.689111428921202,-0.689111428921202,750,1,0,congruent,0.1,3112.93094760082,2618.84911450909
70,104,1,130,0.5,0.5,0,1,NaN,1,2,559,0,1,NaN,0,0,1.6,NaN,-0.359437566265466,NaN,750,0,1,neutral,0,5553.6347316663,5701.65757488191
70,104,1,131,0.5,0.5,0.5,3,2,0.8,3,800,1,0,800,0,0,1.2,NaN,1.67777784142768,1.67777784142768,750,0,0,incongruent,0,3745.15388261581,1182.60912088929
70,104,1,132,0.5,-0.5,0.5,2,4,0.6,2,760,1,0,760,1,0,0.8,NaN,1.33965080280641,1.33965080280641,750,0,0,incongruent,1,854.49426422006,7266.96626059072
70,104,1,133,-0.5,-0.5,0,3,NaN,0.6,4,603,0,1,NaN,1,0,1,0.8,0.0125021762179297,NaN,750,0,1,neutral,0.1,1134.08829463715,4792.76566662435
70,104,1,134,-0.5,0.5,-0.5,4,4,0.6,4,580,1,1,580,1,0,0.8,1,-0.1819208709893,-0.1819208709893,750,1,0,congruent,0.1,1338.2584306375,4037.46057150434
70,104,1,135,0.5,0.5,0,3,NaN,0.6,3,604,1,1,604,1,0,0.8,NaN,0.0209553521834614,0.0209553521834614,750,0,0,neutral,1,5292.25573091859,2601.83368349248
70,104,1,136,0.5,0.5,0.5,4,3,0.6,4,307,1,1,307,1,0,1.2,NaN,-2.48963790957946,-2.48963790957946,750,0,0,incongruent,1,22280.2944643753,3235.81828580346
70,104,1,137,0.5,-0.5,0,3,NaN,0.6,3,473,1,1,473,0,0,1.6,NaN,-1.08641069930119,-1.08641069930119,750,0,0,neutral,0,3048.03194307644,2262.78845468211
70,104,1,138,-0.5,-0.5,-0.5,1,1,0.6,1,619,1,1,619,0,0,1.2,1,0.147752991666437,0.147752991666437,750,1,0,congruent,0,3254.89729671949,716.332255671073
70,104,1,139,0.5,0.5,-0.5,2,2,0.6,2,371,1,1,371,1,0,1,NaN,-1.94863464778543,-1.94863464778543,750,1,0,congruent,1,2626.17512144745,1729.43112315758
70,104,1,140,-0.5,0.5,-0.5,4,4,0.8,4,586,1,1,586,1,0,1.2,1,-0.131201815196109,-0.131201815196109,750,1,0,congruent,0.1,1702.08136942863,1434.70663254368
70,104,1,141,-0.5,-0.5,0.5,2,1,1,2,832,1,0,832,1,0,1,0.8,1.94827947232469,1.94827947232469,750,0,0,incongruent,0.1,2320.87783181874,1680.99695388179
70,104,1,142,0.5,-0.5,0,3,NaN,1,3,619,1,1,619,1,0,0.8,NaN,0.147752991666437,0.147752991666437,750,0,0,neutral,1,9476.17440254579,2348.08803354612
70,104,1,143,0.5,0.5,0.5,4,2,1,4,466,1,1,466,1,0,1.2,NaN,-1.14558293105991,-1.14558293105991,750,0,0,incongruent,1,5426.2476137518,4718.86664875143
70,104,1,145,0.5,0.5,0.5,3,2,1,3,517,1,1,517,1,0,1.6,NaN,-0.714470956817797,-0.714470956817797,750,0,0,incongruent,1,10279.9617677109,3438.84809791516
70,104,1,146,0.5,-0.5,-0.5,4,4,1,4,611,1,1,611,1,0,1.8,NaN,0.0801275839421834,0.0801275839421834,750,1,0,congruent,1,628.90271431455,4042.93548936135
70,104,1,147,-0.5,-0.5,0.5,3,1,1,3,819,1,0,819,1,0,2,0.8,1.83838818477278,1.83838818477278,750,0,0,incongruent,0.1,2317.24961473302,10177.8904731948
70,104,1,148,-0.5,0.5,0,1,NaN,1,1,782,1,0,782,0,0,1.8,1,1.52562067404811,1.52562067404811,750,0,0,neutral,0,3418.8379013447,6608.8284241271
70,104,1,149,0.5,0.5,-0.5,2,2,0.8,2,717,1,1,717,1,0,1.4,NaN,0.976164236288545,0.976164236288545,750,1,0,congruent,1,5104.93470205888,8411.03656171193
70,104,1,150,0.5,0.5,-0.5,1,1,0.8,1,642,1,1,642,1,0,1.4,NaN,0.342176038873666,0.342176038873666,750,1,0,congruent,1,4060.28447152363,6194.98343515059
70,104,2,152,-0.5,-0.5,-0.5,3,3,0.6,3,534,1,1,534,1,0,1,0.8,-0.570766965403758,-0.570766965403758,750,1,0,congruent,0.1,7902.56987797037,3198.751610369
70,104,2,153,0.5,0.5,-0.5,4,4,0.6,4,490,1,1,490,1,0,1,NaN,-0.942706707887154,-0.942706707887154,750,1,0,congruent,1,507.247389557151,981.010543527261
70,104,2,154,0.5,0.5,-0.5,3,3,0.6,3,540,1,1,540,1,0,1.4,NaN,-0.520047909610568,-0.520047909610568,750,1,0,congruent,1,9209.1117808039,6200.14701040259
70,104,2,155,0.5,0.5,0.5,4,2,0.8,4,712,1,1,712,1,0,1.4,NaN,0.933898356460886,0.933898356460886,750,0,0,incongruent,1,1868.45091904568,866.299404831089
70,104,2,156,-0.5,0.5,-0.5,1,1,0.8,1,692,1,1,692,1,0,1.4,0.8,0.764834837150252,0.764834837150252,750,1,0,congruent,0.1,2439.21023856066,8139.86489258057
70,104,2,157,-0.5,-0.5,-0.5,2,2,0.8,2,498,1,1,498,1,0,1.6,0.8,-0.8750813001629,-0.8750813001629,750,1,0,congruent,0.1,1947.78139690218,3772.73991621345
70,104,2,158,0.5,0.5,0,4,NaN,0.8,4,542,1,1,542,1,0,1.6,NaN,-0.503141557679505,-0.503141557679505,750,0,0,neutral,1,1305.35401336112,3389.46052849751
70,104,2,159,-0.5,-0.5,-0.5,1,1,1,1,654,1,1,654,1,0,1.6,0.8,0.443614150460047,0.443614150460047,750,1,0,congruent,0.1,3085.17256236132,7757.988463942
70,104,2,160,-0.5,-0.5,0,3,NaN,1,3,604,1,1,604,1,0,1.4,1,0.0209553521834614,0.0209553521834614,750,0,0,neutral,0.1,5388.35684670861,2207.54809580409
70,104,2,161,0.5,-0.5,0.5,1,3,1,1,603,1,1,603,1,0,1.2,NaN,0.0125021762179297,0.0125021762179297,750,0,0,incongruent,1,11574.7242179267,2492.31466125438
70,104,2,162,0.5,-0.5,0.5,4,1,1,4,782,1,0,782,1,0,1.4,NaN,1.52562067404811,1.52562067404811,750,0,0,incongruent,1,12551.2662229637,2365.65193678528
70,104,2,163,0.5,-0.5,0,3,NaN,1,3,480,1,1,480,1,0,1.6,NaN,-1.02723846754247,-1.02723846754247,750,0,0,neutral,1,3846.90243998675,1626.85532508131
70,104,2,164,0.5,-0.5,-0.5,2,2,1,2,674,1,1,674,1,0,1.6,NaN,0.612677669770681,0.612677669770681,750,1,0,congruent,1,3548.47434610647,3975.86122793899
70,104,2,165,0.5,0.5,0,4,NaN,1,4,527,1,1,527,1,0,1.8,NaN,-0.62993919716248,-0.62993919716248,750,0,0,neutral,1,3272.89008446687,4599.04859601548
70,104,2,166,0.5,-0.5,-0.5,3,3,1,3,487,1,1,487,1,0,2,NaN,-0.968066235783749,-0.968066235783749,750,1,0,congruent,1,2748.70184904151,3306.47947523429
70,104,2,167,-0.5,-0.5,-0.5,4,4,1,4,542,1,1,542,1,0,2,1,-0.503141557679505,-0.503141557679505,750,1,0,congruent,0.1,733.777944487642,1684.75284266314
70,104,2,168,-0.5,-0.5,0.5,1,3,1,3,660,0,1,NaN,1,0,1.8,1,0.494333206253237,NaN,750,1,0,incongruent,0.1,5774.55699317453,5645.06474432104
70,104,2,169,0.5,-0.5,-0.5,2,2,1,2,472,1,1,472,1,0,1.6,NaN,-1.09486387526672,-1.09486387526672,750,1,0,congruent,1,11930.8485735608,4701.11309074264
70,104,2,170,-0.5,-0.5,0.5,4,3,1,4,875,1,0,875,1,0,1.6,1,2.31176603884256,2.31176603884256,750,0,0,incongruent,0.1,5671.52330313094,6740.95239871738
70,104,2,171,0.5,0.5,-0.5,2,2,1,2,605,1,1,605,1,0,1.4,NaN,0.0294085281489931,0.0294085281489931,750,1,0,congruent,1,2433.26678210165,3453.20197250295
70,104,2,173,0.5,0.5,-0.5,4,4,1,4,512,1,1,512,1,0,1.6,NaN,-0.756736836645456,-0.756736836645456,750,1,0,congruent,1,2764.01810682292,1667.19229584828
70,104,2,174,-0.5,-0.5,-0.5,1,1,1,2,658,0,1,NaN,1,0,1.8,1,0.477426854322174,NaN,750,0,1,congruent,0.1,4607.03579385513,753.285693433827
70,104,2,175,0.5,-0.5,-0.5,2,2,1,2,537,1,1,537,1,0,1.6,NaN,-0.545407437507163,-0.545407437507163,750,1,0,congruent,1,1634.9824093215,2072.34396780089
70,104,2,176,0.5,-0.5,0,1,NaN,1,1,680,1,1,680,1,0,1.8,NaN,0.663396725563872,0.663396725563872,750,0,0,neutral,1,4240.85553514581,14172.564703894
70,104,2,177,-0.5,-0.5,-0.5,3,3,1,2,539,0,1,NaN,1,0,1.8,1,-0.5285010855761,NaN,750,0,1,congruent,0.1,13409.1821425537,4486.43852432521
70,104,2,178,0.5,0.5,0.5,4,1,1,4,572,1,1,572,1,0,1.6,NaN,-0.249546278713553,-0.249546278713553,750,0,0,incongruent,1,2174.850491659,538.483626586599
70,104,2,179,0.5,0.5,0,3,NaN,1,3,564,1,1,564,1,0,1.6,NaN,-0.317171686437807,-0.317171686437807,750,0,0,neutral,1,3040.03868906199,3140.8712041566
70,104,2,180,-0.5,-0.5,-0.5,2,2,1,2,555,1,1,555,1,0,1.8,1,-0.393250270127593,-0.393250270127593,750,1,0,congruent,0.1,7029.43483840119,2396.15892844808
70,104,2,181,0.5,0.5,-0.5,4,4,1,4,567,1,1,567,1,0,1.6,NaN,-0.291812158541212,-0.291812158541212,750,1,0,congruent,1,5168.93121557186,2730.87506829977
70,104,2,182,-0.5,-0.5,0.5,1,3,1,1,822,1,0,822,1,0,1.6,1,1.86374771266937,1.86374771266937,750,0,0,incongruent,0.1,4882.07197027703,7320.04317174628
70,104,2,183,-0.5,-0.5,-0.5,2,2,1,2,636,1,1,636,1,0,1.6,1,0.291456983080476,0.291456983080476,750,1,0,congruent,0.1,1984.05199212588,12013.5360945587
70,104,2,184,0.5,-0.5,0,1,NaN,1,1,621,1,1,621,1,0,1.4,NaN,0.164659343597501,0.164659343597501,750,0,0,neutral,1,4546.61488686283,2876.16756564845
70,104,2,185,-0.5,-0.5,0.5,3,1,1,4,615,0,1,NaN,1,0,1.4,1,0.11394028780431,NaN,750,0,1,incongruent,0.1,6582.51371061289,751.579980002201
70,104,2,186,-0.5,-0.5,-0.5,4,4,1,4,447,1,1,447,1,0,1.4,1,-1.30619327440502,-1.30619327440502,750,1,0,congruent,0.1,1308.79990449349,651.240970287243
70,104,2,187,-0.5,-0.5,0,3,NaN,1,3,493,1,1,493,1,0,1.2,1,-0.917347179990559,-0.917347179990559,750,0,0,neutral,0.1,2583.25986482158,2274.00656802559
70,104,2,188,0.5,0.5,-0.5,2,2,1,2,644,1,1,644,1,0,1.2,NaN,0.35908239080473,0.35908239080473,750,1,0,congruent,1,1207.83689216298,3258.82578066733
70,104,2,189,-0.5,0.5,0,1,NaN,1,1,623,1,1,623,1,0,1.4,0.8,0.181565695528564,0.181565695528564,750,0,0,neutral,0.1,6204.42126268657,1355.71199372074
70,104,2,190,-0.5,0.5,-0.5,2,2,1,2,509,1,1,509,1,0,1.2,0.8,-0.782096364542051,-0.782096364542051,750,1,0,congruent,0.1,2543.15326017109,3787.95216386113
70,104,2,192,-0.5,-0.5,0.5,4,2,1,4,737,1,1,737,1,0,1.2,1,1.14522775559918,1.14522775559918,750,0,0,incongruent,0.1,8606.13146019399,6497.88816582238
70,104,2,193,0.5,-0.5,-0.5,3,3,1,3,467,1,1,467,1,0,1.2,NaN,-1.13712975509438,-1.13712975509438,750,1,0,congruent,1,1178.22196355904,5263.33508804397
70,104,2,194,-0.5,-0.5,0,1,NaN,1,1,559,1,1,559,1,0,1.2,1,-0.359437566265466,-0.359437566265466,750,0,0,neutral,0.1,3301.66222117836,2078.00398322324
70,104,2,195,-0.5,0.5,0.5,3,1,1,3,809,1,0,809,0,0,1.2,0.8,1.75385642511746,1.75385642511746,750,0,0,incongruent,0,3727.47625517647,9629.1549524792
70,104,2,196,0.5,0.5,0.5,1,3,0.8,1,593,1,1,593,1,0,1,NaN,-0.0720295834373874,-0.0720295834373874,750,0,0,incongruent,1,2845.50202144143,5194.11250371994
70,104,2,197,-0.5,-0.5,0.5,4,2,0.8,4,700,1,1,700,1,0,1.2,1,0.832460244874506,0.832460244874506,750,0,0,incongruent,0.1,4913.53192196123,3193.44796421488
70,104,2,198,-0.5,0.5,0.5,1,4,0.8,1,626,1,1,626,1,0,1.2,0.6,0.206925223425159,0.206925223425159,750,0,0,incongruent,0.1,1754.03412787849,4010.21663681865
70,104,2,199,0.5,0.5,0.5,2,1,0.8,2,722,1,1,722,1,0,1,NaN,1.0184301161162,1.0184301161162,750,0,0,incongruent,1,3425.19823750097,2509.6843946915
70,104,2,200,-0.5,-0.5,-0.5,3,3,0.8,3,658,1,1,658,1,0,1.2,1,0.477426854322174,0.477426854322174,750,1,0,congruent,0.1,3978.44580444122,5782.7679403574
70,104,2,201,-0.5,0.5,0.5,4,1,0.8,4,637,1,1,637,1,0,1.4,0.8,0.299910159046008,0.299910159046008,750,0,0,incongruent,0.1,12861.5056058344,3520.1169539552
70,104,2,202,0.5,0.5,-0.5,2,2,0.8,1,541,0,1,NaN,0,0,1.2,NaN,-0.511594733645036,NaN,750,0,1,congruent,0,1814.7145095908,1619.37580584152
70,104,2,203,-0.5,0.5,0,1,NaN,0.8,1,599,1,1,599,1,0,1,0.8,-0.0213105276441972,-0.0213105276441972,750,0,0,neutral,0.1,13797.9628564477,10172.6047758177
70,104,2,204,-0.5,0.5,-0.5,3,3,0.8,3,369,1,1,369,1,0,1,0.8,-1.96554099971649,-1.96554099971649,750,1,0,congruent,0.1,5291.95497474108,1403.82163570314
70,104,2,205,0.5,0.5,-0.5,1,1,0.8,1,473,1,1,473,1,0,0.8,NaN,-1.08641069930119,-1.08641069930119,750,1,0,congruent,1,6961.892825914,3085.18879206218
70,104,2,206,0.5,-0.5,0,4,NaN,0.8,4,577,1,1,577,1,0,1,NaN,-0.207280398885895,-0.207280398885895,750,0,0,neutral,1,6438.08953142441,2527.76475052385
70,104,2,207,0.5,0.5,-0.5,2,2,0.8,2,489,1,1,489,1,0,1.2,NaN,-0.951159883852685,-0.951159883852685,750,1,0,congruent,1,5137.54147251142,1334.57632933146
70,104,2,208,-0.5,0.5,-0.5,1,1,0.8,1,459,1,1,459,1,0,1.6,0.8,-1.20475516281864,-1.20475516281864,750,1,0,congruent,0.1,3960.14109131912,611.579183893239
70,104,2,209,-0.5,0.5,-0.5,2,2,1,2,634,1,1,634,1,0,1.6,1,0.274550631149413,0.274550631149413,750,1,0,congruent,0.1,4543.62136049762,3868.65128293953
70,104,2,210,0.5,0.5,0,4,NaN,1,4,457,1,1,457,1,0,1.6,NaN,-1.2216615147497,-1.2216615147497,750,0,0,neutral,1,1643.1653047684,569.554419527712
70,104,2,211,0.5,0.5,-0.5,3,3,1,3,790,1,0,790,0,0,1.6,NaN,1.59324608177236,1.59324608177236,750,1,0,congruent,0,4512.32364854202,2746.92809075348
70,104,2,212,-0.5,-0.5,-0.5,1,1,0.8,2,488,0,1,NaN,1,0,1.2,1,-0.959613059818217,NaN,750,0,1,congruent,0.1,1598.56714291961,2213.03774847089
70,104,2,213,-0.5,-0.5,0,2,NaN,0.8,2,493,1,1,493,1,0,1,1,-0.917347179990559,-0.917347179990559,750,0,0,neutral,0.1,2257.39960716956,1423.95666110298
70,104,2,214,0.5,-0.5,0.5,3,4,0.8,4,718,0,1,NaN,1,0,1,NaN,0.984617412254077,NaN,750,1,0,incongruent,1,2651.96660322847,2244.12094006815
70,104,2,215,0.5,-0.5,0.5,4,1,0.8,4,630,1,1,630,1,0,1.2,NaN,0.240737927287286,0.240737927287286,750,0,0,incongruent,1,1323.78510027768,6426.00216296005
70,104,2,216,0.5,0.5,-0.5,3,3,0.8,3,325,1,1,325,1,0,1.2,NaN,-2.33748074219989,-2.33748074219989,750,1,0,congruent,1,1701.79725799084,1758.65529539746
70,104,2,217,0.5,0.5,-0.5,1,1,0.8,1,359,1,1,359,1,0,1.6,NaN,-2.05007275937181,-2.05007275937181,750,1,0,congruent,1,2196.43489366424,303.280247480374
70,104,2,218,-0.5,0.5,0,4,NaN,0.8,4,538,1,1,538,1,0,1.8,1,-0.536954261541632,-0.536954261541632,750,0,0,neutral,0.1,1870.66560712985,869.770652979694
70,104,2,219,0.5,-0.5,-0.5,1,1,0.8,1,518,1,1,518,1,0,1.8,NaN,-0.706017780852266,-0.706017780852266,750,1,0,congruent,1,5534.8981436786,4325.31275336811
70,104,2,220,-0.5,0.5,0.5,2,4,0.8,2,312,1,1,312,1,0,1.8,1,-2.4473720297518,-2.4473720297518,750,0,0,incongruent,0.1,11360.8209680625,289.428870420131
70,104,2,221,0.5,0.5,-0.5,3,3,0.8,3,766,1,0,766,0,0,1.6,NaN,1.3903698585996,1.3903698585996,750,1,0,congruent,0,7996.12315980561,11799.6028631461
70,104,2,222,0.5,0.5,0.5,4,1,0.8,4,618,1,1,618,1,0,1.2,NaN,0.139299815700905,0.139299815700905,750,0,0,incongruent,1,9866.2401090086,1840.52057910584
70,104,2,223,-0.5,-0.5,-0.5,3,3,0.8,3,472,1,1,472,1,0,1.2,1,-1.09486387526672,-1.09486387526672,750,1,0,congruent,0.1,5136.40645662857,1440.99745905981
70,104,2,224,-0.5,-0.5,0,2,NaN,0.8,1,638,0,1,NaN,1,0,1.2,1,0.30836333501154,NaN,750,0,1,neutral,0.1,6442.90993550398,5032.16986323752
70,104,2,225,0.5,0.5,0.5,1,4,0.8,1,671,1,1,671,1,0,1,NaN,0.587318141874086,0.587318141874086,750,0,0,incongruent,1,5233.44896940589,1186.62251166172
70,104,2,227,-0.5,-0.5,-0.5,3,3,0.8,3,541,1,1,541,1,0,1.4,1,-0.511594733645036,-0.511594733645036,750,1,0,congruent,0.1,4555.91929002763,2750.56459111167
70,104,2,228,0.5,-0.5,-0.5,2,2,0.8,2,527,1,1,527,1,0,1.2,NaN,-0.62993919716248,-0.62993919716248,750,1,0,congruent,1,4966.2573290037,1968.98735426134
70,104,2,229,0.5,-0.5,0.5,1,3,0.8,1,348,1,1,348,1,0,1.4,NaN,-2.14305769499266,-2.14305769499266,750,0,0,incongruent,1,18378.3337810327,1385.00810049026
70,104,2,230,0.5,0.5,0,2,NaN,0.8,2,673,1,1,673,1,0,1.6,NaN,0.60422449380515,0.60422449380515,750,0,0,neutral,1,4974.6325130722,4767.43567569744
70,104,2,231,0.5,0.5,-0.5,3,3,0.8,3,637,1,1,637,1,0,1.6,NaN,0.299910159046008,0.299910159046008,750,1,0,congruent,1,1987.82206639355,6089.69857083859
70,104,2,232,0.5,-0.5,-0.5,4,4,1,4,473,1,1,473,1,0,1.8,NaN,-1.08641069930119,-1.08641069930119,750,1,0,congruent,1,1000.07545256119,658.980100396319
70,104,2,233,0.5,-0.5,0.5,1,3,1,1,795,1,0,795,1,0,2,NaN,1.63551196160002,1.63551196160002,750,0,0,incongruent,1,1572.69913135165,6868.73037317326
70,104,2,234,0.5,0.5,-0.5,4,4,1,4,554,1,1,554,1,0,2,NaN,-0.401703446093124,-0.401703446093124,750,1,0,congruent,1,2041.06152545509,2651.02604738923
70,104,2,235,-0.5,0.5,0.5,1,3,1,1,725,1,1,725,1,0,2,1,1.0437896440128,1.0437896440128,750,0,0,incongruent,0.1,6836.22122874796,4798.40458744572
70,104,2,236,-0.5,-0.5,0.5,4,2,1,4,534,1,1,534,1,0,1.8,1,-0.570766965403758,-0.570766965403758,750,0,0,incongruent,0.1,543.959360790595,2712.63878174208
70,104,2,237,0.5,0.5,0.5,3,1,1,3,791,1,0,791,0,0,1.6,NaN,1.60169925773789,1.60169925773789,750,0,0,incongruent,0,6313.32359484183,4621.07896826071
70,104,2,238,0.5,-0.5,0.5,1,4,0.8,1,806,1,0,806,1,0,1.2,NaN,1.72849689722087,1.72849689722087,750,0,0,incongruent,1,9967.19900953874,2138.41480555062
70,104,2,239,-0.5,-0.5,0,2,NaN,0.8,4,460,0,1,NaN,1,0,1.2,1,-1.19630198685311,NaN,750,0,1,neutral,0.1,14029.5694913772,1610.94807631793
70,104,2,240,0.5,0.5,0.5,3,4,0.8,3,747,1,1,747,1,0,1,NaN,1.2297595152545,1.2297595152545,750,0,0,incongruent,1,8409.46313912918,2502.91881107258
70,104,2,241,-0.5,-0.5,-0.5,1,1,0.8,1,511,1,1,511,1,0,1.2,1,-0.765190012610988,-0.765190012610988,750,1,0,congruent,0.1,2542.58150278026,1000.91007618303
70,104,2,242,0.5,-0.5,0,2,NaN,0.8,2,682,1,1,682,1,0,1.2,NaN,0.680303077494935,0.680303077494935,750,0,0,neutral,1,2748.3583491976,15464.1649362256
70,104,2,243,-0.5,-0.5,-0.5,3,3,0.8,3,605,1,1,605,1,0,1.6,1,0.0294085281489931,0.0294085281489931,750,1,0,congruent,0.1,5481.28563610281,3826.87463963464
70,104,2,244,-0.5,-0.5,-0.5,2,2,0.8,2,696,1,1,696,0,0,1.4,1,0.798647541012379,0.798647541012379,750,1,0,congruent,0,2491.50288099035,7323.67619563818
70,104,2,245,0.5,-0.5,0.5,4,1,0.8,3,736,0,1,NaN,1,0,1.2,NaN,1.13677457963365,NaN,750,0,1,incongruent,1,4796.28581410815,505.132004402084
70,104,2,246,0.5,-0.5,-0.5,3,3,0.8,3,516,1,1,516,1,0,1.2,NaN,-0.722924132783329,-0.722924132783329,750,1,0,congruent,1,7312.56749888227,1397.34963701675
70,104,2,247,-0.5,-0.5,0.5,2,4,0.8,2,712,1,1,712,1,0,1.4,0.8,0.933898356460886,0.933898356460886,750,0,0,incongruent,0.1,4966.85125159258,5332.42666001738
70,104,2,248,0.5,0.5,0.5,4,3,0.8,3,580,0,1,NaN,0,0,1.2,NaN,-0.1819208709893,NaN,750,1,0,incongruent,0,6510.44510659736,1165.69640886065
70,104,2,249,-0.5,-0.5,0,1,NaN,0.6,1,662,1,1,662,0,0,1,0.8,0.511239558184301,0.511239558184301,750,0,0,neutral,0,4718.58835469206,1907.53778063339
70,104,2,250,-0.5,-0.5,-0.5,4,4,0.6,4,482,1,1,482,0,0,1,0.6,-1.01033211561141,-1.01033211561141,750,1,0,congruent,0,933.253403941781,1510.36537157891
70,104,2,252,0.5,-0.5,0.5,4,3,0.6,4,703,1,1,703,0,0,0.2,NaN,0.857819772771101,0.857819772771101,750,0,0,incongruent,0,5071.1262760199,5390.22342499876
70,104,2,253,0.5,-0.5,-0.5,2,2,0.6,2,641,1,1,641,1,0,0,NaN,0.333722862908135,0.333722862908135,750,1,0,congruent,1,1322.58129890469,4382.84024852978
70,104,2,254,-0.5,0.5,0,1,NaN,0.6,1,641,1,1,641,1,0,0.4,1,0.333722862908135,0.333722862908135,750,0,0,neutral,0.1,4875.74177696014,5025.98231200771
70,104,2,255,0.5,-0.5,-0.5,4,4,0.6,4,480,1,1,480,1,0,0.6,NaN,-1.02723846754247,-1.02723846754247,750,1,0,congruent,1,4788.54803946855,1861.96920852954
70,104,2,256,0.5,0.5,0,1,NaN,0.6,1,591,1,1,591,1,0,1,NaN,-0.0889359353684508,-0.0889359353684508,750,0,0,neutral,1,4876.96448833492,1631.91613086053
70,104,2,257,-0.5,0.5,-0.5,2,2,0.6,2,753,1,0,753,0,0,1.4,1,1.28047857104769,1.28047857104769,750,1,0,congruent,0,7460.54873209759,10941.5240357596
70,104,2,258,0.5,0.5,-0.5,1,1,0.6,1,582,1,1,582,1,0,1.4,NaN,-0.165014519058236,-0.165014519058236,750,1,0,congruent,1,3322.07286657656,3596.94486148626
70,104,2,259,-0.5,0.5,0,3,NaN,0.6,3,613,1,1,613,1,0,1.4,0.8,0.0970339358732468,0.0970339358732468,750,0,0,neutral,0.1,8684.95761666626,3259.06394061109
70,104,2,260,-0.5,0.5,-0.5,2,2,0.8,2,765,1,0,765,0,0,1.4,0.8,1.38191668263407,1.38191668263407,750,1,0,congruent,0,4639.00158754771,11025.9040343013
70,104,2,262,-0.5,0.5,0.5,3,4,0.4,3,727,1,1,727,1,0,0.6,0.4,1.06069599594386,1.06069599594386,750,0,0,incongruent,0.1,3952.20380391576,1352.88964533742
70,104,2,263,0.5,0.5,0,2,NaN,0.6,2,726,1,1,726,1,0,0.8,NaN,1.05224281997833,1.05224281997833,750,0,0,neutral,1,3407.02556392791,4414.70369467973
70,104,2,264,-0.5,0.5,-0.5,1,1,0.6,1,581,1,1,581,1,0,0.8,0.4,-0.173467695023768,-0.173467695023768,750,1,0,congruent,0.1,1422.4978407658,4451.04552467065
70,104,2,265,-0.5,0.5,0.5,4,3,0.6,4,569,1,1,569,1,0,0.8,0.6,-0.274905806610149,-0.274905806610149,750,0,0,incongruent,0.1,2876.26558308362,1646.18978641899
70,104,2,266,-0.5,-0.5,0.5,3,1,0.8,3,365,1,1,365,1,0,1,0.2,-1.99935370357862,-1.99935370357862,750,0,0,incongruent,0.1,3993.30890917499,2945.52499555524
70,104,2,267,0.5,-0.5,-0.5,4,4,0.8,4,568,1,1,568,1,0,1.2,NaN,-0.28335898257568,-0.28335898257568,750,1,0,congruent,1,4230.10111369359,8651.23559381991
70,104,2,268,0.5,-0.5,-0.5,3,3,0.8,3,570,1,1,570,1,0,1.4,NaN,-0.266452630644617,-0.266452630644617,750,1,0,congruent,1,3509.8346254848,2717.55499994511
70,104,2,269,0.5,-0.5,0,2,NaN,0.8,1,553,0,1,NaN,1,0,1.4,NaN,-0.410156622058656,NaN,750,0,1,neutral,1,5138.04240470529,1253.30830856603
70,104,2,270,0.5,0.5,0.5,3,1,0.8,3,537,1,1,537,1,0,1.6,NaN,-0.545407437507163,-0.545407437507163,750,0,0,incongruent,1,15293.7966315934,2505.48201539774
70,104,2,271,-0.5,-0.5,0,2,NaN,1,2,601,1,1,601,1,0,1.8,0.4,-0.00440417571313373,-0.00440417571313373,750,0,0,neutral,0.1,9723.99247087988,896.800086960335
70,104,2,272,0.5,-0.5,-0.5,4,4,1,4,425,1,1,425,1,0,1.8,NaN,-1.49216314564672,-1.49216314564672,750,1,0,congruent,1,5252.62085606164,2225.84613508376
70,104,2,273,-0.5,-0.5,-0.5,3,3,1,3,375,1,1,375,1,0,1.8,0.4,-1.9148219439233,-1.9148219439233,750,1,0,congruent,0.1,3352.19110484178,1125.07867329279
70,104,2,274,-0.5,-0.5,0,2,NaN,1,2,537,1,1,537,1,0,1.6,0.6,-0.545407437507163,-0.545407437507163,750,0,0,neutral,0.1,6462.08122025978,4629.40137325769
70,104,2,275,0.5,-0.5,-0.5,1,1,1,2,518,0,1,NaN,1,0,1.4,NaN,-0.706017780852266,NaN,750,0,1,congruent,1,14796.5125508679,4235.02588586292
70,104,2,276,0.5,0.5,-0.5,4,4,1,4,534,1,1,534,1,0,1.4,NaN,-0.570766965403758,-0.570766965403758,750,1,0,congruent,1,7445.77939885467,3456.21691167732
70,104,2,277,0.5,-0.5,0,1,NaN,1,1,454,1,1,454,1,0,1.6,NaN,-1.2470210426463,-1.2470210426463,750,0,0,neutral,1,6972.22384038999,2789.19358500277
70,104,2,278,0.5,-0.5,-0.5,4,4,1,4,474,1,1,474,1,0,1.6,NaN,-1.07795752333566,-1.07795752333566,750,1,0,congruent,1,4154.62538546677,2025.43264293966
70,104,2,279,-0.5,-0.5,-0.5,2,2,1,2,583,1,1,583,1,0,1.8,0.8,-0.156561343092705,-0.156561343092705,750,1,0,congruent,0.1,4307.7137244531,2572.54156794039
70,104,2,280,0.5,-0.5,0,4,NaN,1,4,530,1,1,530,1,0,1.8,NaN,-0.604579669265885,-0.604579669265885,750,0,0,neutral,1,5730.18304793425,2924.57766497138
70,104,2,281,0.5,0.5,0.5,3,2,1,3,600,1,1,600,1,0,1.8,NaN,-0.0128573516786654,-0.0128573516786654,750,0,0,incongruent,1,2336.20141662746,3359.00766135267
70,104,2,282,-0.5,0.5,-0.5,4,4,1,4,469,1,1,469,1,0,1.8,0.6,-1.12022340316332,-1.12022340316332,750,1,0,congruent,0.1,7586.50314920198,2328.12334676766
70,104,2,283,0.5,-0.5,0.5,1,2,1,1,716,1,1,716,1,0,1.6,NaN,0.967711060323013,0.967711060323013,750,0,0,incongruent,1,2960.35515323313,7350.88401779174
70,104,2,284,-0.5,-0.5,0.5,4,1,1,4,748,1,1,748,1,0,1.6,1,1.23821269122003,1.23821269122003,750,0,0,incongruent,0.1,1432.28778410298,5190.09410183368
70,104,2,285,-0.5,0.5,0,2,NaN,1,2,541,1,1,541,1,0,1.6,0.8,-0.511594733645036,-0.511594733645036,750,0,0,neutral,0.1,3317.49746770839,4291.4203387292
70,104,2,286,-0.5,-0.5,0.5,1,2,1,1,704,1,1,704,1,0,1.4,1,0.866272948736633,0.866272948736633,750,0,0,incongruent,0.1,8120.84117150053,7628.0656093876
70,104,2,287,-0.5,-0.5,-0.5,3,3,1,3,552,1,1,552,1,0,1.2,1,-0.418609798024188,-0.418609798024188,750,1,0,congruent,0.1,4926.65547150825,2099.02340692837
70,104,2,288,-0.5,-0.5,0.5,1,2,1,1,533,1,1,533,1,0,1.2,1,-0.57922014136929,-0.57922014136929,750,0,0,incongruent,0.1,8037.35016705209,2253.46120568087
70,104,2,289,-0.5,-0.5,0,2,NaN,1,2,549,1,1,549,1,0,1,1,-0.443969325920783,-0.443969325920783,750,0,0,neutral,0.1,1308.42039992774,5165.02490644227
70,104,2,290,0.5,-0.5,0.5,3,4,1,3,652,1,1,652,1,0,1,NaN,0.426707798528984,0.426707798528984,750,0,0,incongruent,1,2186.99006166845,9372.30768851047
70,104,2,291,-0.5,-0.5,0,4,NaN,1,4,570,1,1,570,1,0,1.2,1,-0.266452630644617,-0.266452630644617,750,0,0,neutral,0.1,6350.33373136267,4583.46357721669
70,104,2,292,-0.5,0.5,-0.5,1,1,1,1,479,1,1,479,1,0,1.2,1,-1.035691643508,-1.035691643508,750,1,0,congruent,0.1,2447.83599767618,4768.45037745673
70,104,2,293,0.5,0.5,0,2,NaN,1,2,574,1,1,574,1,0,1.2,NaN,-0.23263992678249,-0.23263992678249,750,0,0,neutral,1,11288.953540174,1276.83924012425
70,104,2,294,-0.5,-0.5,0.5,4,3,1,3,616,0,1,NaN,1,0,1.4,1,0.122393463769842,NaN,750,1,0,incongruent,0.1,10438.1481839758,4790.43485137561
70,104,2,295,0.5,0.5,0,2,NaN,1,2,600,1,1,600,1,0,1.4,NaN,-0.0128573516786654,-0.0128573516786654,750,0,0,neutral,1,1009.94032656508,7864.73041658711
70,104,2,296,-0.5,0.5,-0.5,1,1,1,3,623,0,1,NaN,0,0,1.4,1,0.181565695528564,NaN,750,0,1,congruent,0,5062.0253070579,5181.31560601115
70,104,2,297,0.5,0.5,0.5,2,3,0.8,2,887,1,0,887,0,0,1.2,NaN,2.41320415042894,2.41320415042894,750,0,0,incongruent,0,8576.22942876167,6821.69990591599
70,104,2,298,-0.5,-0.5,-0.5,4,4,0.6,4,589,1,1,589,1,0,1,1,-0.105842287299514,-0.105842287299514,750,1,0,congruent,0.1,2309.11866386759,4560.3552448808
70,104,2,299,-0.5,0.5,-0.5,3,3,0.6,3,469,1,1,469,1,0,0.8,0.8,-1.12022340316332,-1.12022340316332,750,1,0,congruent,0.1,2879.67825920101,1334.91688367387
70,104,2,300,-0.5,-0.5,-0.5,4,4,0.6,4,412,1,1,412,1,0,0.8,1,-1.60205443319863,-1.60205443319863,750,1,0,congruent,0.1,2787.17658295877,380.75561498186
70,104,3,303,0.5,0.5,0,3,NaN,0.4,3,560,1,1,560,1,0,1,NaN,-0.350984390299934,-0.350984390299934,750,0,0,neutral,1,1078.89160318065,3378.6473152397
70,104,3,304,0.5,-0.5,-0.5,1,1,0.6,1,579,1,1,579,0,0,1.2,NaN,-0.190374046954831,-0.190374046954831,750,1,0,congruent,0,1449.80653925079,3014.21856842463
70,104,3,305,0.5,0.5,-0.5,4,4,0.6,4,456,1,1,456,1,0,1,NaN,-1.23011469071523,-1.23011469071523,750,1,0,congruent,1,4251.05975225226,587.947268068767
70,104,3,306,-0.5,-0.5,0,2,NaN,0.8,2,610,1,1,610,0,0,1.2,1,0.0716744079766517,0.0716744079766517,750,0,0,neutral,0,5416.02253931756,1556.47555623417
70,104,3,307,0.5,-0.5,-0.5,4,4,0.8,4,519,1,1,519,1,0,1.2,NaN,-0.697564604886734,-0.697564604886734,750,1,0,congruent,1,3970.16445911258,1856.0549603391
70,104,3,308,0.5,-0.5,0.5,1,3,0.8,1,768,1,0,768,1,0,1.2,NaN,1.40727621053066,1.40727621053066,750,0,0,incongruent,1,6957.3976026369,1852.10042546074
70,104,3,309,0.5,-0.5,0,2,NaN,0.8,2,465,1,1,465,1,0,1.2,NaN,-1.15403610702545,-1.15403610702545,750,0,0,neutral,1,2728.07363697351,3152.81822751998
70,104,3,311,-0.5,-0.5,0,3,NaN,0.8,3,766,1,0,766,1,0,1.6,0.8,1.3903698585996,1.3903698585996,750,0,0,neutral,0.1,5337.71176072648,2253.55579154031
70,104,3,312,-0.5,0.5,-0.5,1,1,0.8,1,532,1,1,532,1,0,1.8,0.6,-0.587673317334822,-0.587673317334822,750,1,0,congruent,0.1,3146.19643667155,1376.70760732127
70,104,3,313,-0.5,0.5,0.5,2,3,0.8,2,634,1,1,634,1,0,1.6,0.6,0.274550631149413,0.274550631149413,750,0,0,incongruent,0.1,2401.17184423388,3502.60862451547
70,104,3,314,0.5,0.5,-0.5,4,4,1,4,563,1,1,563,1,0,1.4,NaN,-0.325624862403339,-0.325624862403339,750,1,0,congruent,1,2794.2862494813,7044.11504568485
70,104,3,315,-0.5,0.5,0.5,1,2,1,1,786,1,0,786,0,0,1.4,0.6,1.55943337791023,1.55943337791023,750,0,0,incongruent,0,3141.41883855236,3830.73852325281
70,104,3,316,-0.5,-0.5,0.5,4,3,0.8,4,881,1,0,881,1,0,1,0.8,2.36248509463575,2.36248509463575,750,0,0,incongruent,0.1,4220.96440132248,2604.13930448513
70,104,3,318,-0.5,-0.5,0,3,NaN,0.8,2,549,0,1,NaN,1,0,1.2,0.8,-0.443969325920783,NaN,750,0,1,neutral,0.1,2563.26936849347,3461.15258581781
70,104,3,319,-0.5,0.5,-0.5,1,1,0.8,1,653,1,1,653,1,0,1.2,0.6,0.435160974494515,0.435160974494515,750,1,0,congruent,0.1,5786.42810767327,3497.07076390707
70,104,3,320,-0.5,0.5,0.5,4,2,0.8,4,495,1,1,495,1,0,1,0.6,-0.900440828059495,-0.900440828059495,750,0,0,incongruent,0.1,10511.5192943852,3273.22371076993
70,104,3,321,0.5,0.5,-0.5,3,3,0.8,3,588,1,1,588,1,0,1.2,NaN,-0.114295463265046,-0.114295463265046,750,1,0,congruent,1,5251.12354163632,8648.90815637944
70,104,3,322,0.5,0.5,0,2,NaN,0.8,2,683,1,1,683,1,0,1.4,NaN,0.688756253460467,0.688756253460467,750,0,0,neutral,1,12665.8526211894,9044.05908258295
70,104,3,323,0.5,-0.5,-0.5,1,1,0.8,1,490,1,1,490,1,0,1.4,NaN,-0.942706707887154,-0.942706707887154,750,1,0,congruent,1,6803.11832494922,4449.84032824478
70,104,3,324,-0.5,-0.5,0,3,NaN,0.8,3,615,1,1,615,1,0,1.6,0.8,0.11394028780431,0.11394028780431,750,0,0,neutral,0.1,13228.8024953673,4552.45942494389
70,104,3,325,0.5,0.5,0.5,1,3,0.8,1,608,1,1,608,1,0,1.6,NaN,0.0547680560455883,0.0547680560455883,750,0,0,incongruent,1,3687.38082157367,4481.31146565208
70,104,3,326,0.5,0.5,-0.5,2,2,1,2,605,1,1,605,1,0,1.8,NaN,0.0294085281489931,0.0294085281489931,750,1,0,congruent,1,7775.94640046059,4500.35045568252
70,104,3,327,-0.5,0.5,0,3,NaN,1,2,461,0,1,NaN,0,0,1.8,0.8,-1.18784881088757,NaN,750,0,1,neutral,0,11261.9646367608,3552.92876038859
70,104,3,328,-0.5,-0.5,0.5,4,1,0.8,4,608,1,1,608,1,0,1.4,0.8,0.0547680560455883,0.0547680560455883,750,0,0,incongruent,0.1,1957.91281665642,5388.55170743369
70,104,3,329,0.5,-0.5,0,1,NaN,0.8,1,557,1,1,557,1,0,1.2,NaN,-0.376343918196529,-0.376343918196529,750,0,0,neutral,1,3432.16396679073,8274.42297699658
70,104,3,331,-0.5,-0.5,-0.5,3,3,0.8,3,437,1,1,437,1,0,1.2,1,-1.39072503406033,-1.39072503406033,750,1,0,congruent,0.1,3358.95068234193,930.797171141059
70,104,3,332,-0.5,-0.5,0.5,1,2,0.8,2,515,0,1,NaN,1,0,1,1,-0.731377308748861,NaN,750,1,0,incongruent,0.1,4717.9820035322,974.625315308248
70,104,3,333,0.5,0.5,0.5,3,4,0.8,3,804,1,0,804,0,0,1.2,NaN,1.7115905452898,1.7115905452898,750,0,0,incongruent,0,4015.28945979298,6264.24795705869
70,104,3,334,-0.5,-0.5,0.5,4,1,0.6,4,553,1,1,553,1,0,1,1,-0.410156622058656,-0.410156622058656,750,0,0,incongruent,0.1,5594.19596208417,1808.56700175916
70,104,3,335,0.5,-0.5,0.5,3,4,0.6,3,530,1,1,530,0,0,0.8,NaN,-0.604579669265885,-0.604579669265885,750,0,0,incongruent,0,1393.46805460898,783.913027482409
70,104,3,336,0.5,-0.5,-0.5,1,1,0.6,3,549,0,1,NaN,0,0,0.6,NaN,-0.443969325920783,NaN,750,0,1,congruent,0,9753.8006297097,4486.64926891036
70,104,3,337,0.5,0.5,-0.5,3,3,0.6,3,522,1,1,522,1,0,0.4,NaN,-0.672205076990139,-0.672205076990139,750,1,0,congruent,1,3268.45745786878,3408.88682127645
70,104,3,338,-0.5,-0.5,0,4,NaN,0.6,4,542,1,1,542,0,0,0.6,1,-0.503141557679505,-0.503141557679505,750,0,0,neutral,0,5865.16541717988,1506.25879445152
70,104,3,339,0.5,-0.5,-0.5,2,2,0.6,2,512,1,1,512,0,0,0.6,NaN,-0.756736836645456,-0.756736836645456,750,1,0,congruent,0,2432.40140397789,3890.56718700698
70,104,3,340,-0.5,-0.5,0.5,4,1,0.6,4,817,1,0,817,0,0,0.4,0.8,1.82148183284172,1.82148183284172,750,0,0,incongruent,0,2309.72932508005,12037.2922538724
70,104,3,341,-0.5,0.5,0,2,NaN,0.6,2,747,1,1,747,1,0,0.4,0.6,1.2297595152545,1.2297595152545,750,0,0,neutral,0.1,11282.2242214234,6694.88970475766
70,104,3,342,0.5,0.5,0.5,1,4,0.6,1,782,1,0,782,0,0,0.6,NaN,1.52562067404811,1.52562067404811,750,0,0,incongruent,0,4346.06437780946,3569.68896838879
70,104,3,343,-0.5,-0.5,0,4,NaN,0.6,4,638,1,1,638,1,0,0.2,0.6,0.30836333501154,0.30836333501154,750,0,0,neutral,0.1,5810.05893518956,8591.17945571623
70,104,3,344,-0.5,0.5,0.5,3,2,0.6,3,785,1,0,785,0,0,0.4,0.8,1.5509802019447,1.5509802019447,750,0,0,incongruent,0,4120.26609975117,3039.47709596922
70,104,3,345,-0.5,0.5,0,4,NaN,0.4,4,739,1,1,739,1,0,0.4,0.6,1.16213410753024,1.16213410753024,750,0,0,neutral,0.1,3416.53661730918,3484.60805632842
70,104,3,346,-0.5,0.5,-0.5,1,1,0.6,1,566,1,1,566,1,0,0.6,0.6,-0.300265334506744,-0.300265334506744,750,1,0,congruent,0.1,9937.36061239317,1472.78775279798
70,104,3,347,-0.5,0.5,-0.5,4,4,0.6,4,339,1,1,339,1,0,0.6,0.8,-2.21913627868244,-2.21913627868244,750,1,0,congruent,0.1,1695.61955803492,883.895396311299
70,104,3,348,0.5,0.5,0,2,NaN,0.6,2,499,1,1,499,1,0,0.8,NaN,-0.866628124197368,-0.866628124197368,750,0,0,neutral,1,5133.86687992119,3236.35925606119
70,104,3,349,-0.5,0.5,-0.5,4,4,0.8,4,460,1,1,460,1,0,1,0.8,-1.19630198685311,-1.19630198685311,750,1,0,congruent,0.1,1957.48327094296,4297.15550292932
70,104,3,351,-0.5,0.5,0.5,3,2,1,3,617,1,1,617,1,0,1.4,0.8,0.130846639735374,0.130846639735374,750,0,0,incongruent,0.1,733.745032691557,189.549368638158
70,104,3,352,0.5,-0.5,0.5,2,1,1,2,779,1,0,779,1,0,1.4,NaN,1.50026114615151,1.50026114615151,750,0,0,incongruent,1,3844.89428274555,1209.28052139016
70,104,3,353,-0.5,0.5,0,1,NaN,1,1,636,1,1,636,1,0,1.6,1,0.291456983080476,0.291456983080476,750,0,0,neutral,0.1,3108.83015720454,4306.47632263915
70,104,3,354,0.5,0.5,-0.5,4,4,1,4,529,1,1,529,1,0,1.4,NaN,-0.613032845231417,-0.613032845231417,750,1,0,congruent,1,5610.3874594627,2506.33169903084
70,104,3,355,0.5,0.5,0.5,3,1,1,3,545,1,1,545,1,0,1.6,NaN,-0.47778202978291,-0.47778202978291,750,0,0,incongruent,1,1646.48421181041,1993.78113583626
70,104,3,356,0.5,0.5,-0.5,4,4,1,4,426,1,1,426,1,0,1.6,NaN,-1.48370996968118,-1.48370996968118,750,1,0,congruent,1,4769.76651618389,1065.90381764668
70,104,3,357,0.5,-0.5,0.5,2,1,1,1,712,0,1,NaN,1,0,1.8,NaN,0.933898356460886,NaN,750,1,0,incongruent,1,5790.3719646998,6200.67241832595
70,104,3,359,0.5,-0.5,-0.5,1,1,1,1,526,1,1,526,1,0,1.8,NaN,-0.638392373128012,-0.638392373128012,750,1,0,congruent,1,1760.8222696366,4611.1591982516
70,104,3,360,-0.5,-0.5,0,4,NaN,1,4,605,1,1,605,1,0,1.8,0.6,0.0294085281489931,0.0294085281489931,750,0,0,neutral,0.1,3114.9766682746,5057.70528023749
70,104,3,361,-0.5,0.5,0.5,2,3,1,2,868,1,0,868,0,0,1.6,1,2.25259380708383,2.25259380708383,750,0,0,incongruent,0,5113.78237289797,4770.51333910817
70,104,3,362,-0.5,-0.5,0,4,NaN,0.8,4,531,1,1,531,1,0,1.2,0.6,-0.596126493300354,-0.596126493300354,750,0,0,neutral,0.1,6733.79221883353,1783.4162498447
70,104,3,363,0.5,-0.5,-0.5,3,3,0.8,3,568,1,1,568,1,0,1,NaN,-0.28335898257568,-0.28335898257568,750,1,0,congruent,1,5175.62249640885,2517.54092018533
70,104,3,364,0.5,0.5,-0.5,4,4,0.8,4,428,1,1,428,1,0,1.2,NaN,-1.46680361775012,-1.46680361775012,750,1,0,congruent,1,5237.90289609898,2881.25612306613
70,104,3,365,0.5,-0.5,0.5,2,3,0.8,3,612,0,1,NaN,1,0,1.2,NaN,0.0885807599077151,NaN,750,1,0,incongruent,1,4241.36691609951,3123.85231007528
70,104,3,366,0.5,0.5,0,1,NaN,0.8,1,623,1,1,623,1,0,1.4,NaN,0.181565695528564,0.181565695528564,750,0,0,neutral,1,2436.3708537621,4943.36404017008
70,104,3,367,-0.5,0.5,-0.5,3,3,0.8,3,618,1,1,618,1,0,1.8,0.8,0.139299815700905,0.139299815700905,750,1,0,congruent,0.1,2191.79682288884,2107.38391934037
70,104,3,368,0.5,-0.5,-0.5,2,2,0.8,2,542,1,1,542,1,0,1.8,NaN,-0.503141557679505,-0.503141557679505,750,1,0,congruent,1,3485.94413888245,1911.51496676601
70,104,3,369,-0.5,-0.5,-0.5,3,3,0.8,3,429,1,1,429,0,0,1.8,0.8,-1.45835044178459,-1.45835044178459,750,1,0,congruent,0,2142.71881086014,1764.81528981968
70,104,3,370,0.5,-0.5,0.5,2,4,0.8,2,887,1,0,887,1,0,1.4,NaN,2.41320415042894,2.41320415042894,750,0,0,incongruent,1,5745.02082670929,7040.24900069753
70,104,3,371,-0.5,-0.5,-0.5,3,3,0.8,3,556,1,1,556,1,0,1.4,0.8,-0.384797094162061,-0.384797094162061,750,1,0,congruent,0.1,4749.75222245893,6674.72919299007
70,104,3,372,-0.5,-0.5,0,1,NaN,0.8,1,690,1,1,690,1,0,1.2,0.8,0.747928485219189,0.747928485219189,750,0,0,neutral,0.1,1592.78239603331,2536.17092328853
70,104,3,373,0.5,-0.5,0.5,3,2,0.8,3,720,1,1,720,1,0,1.2,NaN,1.00152376418514,1.00152376418514,750,0,0,incongruent,1,8687.10601281728,1542.96888725146
70,104,3,375,0.5,-0.5,-0.5,4,4,0.8,4,429,1,1,429,1,0,1.6,NaN,-1.45835044178459,-1.45835044178459,750,1,0,congruent,1,9245.03463788706,3187.7551741954
70,104,3,376,0.5,-0.5,0.5,3,2,0.8,3,630,1,1,630,1,0,1.6,NaN,0.240737927287286,0.240737927287286,750,0,0,incongruent,1,2715.30475785662,4865.50894333565
70,104,3,377,-0.5,-0.5,0.5,2,4,0.8,2,808,1,0,808,0,0,1.8,0.8,1.74540324915193,1.74540324915193,750,0,0,incongruent,0,4598.39596747315,4436.46611303678
70,104,3,378,-0.5,-0.5,0,1,NaN,0.8,1,538,1,1,538,1,0,1.6,0.6,-0.536954261541632,-0.536954261541632,750,0,0,neutral,0.1,3517.65953093625,2682.74455298252
70,104,3,379,-0.5,0.5,-0.5,4,4,0.8,4,386,1,1,386,1,0,1.4,0.8,-1.82183700830245,-1.82183700830245,750,1,0,congruent,0.1,1447.82121924675,674.024813745388
70,104,3,380,-0.5,-0.5,0,3,NaN,1,3,375,1,1,375,1,0,1.2,0.6,-1.9148219439233,-1.9148219439233,750,0,0,neutral,0.1,4411.27605246626,2485.83565320748
70,104,3,381,0.5,0.5,0.5,2,3,1,2,657,1,1,657,1,0,1,NaN,0.468973678356642,0.468973678356642,750,0,0,incongruent,1,6465.61944990613,5258.67811505671
70,104,3,382,0.5,-0.5,0.5,1,2,1,1,470,1,1,470,1,0,1,NaN,-1.11177022719779,-1.11177022719779,750,0,0,incongruent,1,3361.97250396727,3880.86662249348
70,104,3,383,0.5,-0.5,0,3,NaN,1,2,445,0,1,NaN,1,0,1.4,NaN,-1.32309962633608,NaN,750,0,1,neutral,1,13778.9806423746,1288.66512939182
70,104,3,384,-0.5,-0.5,-0.5,2,2,1,2,536,1,1,536,1,0,1.6,0.8,-0.553860613472695,-0.553860613472695,750,1,0,congruent,0.1,4850.31508639355,1368.9784316965
70,104,3,385,-0.5,0.5,-0.5,1,1,1,1,576,1,1,576,1,0,1.6,0.8,-0.215733574851427,-0.215733574851427,750,1,0,congruent,0.1,10351.0244467413,1954.9360254133
70,104,3,386,0.5,-0.5,0,4,NaN,1,4,629,1,1,629,1,0,1.6,NaN,0.232284751321754,0.232284751321754,750,0,0,neutral,1,11221.4497541543,743.719558327186
70,104,3,387,-0.5,0.5,-0.5,3,3,1,3,555,1,1,555,1,0,1.6,0.8,-0.393250270127593,-0.393250270127593,750,1,0,congruent,0.1,2937.35975059548,2750.26514916675
70,104,3,388,0.5,-0.5,-0.5,1,1,1,1,589,1,1,589,1,0,1.4,NaN,-0.105842287299514,-0.105842287299514,750,1,0,congruent,1,2033.67252211884,4754.62928196454
70,104,3,389,0.5,0.5,-0.5,3,3,1,3,459,1,1,459,1,0,1.4,NaN,-1.20475516281864,-1.20475516281864,750,1,0,congruent,1,5674.78015564592,1919.61450077727
70,104,3,390,-0.5,0.5,-0.5,1,1,1,1,421,1,1,421,1,0,1.6,0.8,-1.52597584950884,-1.52597584950884,750,1,0,congruent,0.1,6410.12195794352,852.621567964226
70,104,3,391,-0.5,0.5,0.5,4,3,1,4,623,1,1,623,1,0,1.6,1,0.181565695528564,0.181565695528564,750,0,0,incongruent,0.1,4851.75539440141,1246.78411184332
70,104,3,392,-0.5,-0.5,-0.5,2,2,1,2,607,1,1,607,1,0,1.4,0.8,0.0463148800800565,0.0463148800800565,750,1,0,congruent,0.1,8959.20441248682,2296.72017900054
70,104,3,393,-0.5,-0.5,0.5,3,4,1,3,521,1,1,521,1,0,1.4,0.8,-0.680658252955671,-0.680658252955671,750,0,0,incongruent,0.1,878.743779309161,1588.95288686137
70,104,3,394,0.5,-0.5,0,1,NaN,1,1,535,1,1,535,1,0,1.2,NaN,-0.562313789438227,-0.562313789438227,750,0,0,neutral,1,3631.37080787068,2244.58646603301
70,104,3,395,-0.5,-0.5,-0.5,4,4,1,4,442,1,1,442,1,0,1.2,1,-1.34845915423268,-1.34845915423268,750,1,0,congruent,0.1,1927.53460007649,1619.42774607786
70,104,3,397,0.5,0.5,-0.5,2,2,1,2,661,1,1,661,1,0,1.4,NaN,0.502786382218769,0.502786382218769,750,1,0,congruent,1,4114.97235911106,2761.04522728061
70,104,3,398,-0.5,-0.5,0.5,1,3,1,1,622,1,1,622,1,0,1.6,1,0.173112519563032,0.173112519563032,750,0,0,incongruent,0.1,2387.92952741678,1476.90855078389
70,104,3,399,-0.5,-0.5,-0.5,2,2,1,2,477,1,1,477,1,0,1.6,1,-1.05259799543907,-1.05259799543907,750,1,0,congruent,0.1,2412.39445170722,7876.84141434622
70,104,3,401,-0.5,-0.5,-0.5,3,3,1,3,496,1,1,496,1,0,1.4,1,-0.891987652093963,-0.891987652093963,750,1,0,congruent,0.1,2049.4351230422,1475.4363163152
70,104,3,402,0.5,0.5,-0.5,2,2,1,1,635,0,1,NaN,0,0,1.2,NaN,0.283003807114944,NaN,750,0,1,congruent,0,7278.30563993203,3319.83800241735
70,104,3,403,-0.5,-0.5,-0.5,3,3,0.8,3,424,1,1,424,0,0,0.8,1,-1.50061632161225,-1.50061632161225,750,1,0,congruent,0,5281.4301677667,3713.00713444518
70,104,3,404,-0.5,0.5,0.5,2,1,0.8,2,634,1,1,634,1,0,0.6,1,0.274550631149413,0.274550631149413,750,0,0,incongruent,0.1,4221.82483184804,1882.47244608439
70,104,3,405,-0.5,0.5,0.5,3,4,0.8,3,703,1,1,703,1,0,0.6,1,0.857819772771101,0.857819772771101,750,0,0,incongruent,0.1,6737.09405351373,1320.00906130989
70,104,3,407,-0.5,0.5,-0.5,4,4,0.8,4,530,1,1,530,1,0,0.6,1,-0.604579669265885,-0.604579669265885,750,1,0,congruent,0.1,2028.74682448496,4066.00570351086
70,104,3,408,0.5,-0.5,0.5,2,3,0.8,3,527,0,1,NaN,1,0,0.8,NaN,-0.62993919716248,NaN,750,1,0,incongruent,1,1434.05185574842,1504.87216371634
70,104,3,409,-0.5,-0.5,-0.5,4,4,0.8,4,439,1,1,439,1,0,1.2,0.8,-1.37381868212927,-1.37381868212927,750,1,0,congruent,0.1,1864.27537256851,3318.92854208372
70,104,3,410,-0.5,0.5,0.5,3,1,0.8,3,527,1,1,527,1,0,1.2,1,-0.62993919716248,-0.62993919716248,750,0,0,incongruent,0.1,1999.02047444508,4241.63416775425
70,104,3,411,-0.5,0.5,-0.5,2,2,0.8,2,516,1,1,516,1,0,1.2,1,-0.722924132783329,-0.722924132783329,750,1,0,congruent,0.1,4783.76565429862,3305.0986906572
70,104,3,412,-0.5,-0.5,0,1,NaN,1,1,529,1,1,529,1,0,1.2,0.8,-0.613032845231417,-0.613032845231417,750,0,0,neutral,0.1,3636.49933285516,4312.03093557731
70,104,3,413,0.5,-0.5,-0.5,2,2,1,2,550,1,1,550,1,0,1.2,NaN,-0.435516149955251,-0.435516149955251,750,1,0,congruent,1,3622.42636075292,1468.45329239113
70,104,3,414,0.5,-0.5,0.5,4,3,1,4,796,1,0,796,1,0,1.2,NaN,1.64396513756555,1.64396513756555,750,0,0,incongruent,1,3558.70810521195,10166.4941241423
70,104,3,415,0.5,0.5,0,3,NaN,1,3,617,1,1,617,1,0,1.4,NaN,0.130846639735374,0.130846639735374,750,0,0,neutral,1,4758.25321485021,5699.60391591185
70,104,3,416,-0.5,0.5,-0.5,1,1,1,1,472,1,1,472,1,0,1.6,1,-1.09486387526672,-1.09486387526672,750,1,0,congruent,0.1,11268.9841216475,2702.77242470728
70,104,3,417,-0.5,-0.5,0.5,3,4,1,3,678,1,1,678,1,0,1.6,0.8,0.646490373632808,0.646490373632808,750,0,0,incongruent,0.1,3009.73151383686,3962.56054602182
70,104,3,418,-0.5,-0.5,-0.5,2,2,1,2,463,1,1,463,1,0,1.6,0.8,-1.17094245895651,-1.17094245895651,750,1,0,congruent,0.1,1985.88818501552,1520.91507363685
70,104,3,419,0.5,-0.5,-0.5,1,1,1,1,630,1,1,630,1,0,1.4,NaN,0.240737927287286,0.240737927287286,750,1,0,congruent,1,2489.76438771445,1657.5338357926
70,104,3,420,0.5,0.5,0,2,NaN,1,2,549,1,1,549,1,0,1.4,NaN,-0.443969325920783,-0.443969325920783,750,0,0,neutral,1,1273.63938514543,831.295411696297
70,104,3,421,0.5,-0.5,-0.5,1,1,1,1,500,1,1,500,1,0,1.4,NaN,-0.858174948231837,-0.858174948231837,750,1,0,congruent,1,6373.24242210924,837.696363136874
70,104,3,422,0.5,-0.5,0.5,3,4,1,3,433,1,1,433,1,0,1.6,NaN,-1.42453773792246,-1.42453773792246,750,0,0,incongruent,1,1512.65553067728,11432.3823549695
70,104,3,423,-0.5,-0.5,0,1,NaN,1,1,514,1,1,514,1,0,1.8,1,-0.739830484714393,-0.739830484714393,750,0,0,neutral,0.1,2679.26838187081,2862.97629962205
70,104,3,424,-0.5,0.5,-0.5,4,4,1,4,553,1,1,553,1,0,1.8,1,-0.410156622058656,-0.410156622058656,750,1,0,congruent,0.1,4117.54953490349,1595.07022278569
70,104,3,425,0.5,-0.5,0,1,NaN,1,1,516,1,1,516,1,0,1.6,NaN,-0.722924132783329,-0.722924132783329,750,0,0,neutral,1,1717.3894299878,1240.39021058873
70,104,3,426,-0.5,0.5,-0.5,2,2,1,2,615,1,1,615,1,0,1.6,1,0.11394028780431,0.11394028780431,750,1,0,congruent,0.1,11587.9216292975,4414.98196394596
70,104,3,428,0.5,-0.5,-0.5,2,2,1,2,506,1,1,506,1,0,1.4,NaN,-0.807455892438646,-0.807455892438646,750,1,0,congruent,1,5620.17131676291,5875.50414379392
70,104,3,429,0.5,0.5,0,4,NaN,1,4,839,1,0,839,0,0,1.6,NaN,2.00745170408341,2.00745170408341,750,0,0,neutral,0,3978.48863548709,10581.1294207938
70,104,3,430,-0.5,0.5,0.5,3,2,0.8,3,899,1,0,899,0,0,1.4,1,2.51464226201532,2.51464226201532,750,0,0,incongruent,0,3469.10095519912,3870.32686368463
70,104,3,431,0.5,0.5,0,4,NaN,0.6,4,552,1,1,552,1,0,1,NaN,-0.418609798024188,-0.418609798024188,750,0,0,neutral,1,6437.52611466978,2578.25006398371
70,104,3,432,0.5,-0.5,-0.5,1,1,0.6,1,477,1,1,477,1,0,1.2,NaN,-1.05259799543907,-1.05259799543907,750,1,0,congruent,1,7796.53357651693,2294.23472131486
70,104,3,433,-0.5,0.5,0,3,NaN,0.6,3,655,1,1,655,1,0,1.2,0.8,0.452067326425579,0.452067326425579,750,0,0,neutral,0.1,1713.02983508418,4045.10735228478
70,104,3,434,0.5,-0.5,-0.5,4,4,0.6,4,466,1,1,466,0,0,1,NaN,-1.14558293105991,-1.14558293105991,750,1,0,congruent,0,2772.50483624186,2273.46379730467
70,104,3,435,-0.5,-0.5,-0.5,1,1,0.6,1,582,1,1,582,0,0,1,1,-0.165014519058236,-0.165014519058236,750,1,0,congruent,0,5641.56604441477,695.066324782095
70,104,3,436,0.5,0.5,0,4,NaN,0.6,4,491,1,1,491,1,0,1,NaN,-0.934253531921622,-0.934253531921622,750,0,0,neutral,1,7436.13891504758,1407.59909616399
70,104,3,437,-0.5,-0.5,-0.5,2,2,0.6,2,610,1,1,610,1,0,1,0.8,0.0716744079766517,0.0716744079766517,750,1,0,congruent,0.1,8632.62117031714,9196.67457241598
70,104,3,439,-0.5,0.5,0.5,4,3,0.8,4,574,1,1,574,1,0,1,0.8,-0.23263992678249,-0.23263992678249,750,0,0,incongruent,0.1,5504.26664087519,2664.09996918298
70,104,3,440,-0.5,0.5,-0.5,2,2,1,2,478,1,1,478,1,0,1.2,0.8,-1.04414481947353,-1.04414481947353,750,1,0,congruent,0.1,3572.81307064481,1852.90777481012
70,104,3,441,0.5,-0.5,-0.5,4,4,1,4,491,1,1,491,1,0,1.4,NaN,-0.934253531921622,-0.934253531921622,750,1,0,congruent,1,7185.46809326955,3246.13766683392
70,104,3,442,-0.5,-0.5,0,1,NaN,1,1,450,1,1,450,1,0,1.4,0.8,-1.28083374650842,-1.28083374650842,750,0,0,neutral,0.1,2767.23968502898,8711.9700736571
70,104,3,443,-0.5,0.5,0.5,4,1,1,4,626,1,1,626,1,0,1.4,0.8,0.206925223425159,0.206925223425159,750,0,0,incongruent,0.1,3242.6872236207,5464.87449931481
70,104,3,444,-0.5,0.5,0,1,NaN,1,1,654,1,1,654,1,0,1.2,0.8,0.443614150460047,0.443614150460047,750,0,0,neutral,0.1,4141.62993537579,1592.67786877717
70,104,3,446,0.5,0.5,-0.5,1,1,1,2,450,0,1,NaN,0,0,1.2,NaN,-1.28083374650842,NaN,750,0,1,congruent,0,11465.1186480806,2035.90278213112
70,104,3,447,-0.5,-0.5,0.5,4,2,0.8,4,487,1,1,487,1,0,0.8,0.8,-0.968066235783749,-0.968066235783749,750,0,0,incongruent,0.1,2612.12523773708,5293.62333809097
70,104,3,448,0.5,0.5,0.5,2,1,0.8,2,489,1,1,489,1,0,0.8,NaN,-0.951159883852685,-0.951159883852685,750,0,0,incongruent,1,3116.77880685047,1710.00866752967
70,104,3,449,0.5,0.5,0,1,NaN,0.8,1,443,1,1,443,1,0,1,NaN,-1.34000597826714,-1.34000597826714,750,0,0,neutral,1,2439.76633807551,656.589229656951
70,104,3,450,0.5,-0.5,-0.5,2,2,0.8,2,546,1,1,546,1,0,1.2,NaN,-0.469328853817378,-0.469328853817378,750,1,0,congruent,1,3091.59661904743,2078.74501369493
70,104,4,452,-0.5,0.5,0,3,NaN,0.8,3,753,1,0,753,0,0,1.6,1,1.28047857104769,1.28047857104769,750,0,0,neutral,0,4748.29880992952,4233.20622887284
70,104,4,453,-0.5,0.5,-0.5,4,4,0.6,4,419,1,1,419,1,0,1.4,0.8,-1.54288220143991,-1.54288220143991,750,1,0,congruent,0.1,6344.42768134452,2215.84434458043
70,104,4,454,0.5,-0.5,-0.5,2,2,0.8,2,569,1,1,569,1,0,1.2,NaN,-0.274905806610149,-0.274905806610149,750,1,0,congruent,1,3514.05359845974,5030.10415379663
70,104,4,455,0.5,0.5,-0.5,3,3,0.8,3,543,1,1,543,1,0,1.2,NaN,-0.494688381713973,-0.494688381713973,750,1,0,congruent,1,3335.629724704,5489.39204540268
70,104,4,456,-0.5,-0.5,0,1,NaN,0.8,1,648,1,1,648,0,0,1.2,0.8,0.392895094666857,0.392895094666857,750,0,0,neutral,0,1356.07453603207,3817.43214209958
70,104,4,457,0.5,0.5,0.5,3,4,0.8,3,707,1,1,707,1,0,1,NaN,0.891632476633228,0.891632476633228,750,0,0,incongruent,1,5048.34114367614,1647.52703944416
70,104,4,458,0.5,0.5,0,2,NaN,0.8,2,661,1,1,661,1,0,1.4,NaN,0.502786382218769,0.502786382218769,750,0,0,neutral,1,4812.28824880557,4680.40740874422
70,104,4,459,-0.5,0.5,-0.5,3,3,0.8,3,562,1,1,562,1,0,1.6,0.8,-0.334078038368871,-0.334078038368871,750,1,0,congruent,0.1,4079.54945285175,1140.24817874722
70,104,4,461,-0.5,0.5,0.5,4,1,1,4,758,1,0,758,0,0,1.2,0.8,1.32274445087534,1.32274445087534,750,0,0,incongruent,0,2553.76975980566,13856.0720284607
70,104,4,462,0.5,0.5,0.5,1,3,0.8,3,569,0,1,NaN,0,0,1.2,NaN,-0.274905806610149,NaN,750,1,0,incongruent,0,4004.89205748391,1538.48434404167
70,104,4,463,-0.5,0.5,0.5,2,4,0.6,2,710,1,1,710,1,0,0.8,0.6,0.916992004529823,0.916992004529823,750,0,0,incongruent,0.1,3269.23298065751,4323.56043343697
70,104,4,464,-0.5,0.5,-0.5,1,1,0.6,1,709,1,1,709,1,0,0.6,0.6,0.908538828564291,0.908538828564291,750,1,0,congruent,0.1,6039.01541565203,2758.81105284206
70,104,4,465,0.5,0.5,0.5,2,4,0.6,4,927,0,0,NaN,0,0,0.6,NaN,2.7513311890502,NaN,750,1,0,incongruent,0,4681.14405965058,1109.03031398077
70,104,4,466,-0.5,0.5,0.5,1,2,0.4,1,786,1,0,786,0,0,0.4,0.8,1.55943337791023,1.55943337791023,750,0,0,incongruent,0,6009.07836715245,26744.0257297625
70,104,4,467,0.5,-0.5,0,2,NaN,0.4,2,587,1,1,587,0,0,0.4,NaN,-0.122748639230578,-0.122748639230578,750,0,0,neutral,0,6910.97551245941,4839.10662885624
70,104,4,468,0.5,0.5,-0.5,4,4,0.4,4,520,1,1,520,1,0,0.4,NaN,-0.689111428921202,-0.689111428921202,750,1,0,congruent,1,4115.88599376121,3965.73534911791
70,104,4,469,0.5,-0.5,0.5,3,2,0.6,3,600,1,1,600,1,0,0.6,NaN,-0.0128573516786654,-0.0128573516786654,750,0,0,incongruent,1,6895.24534465188,13832.8396168699
70,104,4,470,0.5,0.5,-0.5,1,1,0.6,1,438,1,1,438,1,0,0.8,NaN,-1.3822718580948,-1.3822718580948,750,1,0,congruent,1,1617.65204526207,2293.17330969356
70,104,4,471,0.5,-0.5,-0.5,2,2,0.6,2,637,1,1,637,0,0,1.2,NaN,0.299910159046008,0.299910159046008,750,1,0,congruent,0,9970.69972538396,6868.0535894115
70,104,4,472,-0.5,0.5,0,1,NaN,0.6,1,556,1,1,556,1,0,1.2,0.6,-0.384797094162061,-0.384797094162061,750,0,0,neutral,0.1,5899.63645647448,1703.22606295089
70,104,4,473,-0.5,-0.5,0.5,2,1,0.6,2,719,1,1,719,1,0,1.4,0.8,0.993070588219608,0.993070588219608,750,0,0,incongruent,0.1,4988.15644912106,6318.88392128448
70,104,4,474,0.5,0.5,0,1,NaN,0.6,1,543,1,1,543,1,0,1.2,NaN,-0.494688381713973,-0.494688381713973,750,0,0,neutral,1,7072.15244069241,1150.37496828199
70,104,4,475,-0.5,0.5,-0.5,3,3,0.8,3,605,1,1,605,1,0,1.2,0.6,0.0294085281489931,0.0294085281489931,750,1,0,congruent,0.1,1201.92840077208,816.840470581251
70,104,4,476,0.5,-0.5,0,1,NaN,1,1,485,1,1,485,1,0,1,NaN,-0.984972587714812,-0.984972587714812,750,0,0,neutral,1,1838.69032813991,1059.18477392591
70,104,4,477,0.5,0.5,-0.5,3,3,1,3,533,1,1,533,1,0,1.4,NaN,-0.57922014136929,-0.57922014136929,750,1,0,congruent,1,5802.56691962113,1879.83538796886
70,104,4,478,-0.5,0.5,0.5,4,1,1,4,695,1,1,695,1,0,1.6,0.8,0.790194365046847,0.790194365046847,750,0,0,incongruent,0.1,5645.53113466703,6258.4781312279
70,104,4,479,0.5,0.5,0.5,2,3,1,2,598,1,1,598,1,0,1.6,NaN,-0.0297637036097289,-0.0297637036097289,750,0,0,incongruent,1,2394.07333398031,2053.15298553247
70,104,4,481,-0.5,0.5,0,1,NaN,0.8,1,491,1,1,491,1,0,1.4,0.6,-0.934253531921622,-0.934253531921622,750,0,0,neutral,0.1,8218.86713660467,2187.8018943684
70,104,4,482,0.5,-0.5,-0.5,2,2,0.8,2,774,1,0,774,1,0,1.2,NaN,1.45799526632385,1.45799526632385,750,1,0,congruent,1,16921.2546866307,4745.83277314951
70,104,4,483,-0.5,-0.5,-0.5,3,3,0.8,3,652,1,1,652,1,0,1.2,0.8,0.426707798528984,0.426707798528984,750,1,0,congruent,0.1,3470.56500798623,4266.06992819871
70,104,4,484,0.5,-0.5,0,4,NaN,0.8,4,619,1,1,619,1,0,1.2,NaN,0.147752991666437,0.147752991666437,750,0,0,neutral,1,4279.77524496097,8757.0352264967
70,104,4,485,-0.5,-0.5,-0.5,3,3,0.8,3,645,1,1,645,1,0,1.2,0.8,0.367535566770262,0.367535566770262,750,1,0,congruent,0.1,5801.38235625595,2710.85824298465
70,104,4,486,-0.5,-0.5,0.5,4,1,0.8,4,661,1,1,661,1,0,1.4,0.8,0.502786382218769,0.502786382218769,750,0,0,incongruent,0.1,10969.0724120815,6590.12615689541
70,104,4,487,0.5,0.5,0.5,1,2,0.8,1,680,1,1,680,1,0,1.4,NaN,0.663396725563872,0.663396725563872,750,0,0,incongruent,1,4137.19609617752,2327.43414296943
70,104,4,488,-0.5,-0.5,0.5,4,1,0.8,4,803,1,0,803,0,0,1.4,1,1.70313736932427,1.70313736932427,750,0,0,incongruent,0,2725.82284555115,5590.66243551564
70,104,4,489,-0.5,-0.5,0,1,NaN,0.8,1,570,1,1,570,1,0,1.2,0.8,-0.266452630644617,-0.266452630644617,750,0,0,neutral,0.1,3775.02220734734,4210.04112035389
70,104,4,490,0.5,0.5,0.5,2,1,0.8,2,800,1,0,800,0,0,1,NaN,1.67777784142768,1.67777784142768,750,0,0,incongruent,0,2927.060533427,8509.96159309937
70,104,4,492,0.5,-0.5,0.5,2,3,0.6,2,966,1,0,966,1,0,1,NaN,3.08100505170594,3.08100505170594,750,0,0,incongruent,1,3291.57457937234,6145.23079479826
70,104,4,493,-0.5,0.5,0.5,1,2,0.6,1,667,1,1,667,1,0,1,0.8,0.553505438011959,0.553505438011959,750,0,0,incongruent,0.1,3695.42557907671,6431.26459483524
70,104,4,494,0.5,-0.5,-0.5,3,3,0.8,3,523,1,1,523,1,0,1.2,NaN,-0.663751901024607,-0.663751901024607,750,1,0,congruent,1,7633.82664158317,6999.46168363141
70,104,4,495,0.5,0.5,0.5,4,1,0.8,1,450,0,1,NaN,0,0,1.4,NaN,-1.28083374650842,NaN,750,1,0,incongruent,0,11068.1924414883,887.695618035009
70,104,4,496,0.5,-0.5,0,1,NaN,0.6,1,535,1,1,535,1,0,1.4,NaN,-0.562313789438227,-0.562313789438227,750,0,0,neutral,1,1347.59670778389,5603.99749381108
70,104,4,497,-0.5,0.5,0.5,4,3,0.6,4,567,1,1,567,1,0,1.4,0.8,-0.291812158541212,-0.291812158541212,750,0,0,incongruent,0.1,3893.47800518897,6450.51192330364
70,104,4,498,-0.5,0.5,0,3,NaN,0.6,3,616,1,1,616,1,0,1.2,0.8,0.122393463769842,0.122393463769842,750,0,0,neutral,0.1,9780.46466522706,2963.82026715447
70,104,4,499,-0.5,0.5,-0.5,2,2,0.8,2,541,1,1,541,1,0,1.2,0.8,-0.511594733645036,-0.511594733645036,750,1,0,congruent,0.1,3846.65030753517,1736.98413313849
70,104,4,500,-0.5,-0.5,-0.5,3,3,0.8,3,579,1,1,579,1,0,1,0.8,-0.190374046954831,-0.190374046954831,750,1,0,congruent,0.1,7252.71721048521,3542.28541387177
70,104,4,501,0.5,0.5,0.5,4,2,0.8,4,593,1,1,593,1,0,1.2,NaN,-0.0720295834373874,-0.0720295834373874,750,0,0,incongruent,1,2512.19216510365,7909.27613938935
70,104,4,502,0.5,-0.5,-0.5,1,1,0.8,1,419,1,1,419,1,0,1.2,NaN,-1.54288220143991,-1.54288220143991,750,1,0,congruent,1,1760.98008714622,2183.10815286975
70,104,4,503,-0.5,-0.5,0.5,2,4,0.8,4,570,0,1,NaN,1,0,1.4,0.8,-0.266452630644617,NaN,750,1,0,incongruent,0.1,15228.1625594167,1872.03503116528
70,104,4,504,-0.5,0.5,0.5,4,3,0.8,4,672,1,1,672,1,0,1.4,1,0.595771317839618,0.595771317839618,750,0,0,incongruent,0.1,4882.36177051054,4084.45662415224
70,104,4,505,0.5,0.5,0,3,NaN,1,3,531,1,1,531,1,0,1.4,NaN,-0.596126493300354,-0.596126493300354,750,0,0,neutral,1,3272.08569469197,4478.59341617399
70,104,4,506,0.5,0.5,0.5,4,1,1,4,622,1,1,622,1,0,1.6,NaN,0.173112519563032,0.173112519563032,750,0,0,incongruent,1,6348.50133701314,2782.44910258932
70,104,4,507,0.5,-0.5,0.5,1,3,1,1,605,1,1,605,1,0,1.6,NaN,0.0294085281489931,0.0294085281489931,750,0,0,incongruent,1,10957.8998358371,7213.6699256012
70,104,4,508,0.5,0.5,0.5,4,2,1,4,789,1,0,789,0,0,1.6,NaN,1.58479290580683,1.58479290580683,750,0,0,incongruent,0,1645.31388463192,4330.94651425528
70,104,4,509,-0.5,-0.5,-0.5,1,1,0.8,1,623,1,1,623,1,0,1.4,0.8,0.181565695528564,0.181565695528564,750,1,0,congruent,0.1,3400.70255810976,7348.92174979877
70,104,4,510,-0.5,0.5,-0.5,4,4,0.8,4,554,1,1,554,1,0,1.4,1,-0.401703446093124,-0.401703446093124,750,1,0,congruent,0.1,7477.49698204695,3642.64603166727
70,104,4,511,-0.5,-0.5,-0.5,3,3,0.8,3,457,1,1,457,1,0,1.2,0.8,-1.2216615147497,-1.2216615147497,750,1,0,congruent,0.1,3462.8831504978,1545.33756865518
70,104,4,512,-0.5,-0.5,-0.5,1,1,0.8,1,672,1,1,672,1,0,1,1,0.595771317839618,0.595771317839618,750,1,0,congruent,0.1,3410.28164730869,2137.42359552927
70,104,4,513,-0.5,0.5,0.5,3,2,0.8,3,828,1,0,828,0,0,0.8,1,1.91446676846256,1.91446676846256,750,0,0,incongruent,0,3075.06366412947,12717.3346250397
70,104,4,514,-0.5,-0.5,0.5,1,4,0.6,1,772,1,0,772,0,0,0.8,1,1.44108891439279,1.44108891439279,750,0,0,incongruent,0,4667.35954988652,5116.24017402545
70,104,4,515,0.5,-0.5,-0.5,3,3,0.6,3,587,1,1,587,1,0,0.6,NaN,-0.122748639230578,-0.122748639230578,750,1,0,congruent,1,1916.11932928288,3327.8232128418
70,104,4,516,0.5,-0.5,0.5,2,4,0.6,2,539,1,1,539,1,0,0.8,NaN,-0.5285010855761,-0.5285010855761,750,0,0,incongruent,1,5171.27038380548,4463.46495823212
70,104,4,517,-0.5,0.5,0,1,NaN,0.6,1,721,1,1,721,1,0,1,0.8,1.00997694015067,1.00997694015067,750,0,0,neutral,0.1,5542.93125694111,8183.48191147281
70,104,4,518,-0.5,-0.5,0.5,2,1,0.6,2,932,1,0,932,1,0,1,0.8,2.79359706887786,2.79359706887786,750,0,0,incongruent,0.1,1618.71030853508,3126.62972497569
70,104,4,519,0.5,0.5,-0.5,4,4,0.6,4,611,1,1,611,1,0,1.2,NaN,0.0801275839421834,0.0801275839421834,750,1,0,congruent,1,6589.53248972568,3833.89321209993
70,104,4,520,-0.5,0.5,0.5,2,3,0.6,1,886,0,0,NaN,0,0,1.6,0.8,2.4047509744634,NaN,750,0,1,incongruent,0,3184.77348222172,3087.78187938351
70,104,4,521,-0.5,-0.5,-0.5,4,4,0.6,4,648,1,1,648,0,0,1.2,0.8,0.392895094666857,0.392895094666857,750,1,0,congruent,0,3734.82095240962,4822.2949456978
70,104,4,522,0.5,-0.5,0,2,NaN,0.6,2,611,1,1,611,0,0,0.8,NaN,0.0801275839421834,0.0801275839421834,750,0,0,neutral,0,3572.35879671762,4403.3587642828
70,104,4,523,-0.5,0.5,-0.5,4,4,0.6,4,560,1,1,560,1,0,0.6,0.6,-0.350984390299934,-0.350984390299934,750,1,0,congruent,0.1,1552.68416178088,4333.85279208892
70,104,4,524,0.5,0.5,-0.5,2,2,0.6,2,588,1,1,588,1,0,0.6,NaN,-0.114295463265046,-0.114295463265046,750,1,0,congruent,1,2994.25509676903,3395.19007442593
70,104,4,525,0.5,-0.5,0,4,NaN,0.8,4,594,1,1,594,1,0,0.6,NaN,-0.0635764074718557,-0.0635764074718557,750,0,0,neutral,1,9914.13005276095,3313.88808715504
70,104,4,526,-0.5,0.5,-0.5,3,3,0.8,3,719,1,1,719,1,0,1,0.6,0.993070588219608,0.993070588219608,750,1,0,congruent,0.1,1494.50205129823,4086.22612885788
70,104,4,527,-0.5,0.5,0,2,NaN,0.8,2,623,1,1,623,1,0,1.2,0.6,0.181565695528564,0.181565695528564,750,0,0,neutral,0.1,4385.75486571808,2417.11349240178
70,104,4,529,0.5,-0.5,0.5,4,3,0.8,4,614,1,1,614,0,0,1.2,NaN,0.105487111838779,0.105487111838779,750,0,0,incongruent,0,1085.90481784999,3192.13017772268
70,104,4,530,-0.5,-0.5,0.5,1,2,0.8,1,618,1,1,618,0,0,0.8,0.6,0.139299815700905,0.139299815700905,750,0,0,incongruent,0,3249.45394335306,3269.96559391292
70,104,4,531,0.5,-0.5,0.5,4,1,0.8,4,673,1,1,673,1,0,0.4,NaN,0.60422449380515,0.60422449380515,750,0,0,incongruent,1,4035.25177667917,6537.6186971978
70,104,4,532,0.5,-0.5,-0.5,3,3,0.8,3,489,1,1,489,1,0,0.6,NaN,-0.951159883852685,-0.951159883852685,750,1,0,congruent,1,5220.65688111137,3334.97627644058
70,104,4,533,0.5,0.5,0,1,NaN,0.8,1,529,1,1,529,1,0,0.8,NaN,-0.613032845231417,-0.613032845231417,750,0,0,neutral,1,3704.77304346839,2217.49089982402
70,104,4,534,0.5,-0.5,-0.5,3,3,0.8,3,514,1,1,514,1,0,1.2,NaN,-0.739830484714393,-0.739830484714393,750,1,0,congruent,1,5776.07130605455,845.125706997203
70,104,4,535,0.5,0.5,0,2,NaN,0.8,2,634,1,1,634,1,0,1.6,NaN,0.274550631149413,0.274550631149413,750,0,0,neutral,1,6583.94289021622,3473.33705708637
70,104,4,536,-0.5,0.5,-0.5,1,1,0.8,1,513,1,1,513,1,0,2,0.6,-0.748283660679924,-0.748283660679924,750,1,0,congruent,0.1,2159.60323118281,3078.84942161241
70,104,4,537,0.5,-0.5,0.5,2,4,0.8,2,902,1,0,902,1,0,1.8,NaN,2.54000178991191,2.54000178991191,750,0,0,incongruent,1,2509.71727149636,3988.57306201405
70,104,4,538,0.5,0.5,-0.5,3,3,0.8,3,679,1,1,679,1,0,1.8,NaN,0.65494354959834,0.65494354959834,750,1,0,congruent,1,3063.31014178077,1339.26346794527
70,104,4,539,0.5,0.5,0,2,NaN,0.8,2,537,1,1,537,1,0,1.8,NaN,-0.545407437507163,-0.545407437507163,750,0,0,neutral,1,3414.21481342804,2710.91116347531
70,104,4,540,0.5,0.5,-0.5,3,3,1,3,488,1,1,488,1,0,1.8,NaN,-0.959613059818217,-0.959613059818217,750,1,0,congruent,1,2282.52265488679,3274.77058510114
70,104,4,541,0.5,-0.5,0,2,NaN,1,2,554,1,1,554,1,0,1.8,NaN,-0.401703446093124,-0.401703446093124,750,0,0,neutral,1,16018.3508629038,2084.42692426252
70,104,4,542,0.5,-0.5,-0.5,1,1,1,1,606,1,1,606,1,0,2,NaN,0.0378617041145248,0.0378617041145248,750,1,0,congruent,1,2038.61187245009,5034.92897559028
70,104,4,543,-0.5,0.5,-0.5,2,2,1,2,504,1,1,504,1,0,2,0.8,-0.82436224436971,-0.82436224436971,750,1,0,congruent,0.1,6568.28409429221,2106.34203919695
70,104,4,544,0.5,0.5,0.5,1,4,1,2,735,0,1,NaN,0,0,1.8,NaN,1.12832140366812,NaN,750,0,1,incongruent,0,7788.07265146681,6511.32259863133
70,104,4,545,0.5,-0.5,0.5,4,2,0.8,2,760,0,0,NaN,1,0,1.4,NaN,1.33965080280641,NaN,750,1,0,incongruent,1,4001.40654923837,7260.9597267102
70,104,4,546,0.5,-0.5,0.5,2,4,0.8,2,830,1,0,830,1,0,1.4,NaN,1.93137312039363,1.93137312039363,750,0,0,incongruent,1,1157.0888253889,3026.34107198549
70,104,4,547,0.5,-0.5,-0.5,1,1,0.8,1,581,1,1,581,1,0,1.4,NaN,-0.173467695023768,-0.173467695023768,750,1,0,congruent,1,7772.1709478739,2006.58612183304
70,104,4,548,-0.5,0.5,0.5,2,3,0.8,2,605,1,1,605,1,0,1.4,0.8,0.0294085281489931,0.0294085281489931,750,0,0,incongruent,0.1,5676.51742226251,4907.62125859063
70,104,4,549,-0.5,-0.5,-0.5,1,1,0.8,1,532,1,1,532,1,0,1.4,0.4,-0.587673317334822,-0.587673317334822,750,1,0,congruent,0.1,5425.94116502161,1958.58058043703
70,104,4,552,-0.5,0.5,0.5,4,3,0.8,4,550,1,1,550,1,0,1.4,0.8,-0.435516149955251,-0.435516149955251,750,0,0,incongruent,0.1,3565.77695931667,4422.2605938458
70,104,4,556,-0.5,-0.5,-0.5,3,3,1,3,527,1,1,527,1,0,1.6,0.4,-0.62993919716248,-0.62993919716248,750,1,0,congruent,0.1,7033.16483842459,4158.52655470231
70,104,4,557,0.5,-0.5,-0.5,4,4,1,4,359,1,1,359,1,0,1.6,NaN,-2.05007275937181,-2.05007275937181,750,1,0,congruent,1,6160.40000607871,1528.21022005015
70,104,4,558,0.5,-0.5,0.5,2,3,1,2,600,1,1,600,1,0,1.8,NaN,-0.0128573516786654,-0.0128573516786654,750,0,0,incongruent,1,2443.29644002253,3707.05584614424
70,104,4,559,-0.5,0.5,0.5,3,1,1,3,718,1,1,718,1,0,1.8,1,0.984617412254077,0.984617412254077,750,0,0,incongruent,0.1,3638.78029574743,3694.34175701999
70,104,4,560,0.5,-0.5,0.5,4,3,1,4,658,1,1,658,1,0,1.6,NaN,0.477426854322174,0.477426854322174,750,0,0,incongruent,1,26127.827657508,5734.14751347787
70,104,4,561,-0.5,0.5,-0.5,1,1,1,1,539,1,1,539,1,0,1.6,1,-0.5285010855761,-0.5285010855761,750,1,0,congruent,0.1,5932.53983929117,1675.42379729038
70,104,4,562,0.5,0.5,0.5,3,4,1,3,600,1,1,600,1,0,1.6,NaN,-0.0128573516786654,-0.0128573516786654,750,0,0,incongruent,1,2128.582996577,2948.86313529951
70,104,4,563,0.5,0.5,0.5,1,3,1,1,401,1,1,401,1,0,1.6,NaN,-1.69503936881948,-1.69503936881948,750,0,0,incongruent,1,3652.58141719071,804.355687094121
70,104,4,564,0.5,0.5,-0.5,2,2,1,2,609,1,1,609,1,0,1.6,NaN,0.06322123201112,0.06322123201112,750,1,0,congruent,1,10613.9687261708,8252.19522062246
70,104,4,565,0.5,0.5,0,4,NaN,1,4,511,1,1,511,1,0,1.8,NaN,-0.765190012610988,-0.765190012610988,750,0,0,neutral,1,10369.2796067087,1850.18551545781
70,104,4,566,0.5,-0.5,0.5,1,2,1,1,551,1,1,551,1,0,1.8,NaN,-0.427062973989719,-0.427062973989719,750,0,0,incongruent,1,8611.70762394208,2811.40536358281
70,104,4,567,0.5,-0.5,-0.5,4,4,1,4,531,1,1,531,1,0,2,NaN,-0.596126493300354,-0.596126493300354,750,1,0,congruent,1,5208.40683543687,2166.79330339356
70,104,4,568,0.5,-0.5,0.5,1,2,1,1,544,1,1,544,1,0,2,NaN,-0.486235205748441,-0.486235205748441,750,0,0,incongruent,1,612.724226481599,2778.55888330274
70,104,4,569,-0.5,-0.5,0,2,NaN,1,4,549,0,1,NaN,1,0,2,0.6,-0.443969325920783,NaN,750,0,1,neutral,0.1,12213.7908613492,5299.89666137916
70,104,4,570,0.5,0.5,-0.5,3,3,1,3,683,1,1,683,1,0,1.8,NaN,0.688756253460467,0.688756253460467,750,1,0,congruent,1,3267.76382351107,4200.22813662273
70,104,4,571,0.5,-0.5,0,2,NaN,1,2,532,1,1,532,1,0,1.8,NaN,-0.587673317334822,-0.587673317334822,750,0,0,neutral,1,1348.51529550273,4534.98861813429
70,104,4,572,-0.5,-0.5,0.5,3,2,1,3,774,1,0,774,1,0,1.8,0.6,1.45799526632385,1.45799526632385,750,0,0,incongruent,0.1,10176.2686990841,1706.14564240729
70,104,4,573,0.5,-0.5,-0.5,4,4,1,4,531,1,1,531,1,0,1.6,NaN,-0.596126493300354,-0.596126493300354,750,1,0,congruent,1,8352.74852049006,2963.50657398053
70,104,4,574,-0.5,0.5,0.5,1,2,1,1,538,1,1,538,1,0,1.6,1,-0.536954261541632,-0.536954261541632,750,0,0,incongruent,0.1,15496.3434320184,3594.51288186874
70,104,4,575,0.5,-0.5,0.5,4,1,1,2,966,0,0,NaN,1,0,1.6,NaN,3.08100505170594,NaN,750,0,1,incongruent,1,943.732847852091,2742.16423554486
70,104,4,576,-0.5,0.5,-0.5,2,2,1,2,576,1,1,576,1,0,1.6,1,-0.215733574851427,-0.215733574851427,750,1,0,congruent,0.1,1012.96977293893,2167.13955685651
70,104,4,577,0.5,-0.5,0,3,NaN,1,3,623,1,1,623,1,0,1.4,NaN,0.181565695528564,0.181565695528564,750,0,0,neutral,1,8933.68312604762,5634.9495270335
70,104,4,578,0.5,-0.5,-0.5,2,2,1,2,639,1,1,639,1,0,1.6,NaN,0.316816510977071,0.316816510977071,750,1,0,congruent,1,5951.36690501335,3174.98339042838
70,104,4,579,0.5,0.5,0,3,NaN,1,3,611,1,1,611,1,0,1.6,NaN,0.0801275839421834,0.0801275839421834,750,0,0,neutral,1,4986.9152673843,1656.44064567159
70,104,4,580,-0.5,-0.5,-0.5,2,2,1,2,576,1,1,576,1,0,1.8,0.8,-0.215733574851427,-0.215733574851427,750,1,0,congruent,0.1,2474.65290644561,1140.74763215941
70,104,4,581,-0.5,-0.5,-0.5,4,4,1,4,472,1,1,472,1,0,1.6,1,-1.09486387526672,-1.09486387526672,750,1,0,congruent,0.1,2501.32224879209,1678.64030673374
70,104,4,582,-0.5,-0.5,0,3,NaN,1,3,542,1,1,542,1,0,1.6,1,-0.503141557679505,-0.503141557679505,750,0,0,neutral,0.1,6491.751437999,1349.49076213119
70,104,4,583,0.5,0.5,-0.5,4,4,1,4,429,1,1,429,1,0,1.4,NaN,-1.45835044178459,-1.45835044178459,750,1,0,congruent,1,3891.15118555364,588.153570908595
70,104,4,584,-0.5,-0.5,-0.5,2,2,1,2,539,1,1,539,1,0,1.4,1,-0.5285010855761,-0.5285010855761,750,1,0,congruent,0.1,6209.39294172577,1717.74067322246
70,104,4,586,-0.5,-0.5,-0.5,2,2,1,2,507,1,1,507,1,0,1.4,1,-0.799002716473115,-0.799002716473115,750,1,0,congruent,0.1,5709.72017565723,2176.21783956083
70,104,4,587,0.5,-0.5,0.5,4,1,1,4,862,1,0,862,1,0,1.4,NaN,2.20187475129064,2.20187475129064,750,0,0,incongruent,1,2912.00037052098,7830.68471674476
70,104,4,588,0.5,-0.5,0.5,1,3,1,2,723,0,1,NaN,1,0,1.6,NaN,1.02688329208174,NaN,750,0,1,incongruent,1,4953.11192602446,5783.65649409846
70,104,4,589,-0.5,0.5,-0.5,2,2,1,2,556,1,1,556,1,0,1.6,1,-0.384797094162061,-0.384797094162061,750,1,0,congruent,0.1,8355.10995499986,1864.96848882733
70,104,4,591,-0.5,-0.5,-0.5,4,4,1,4,512,1,1,512,1,0,1.4,1,-0.756736836645456,-0.756736836645456,750,1,0,congruent,0.1,3051.18612863441,2799.82850222155
70,104,4,592,-0.5,-0.5,0.5,2,1,1,1,624,0,1,NaN,1,0,1.4,1,0.190018871494096,NaN,750,1,0,incongruent,0.1,6286.07368821998,3770.05370792057
70,104,4,593,-0.5,-0.5,0.5,1,3,1,3,789,0,0,NaN,1,0,1.2,1,1.58479290580683,NaN,750,1,0,incongruent,0.1,4340.16083029471,5667.11008020504
70,104,4,595,0.5,0.5,0.5,1,3,1,1,664,1,1,664,1,0,1.2,NaN,0.528145910115364,0.528145910115364,750,0,0,incongruent,1,5927.28835469224,1425.26314313794
70,104,4,596,0.5,-0.5,-0.5,4,4,1,4,450,1,1,450,1,0,1.4,NaN,-1.28083374650842,-1.28083374650842,750,1,0,congruent,1,4112.69133604463,1442.56049528483
70,104,4,597,0.5,-0.5,0.5,3,1,1,3,571,1,1,571,1,0,1.6,NaN,-0.257999454679085,-0.257999454679085,750,0,0,incongruent,1,5193.90969438308,3326.67848311006
70,104,4,598,0.5,-0.5,0.5,1,4,1,1,717,1,1,717,1,0,1.8,NaN,0.976164236288545,0.976164236288545,750,0,0,incongruent,1,8134.39554918974,3791.43291823189
70,104,4,599,-0.5,-0.5,0,4,NaN,1,4,554,1,1,554,1,0,2,1,-0.401703446093124,-0.401703446093124,750,0,0,neutral,0.1,4108.02291008422,7768.57446297804
70,104,4,600,0.5,0.5,0.5,1,4,1,1,652,1,1,652,1,0,1.8,NaN,0.426707798528984,0.426707798528984,750,0,0,incongruent,1,5243.5998037875,9645.16687867249
