subid,vers,block,trial,rewlvl,efflvl,congruency,targetresp,distractorresp,rollingefflvl,resp,rt,acc,fast,accrt,isrewarded,ismiss,runavgrrgen,runavgrrcond,zrt,acczrt,rtthreshold,isdisterror,isranderror,congruence,feedback,fcz_resp_theta,fcz_resp_theta_baseline
71,104,1,2,-0.5,-0.5,-0.5,3,3,0.4,3,782,1,0,782,0,0,0,0,1.32616893544356,1.32616893544356,750,1,0,congruent,0,6002.01349715659,4885.15813998473
71,104,1,3,0.5,-0.5,0,2,NaN,0.4,2,609,1,1,609,0,0,0,NaN,-0.0278089166523194,-0.0278089166523194,750,0,0,neutral,0,1218.2935885094,7955.77413794553
71,104,1,4,-0.5,0.5,-0.5,4,4,0.4,4,551,1,1,551,1,0,0,0,-0.481743687875215,-0.481743687875215,750,1,0,congruent,0.1,2005.8211194359,1896.95850133423
71,104,1,5,0.5,-0.5,-0.5,1,1,0.5,2,823,0,0,NaN,1,0,0.2,NaN,1.64705385992871,NaN,750,0,1,congruent,1,3076.25148096306,5602.22384262679
71,104,1,6,0.5,0.5,0.5,3,2,0.5,3,787,1,0,787,0,0,0.6,NaN,1.3653012433076,1.3653012433076,750,0,0,incongruent,0,7156.09954491566,2817.47085277911
71,104,1,7,0.5,0.5,0,1,NaN,0.3,1,469,1,1,469,1,0,0.6,NaN,-1.12351353684552,-1.12351353684552,750,0,0,neutral,1,1728.24453370003,9265.47467911206
71,104,1,8,-0.5,-0.5,-0.5,4,4,0.4,4,398,1,1,398,0,0,1,0,-1.67919230851492,-1.67919230851492,750,1,0,congruent,0,2634.10167694849,3725.85893341911
71,104,1,9,-0.5,0.5,0,2,NaN,0.4,2,483,1,1,483,1,0,1,0.2,-1.0139430748262,-1.0139430748262,750,0,0,neutral,0.1,2954.89702690386,7696.79900610851
71,104,1,10,0.5,0.5,-0.5,3,3,0.6,3,631,1,1,631,1,0,1,NaN,0.144373237949469,0.144373237949469,750,1,0,congruent,1,6849.00175147103,3222.75802798281
71,104,1,11,0.5,0.5,0.5,4,1,0.8,4,380,1,1,380,1,0,1,NaN,-1.82006861682548,-1.82006861682548,750,0,0,incongruent,1,3230.20540149603,611.106431133329
71,104,1,12,-0.5,0.5,-0.5,2,2,0.8,2,571,1,1,571,1,0,1.4,0.4,-0.325214456419044,-0.325214456419044,750,1,0,congruent,0.1,483.413193808832,5575.18526287615
71,104,1,13,0.5,-0.5,-0.5,4,4,1,4,504,1,1,504,1,0,1.2,NaN,-0.849587381797217,-0.849587381797217,750,1,0,congruent,1,2670.11938318778,3639.19394739065
71,104,1,14,-0.5,-0.5,0.5,2,3,1,2,647,1,1,647,1,0,1.6,0,0.269596623114405,0.269596623114405,750,0,0,incongruent,0.1,2493.07862067712,881.632459075805
71,104,1,15,-0.5,-0.5,0.5,3,1,1,3,699,1,1,699,1,0,1.6,0.2,0.67657262490045,0.67657262490045,750,0,0,incongruent,0.1,863.504720022732,702.525289280399
71,104,1,16,0.5,0.5,0,1,NaN,1,1,813,1,0,813,0,0,1.4,NaN,1.56878924420062,1.56878924420062,750,0,0,neutral,0,2967.36941664198,3669.84573264666
71,104,1,17,-0.5,0.5,-0.5,2,2,0.8,2,543,1,1,543,1,0,1,0.6,-0.544355380457684,-0.544355380457684,750,1,0,congruent,0.1,2892.72609229301,1739.76140313203
71,104,1,18,-0.5,0.5,0,1,NaN,0.8,1,756,1,0,756,0,0,1,0.8,1.12268093455054,1.12268093455054,750,0,0,neutral,0,6528.51872852431,4835.48269858992
71,104,1,19,-0.5,0.5,0.5,4,2,0.6,4,558,1,1,558,1,0,0.6,0.8,-0.426958456865555,-0.426958456865555,750,0,0,incongruent,0.1,2033.82420713668,535.198675652086
71,104,1,20,-0.5,-0.5,0.5,3,4,0.6,4,497,0,1,NaN,0,0,0.6,0.4,-0.904372612806877,NaN,750,1,0,incongruent,0,2709.42440297701,4314.46991189332
71,104,1,21,-0.5,-0.5,0,2,NaN,0.6,2,632,1,1,632,1,0,0.4,0.4,0.152199699522277,0.152199699522277,750,0,0,neutral,0.1,701.114800945099,3724.11295636337
71,104,1,22,0.5,-0.5,0.5,1,3,0.6,1,684,1,1,684,0,0,0.6,NaN,0.559175701308322,0.559175701308322,750,0,0,incongruent,0,2799.1269531417,1528.27356142078
71,104,1,23,0.5,0.5,0,3,NaN,0.6,3,666,1,1,666,1,0,0.4,NaN,0.418299392997768,0.418299392997768,750,0,0,neutral,1,3041.55590215256,4153.94939445677
71,104,1,24,0.5,0.5,-0.5,4,4,0.6,4,464,1,1,464,1,0,0.8,NaN,-1.16264584470956,-1.16264584470956,750,1,0,congruent,1,513.914427669881,4668.76650294687
71,104,1,25,-0.5,0.5,0,1,NaN,0.8,2,658,0,1,NaN,0,0,1,0.8,0.355687700415299,NaN,750,0,1,neutral,0,2073.08371233939,4961.86350721702
71,104,1,26,0.5,0.5,0.5,4,1,0.6,4,554,1,1,554,1,0,1,NaN,-0.458264303156789,-0.458264303156789,750,0,0,incongruent,1,2285.28808275199,2428.71173994711
71,104,1,27,-0.5,-0.5,0,1,NaN,0.8,1,508,1,1,508,1,0,1.2,0.6,-0.818281535505983,-0.818281535505983,750,0,0,neutral,0.1,6086.05028418805,1867.6372042207
71,104,1,29,0.5,0.5,-0.5,1,1,0.6,1,587,1,1,587,1,0,1,NaN,-0.199991071254107,-0.199991071254107,750,1,0,congruent,1,660.57992566697,3884.3335105893
71,104,1,31,0.5,-0.5,0,1,NaN,0.6,1,513,1,1,513,1,0,1.2,NaN,-0.77914922764194,-0.77914922764194,750,0,0,neutral,1,956.0848609535,2806.31739041186
71,104,1,32,-0.5,-0.5,-0.5,4,4,0.6,4,468,1,1,468,1,0,1.2,0.8,-1.13133999841832,-1.13133999841832,750,1,0,congruent,0.1,3370.64402506648,3179.97199985312
71,104,1,33,-0.5,0.5,0,2,NaN,0.6,2,612,1,1,612,1,0,1.2,0.6,-0.00432953193389381,-0.00432953193389381,750,0,0,neutral,0.1,3202.3127618375,2683.57235261782
71,104,1,34,0.5,0.5,-0.5,4,4,0.8,4,332,1,1,332,1,0,1.4,NaN,-2.19573877232029,-2.19573877232029,750,1,0,congruent,1,820.046566011675,2074.30451502351
71,104,1,36,-0.5,0.5,0.5,3,2,0.8,3,886,1,0,886,0,0,1.2,0.6,2.14012093901565,2.14012093901565,750,0,0,incongruent,0,8584.87599729328,1725.3416092988
71,104,1,37,0.5,-0.5,0.5,4,3,0.6,4,531,1,1,531,0,0,0.8,NaN,-0.638272919331386,-0.638272919331386,750,0,0,incongruent,0,2133.12128804436,3599.08308013267
71,104,1,38,-0.5,-0.5,0.5,2,4,0.6,2,640,1,1,640,0,0,0.6,0.8,0.214811392104745,0.214811392104745,750,0,0,incongruent,0,2537.80894060514,3763.20384954805
71,104,1,39,-0.5,0.5,0,3,NaN,0.6,3,733,1,1,733,1,0,0.4,0.4,0.94267231837594,0.94267231837594,750,0,0,neutral,0.1,6882.56445511201,10344.7762179502
71,104,1,40,0.5,-0.5,-0.5,4,4,0.6,4,403,1,1,403,1,0,0.2,NaN,-1.64006000065088,-1.64006000065088,750,1,0,congruent,1,15313.4087286412,1321.80642201868
71,104,1,41,-0.5,-0.5,0.5,1,3,0.6,2,855,0,0,NaN,0,0,0.6,0.6,1.89750063025858,NaN,750,0,1,incongruent,0,13843.036310986,5218.00689565233
71,104,1,42,-0.5,0.5,-0.5,2,2,0.6,2,610,1,1,610,1,0,0.6,0.6,-0.0199824550795109,-0.0199824550795109,750,1,0,congruent,0.1,2811.00591615041,2257.53723593279
71,104,1,43,0.5,-0.5,0.5,3,4,0.6,3,873,1,0,873,1,0,0.8,NaN,2.03837693856914,2.03837693856914,750,0,0,incongruent,1,2757.20829486014,3889.25139989455
71,104,1,44,-0.5,0.5,0.5,2,3,0.6,2,627,1,1,627,1,0,1.2,0.6,0.113067391658234,0.113067391658234,750,0,0,incongruent,0.1,5654.66213120319,3388.38516387427
71,104,1,45,-0.5,0.5,-0.5,4,4,0.6,4,512,1,1,512,1,0,1.2,0.6,-0.786975689214748,-0.786975689214748,750,1,0,congruent,0.1,577.914002620092,587.778729776887
71,104,1,46,0.5,-0.5,-0.5,1,1,0.8,1,865,1,0,865,1,0,1,NaN,1.97576524598667,1.97576524598667,750,1,0,congruent,1,3471.62794740288,3803.18221722136
71,104,1,47,0.5,0.5,-0.5,2,2,0.8,2,601,1,1,601,1,0,1.4,NaN,-0.0904206092347878,-0.0904206092347878,750,1,0,congruent,1,1239.31540495317,828.682527029453
71,104,1,48,0.5,0.5,0.5,1,3,1,1,600,1,1,600,1,0,1.6,NaN,-0.0982470708075964,-0.0982470708075964,750,0,0,incongruent,1,2969.94103468487,956.741409548707
71,104,1,49,-0.5,-0.5,0.5,4,2,1,4,562,1,1,562,1,0,1.6,0.6,-0.395652610574321,-0.395652610574321,750,0,0,incongruent,0.1,3089.03016231068,2181.18422890451
71,104,1,50,-0.5,-0.5,0.5,2,4,1,2,742,1,1,742,1,0,1.6,0.6,1.01311047253122,1.01311047253122,750,0,0,incongruent,0.1,3292.79130410156,2090.51152577991
71,104,1,51,-0.5,0.5,0.5,1,3,1,1,909,1,0,909,0,0,1.6,0.8,2.32012955519024,2.32012955519024,750,0,0,incongruent,0,3271.60925764642,6008.16001786654
71,104,1,52,-0.5,-0.5,-0.5,2,2,0.8,2,551,1,1,551,1,0,1.2,0.6,-0.481743687875215,-0.481743687875215,750,1,0,congruent,0.1,1795.32023005825,851.017450733547
71,104,1,53,-0.5,-0.5,0,1,NaN,0.8,1,494,1,1,494,1,0,1,0.6,-0.927851997525302,-0.927851997525302,750,0,0,neutral,0.1,10342.5626988578,3275.51418531651
71,104,1,54,-0.5,-0.5,-0.5,2,2,0.8,2,731,1,1,731,1,0,0.8,0.8,0.927019395230323,0.927019395230323,750,1,0,congruent,0.1,2703.75386013629,14038.873283379
71,104,1,55,-0.5,0.5,-0.5,3,3,0.8,3,801,1,0,801,0,0,0.8,0.8,1.47487170532692,1.47487170532692,750,1,0,congruent,0,2571.59553095724,1493.60032142494
71,104,1,56,-0.5,0.5,0,4,NaN,0.6,4,570,1,1,570,1,0,0.6,0.6,-0.333040917991853,-0.333040917991853,750,0,0,neutral,0.1,2767.5618079699,2537.30660957343
71,104,1,57,0.5,-0.5,-0.5,2,2,0.6,1,507,0,1,NaN,0,0,0.8,NaN,-0.826107997078791,NaN,750,0,1,congruent,0,1311.44455502268,3714.47053976877
71,104,1,58,0.5,-0.5,0.5,3,1,0.6,3,700,1,1,700,1,0,0.6,NaN,0.684399086473258,0.684399086473258,750,0,0,incongruent,1,4970.13461454503,4745.68949111172
71,104,1,59,-0.5,-0.5,-0.5,2,2,0.6,2,540,1,1,540,1,0,0.8,1,-0.567834765176109,-0.567834765176109,750,1,0,congruent,0.1,301.427422819598,360.08723495631
71,104,1,61,-0.5,0.5,0.5,2,4,0.6,2,693,1,1,693,1,0,0.8,0.6,0.629613855463598,0.629613855463598,750,0,0,incongruent,0.1,1301.19771850936,4098.20563777503
71,104,1,62,0.5,-0.5,0,1,NaN,0.6,1,600,1,1,600,0,0,0.8,NaN,-0.0982470708075964,-0.0982470708075964,750,0,0,neutral,0,2553.64662438858,2773.37724452215
71,104,1,63,0.5,-0.5,-0.5,4,4,0.6,3,522,0,1,NaN,0,0,0.8,NaN,-0.708711073486663,NaN,750,0,1,congruent,0,1979.27544395067,1814.174690316
71,104,1,64,-0.5,-0.5,0.5,2,1,0.6,2,698,1,1,698,1,0,0.4,0.8,0.668746163327641,0.668746163327641,750,0,0,incongruent,0.1,3420.91572468519,3297.48741713606
71,104,1,65,0.5,-0.5,0,4,NaN,0.6,4,351,1,1,351,0,0,0.4,NaN,-2.04703600243692,-2.04703600243692,750,0,0,neutral,0,6309.53765209496,10403.0464150122
71,104,1,66,0.5,-0.5,-0.5,2,2,0.6,2,513,1,1,513,0,0,0.4,NaN,-0.77914922764194,-0.77914922764194,750,1,0,congruent,0,1641.91509713591,2090.35714595388
71,104,1,67,0.5,0.5,-0.5,1,1,0.6,1,720,1,1,720,1,0,0.2,NaN,0.840928317929429,0.840928317929429,750,1,0,congruent,1,8436.00375997776,2350.88124016287
71,104,1,68,0.5,0.5,0.5,4,3,0.6,4,664,1,1,664,1,0,0.6,NaN,0.402646469852151,0.402646469852151,750,0,0,incongruent,1,2169.17297286546,3921.16574910315
71,104,1,69,-0.5,0.5,0,2,NaN,0.8,2,831,1,0,831,0,0,1,0.6,1.70966555251118,1.70966555251118,750,0,0,neutral,0,4816.30668194087,7163.20139029348
71,104,1,70,0.5,-0.5,0.5,1,3,0.8,1,808,1,0,808,0,0,0.8,NaN,1.52965693633658,1.52965693633658,750,0,0,incongruent,0,3299.16125383389,1711.03776228879
71,104,1,71,0.5,-0.5,0,3,NaN,0.8,4,720,0,1,NaN,1,0,0.8,NaN,0.840928317929429,NaN,750,0,1,neutral,1,6360.10516492964,2772.05895964623
71,104,1,73,-0.5,-0.5,-0.5,1,1,0.8,1,642,1,1,642,0,0,1.2,0.8,0.230464315250363,0.230464315250363,750,1,0,congruent,0,2893.68300179415,2188.19095218277
71,104,1,74,0.5,-0.5,0,4,NaN,0.8,4,584,1,1,584,1,0,0.8,NaN,-0.223470455972533,-0.223470455972533,750,0,0,neutral,1,1804.16413009545,767.816647726978
71,104,1,75,-0.5,0.5,0.5,2,1,0.8,2,525,1,1,525,1,0,1.2,0.4,-0.685231688768237,-0.685231688768237,750,0,0,incongruent,0.1,4940.80031564001,2091.12784516451
71,104,1,77,0.5,0.5,-0.5,2,2,0.8,2,449,1,1,449,1,0,1,NaN,-1.28004276830169,-1.28004276830169,750,1,0,congruent,1,3330.32558138914,4272.82507390331
71,104,1,78,0.5,-0.5,0,1,NaN,0.8,1,535,1,1,535,1,0,1,NaN,-0.606967073040152,-0.606967073040152,750,0,0,neutral,1,16908.2388902412,3780.12113085673
71,104,1,79,0.5,-0.5,0.5,2,4,0.8,2,624,1,1,624,1,0,1.4,NaN,0.0895880069398087,0.0895880069398087,750,0,0,incongruent,1,1060.59483411288,1823.94025573724
71,104,1,80,0.5,-0.5,0,3,NaN,0.8,3,748,1,1,748,1,0,1.4,NaN,1.06006924196807,1.06006924196807,750,0,0,neutral,1,472.732809954868,1502.17511310159
71,104,1,81,0.5,0.5,-0.5,2,2,0.8,2,939,1,0,939,0,0,1.6,NaN,2.5549234023745,2.5549234023745,750,1,0,congruent,0,1810.92957737788,3123.0088750653
71,104,1,82,-0.5,-0.5,0.5,4,1,0.6,4,692,1,1,692,1,0,1.6,0.4,0.62178739389079,0.62178739389079,750,0,0,incongruent,0.1,4894.2757070389,4182.35506192726
71,104,1,83,-0.5,0.5,0.5,2,4,0.6,2,756,1,0,756,0,0,1.4,0.6,1.12268093455054,1.12268093455054,750,0,0,incongruent,0,5245.21569348124,1504.82579452038
71,104,1,84,0.5,0.5,0,4,NaN,0.4,4,557,1,1,557,1,0,1,NaN,-0.434784918438364,-0.434784918438364,750,0,0,neutral,1,3506.59251896691,2317.13950847574
71,104,1,85,-0.5,-0.5,-0.5,1,1,0.6,1,906,1,0,906,0,0,1,0.4,2.29665017047182,2.29665017047182,750,1,0,congruent,0,4789.66068101233,623.634599154826
71,104,1,86,0.5,-0.5,-0.5,4,4,0.6,4,404,1,1,404,0,0,0.6,NaN,-1.63223353907807,-1.63223353907807,750,1,0,congruent,0,5443.95327155959,2538.8218827519
71,104,1,87,0.5,-0.5,-0.5,1,1,0.6,1,547,1,1,547,1,0,0.6,NaN,-0.513049534166449,-0.513049534166449,750,1,0,congruent,1,2782.42617398865,1636.0566615065
71,104,1,88,0.5,0.5,-0.5,2,2,0.6,2,454,1,1,454,1,0,0.8,NaN,-1.24091046043764,-1.24091046043764,750,1,0,congruent,1,4439.24395472937,2195.96537005334
71,104,1,89,-0.5,-0.5,0,4,NaN,0.6,4,430,1,1,430,0,0,1.2,0.4,-1.42874553818505,-1.42874553818505,750,0,0,neutral,0,1475.08193194975,5751.48180225863
71,104,1,90,-0.5,0.5,-0.5,3,3,0.6,4,555,0,1,NaN,0,0,0.8,0.6,-0.450437841583981,NaN,750,0,1,congruent,0,3634.445842838,1829.8490463635
71,104,1,91,-0.5,0.5,0,2,NaN,0.4,2,407,1,1,407,1,0,0.8,0.4,-1.60875415435965,-1.60875415435965,750,0,0,neutral,0.1,4528.05356140826,1584.06643824634
71,104,1,92,-0.5,0.5,-0.5,4,4,0.6,4,419,1,1,419,1,0,1,0.4,-1.51483661548594,-1.51483661548594,750,1,0,congruent,0.1,3999.0907155338,3753.75116518818
71,104,1,93,0.5,-0.5,-0.5,2,2,0.8,2,408,1,1,408,1,0,0.8,NaN,-1.60092769278684,-1.60092769278684,750,1,0,congruent,1,3438.58329841042,3515.5026972394
71,104,1,95,0.5,0.5,-0.5,4,4,0.6,4,481,1,1,481,1,0,0.8,NaN,-1.02959599797181,-1.02959599797181,750,1,0,congruent,1,3595.24760227077,2071.20355091049
71,104,1,96,-0.5,-0.5,-0.5,1,1,0.6,1,531,1,1,531,0,0,1.2,0.2,-0.638272919331386,-0.638272919331386,750,1,0,congruent,0,4017.41772856403,3264.44748187402
71,104,1,97,-0.5,0.5,0.5,4,2,0.6,4,611,1,1,611,1,0,1,0.4,-0.0121559935067024,-0.0121559935067024,750,0,0,incongruent,0.1,1707.1650173165,2969.72199640356
71,104,1,99,-0.5,0.5,0,4,NaN,0.6,4,458,1,1,458,1,0,0.6,0.6,-1.20960461414641,-1.20960461414641,750,0,0,neutral,0.1,1601.97461866203,5520.11710053557
71,104,1,100,-0.5,-0.5,0.5,3,2,0.6,3,749,1,1,749,1,0,0.8,0.2,1.06789570354088,1.06789570354088,750,0,0,incongruent,0.1,1018.91472066034,2369.38939084605
71,104,1,101,0.5,0.5,0,2,NaN,0.6,2,667,1,1,667,1,0,0.6,NaN,0.426125854570576,0.426125854570576,750,0,0,neutral,1,1800.29559516472,1683.18860536149
71,104,1,102,-0.5,-0.5,-0.5,4,4,0.8,4,433,1,1,433,0,0,1,0.4,-1.40526615346662,-1.40526615346662,750,1,0,congruent,0,3056.41309780165,2015.73916628849
71,104,1,104,0.5,0.5,0,2,NaN,0.8,2,530,1,1,530,1,0,1.2,NaN,-0.646099380904194,-0.646099380904194,750,0,0,neutral,1,2390.74105022663,2365.11326637537
71,104,1,105,-0.5,0.5,-0.5,4,4,0.8,4,501,1,1,501,1,0,1.4,0.8,-0.873066766515642,-0.873066766515642,750,1,0,congruent,0.1,2510.34205859191,7780.09965011316
71,104,1,106,-0.5,0.5,0.5,3,2,1,1,769,0,0,NaN,0,0,1.4,0.8,1.22442493499705,NaN,750,0,1,incongruent,0,6948.21424852018,6422.84275828337
71,104,1,107,0.5,-0.5,0.5,1,4,0.8,1,883,1,0,883,1,0,1,NaN,2.11664155429722,2.11664155429722,750,0,0,incongruent,1,2235.30572817152,2891.7066017817
71,104,1,108,-0.5,-0.5,-0.5,3,3,0.8,3,598,1,1,598,1,0,1.4,0.2,-0.113899993953213,-0.113899993953213,750,1,0,congruent,0.1,2028.94395885525,2564.92442425612
71,104,1,109,0.5,-0.5,0.5,1,2,0.8,1,525,1,1,525,1,0,1.2,NaN,-0.685231688768237,-0.685231688768237,750,0,0,incongruent,1,5442.75619326444,4194.11845117745
71,104,1,110,-0.5,-0.5,0.5,3,1,0.8,3,719,1,1,719,1,0,1.2,0.4,0.833101856356621,0.833101856356621,750,0,0,incongruent,0.1,3798.86017236777,2272.00293131604
71,104,1,111,-0.5,-0.5,0.5,4,3,0.8,4,636,1,1,636,1,0,1.2,0.6,0.183505545813511,0.183505545813511,750,0,0,incongruent,0.1,2740.64991084808,4356.37532932605
71,104,1,112,-0.5,0.5,0.5,2,4,0.8,2,544,1,1,544,1,0,1.4,0.6,-0.536528918884875,-0.536528918884875,750,0,0,incongruent,0.1,9468.3785439797,1300.51532173902
71,104,1,113,-0.5,-0.5,-0.5,1,1,0.8,1,469,1,1,469,1,0,1.2,0.8,-1.12351353684552,-1.12351353684552,750,1,0,congruent,0.1,3401.49718655302,1041.12088300013
71,104,1,114,-0.5,-0.5,0,3,NaN,0.8,1,534,0,1,NaN,1,0,1.2,0.8,-0.61479353461296,NaN,750,0,1,neutral,0.1,6591.80395947627,2374.70737697768
71,104,1,116,0.5,0.5,0.5,3,4,0.8,4,530,0,1,NaN,0,0,0.8,NaN,-0.646099380904194,NaN,750,1,0,incongruent,0,8424.84220920956,3795.284968599
71,104,1,117,0.5,0.5,-0.5,1,1,0.6,1,588,1,1,588,1,0,0.6,NaN,-0.192164609681299,-0.192164609681299,750,1,0,congruent,1,1049.98096561381,2964.71829138926
71,104,1,118,-0.5,-0.5,-0.5,2,2,0.6,2,508,1,1,508,1,0,0.8,1,-0.818281535505983,-0.818281535505983,750,1,0,congruent,0.1,3077.32439932704,2181.71994377309
71,104,1,119,-0.5,-0.5,-0.5,4,4,0.6,4,662,1,1,662,1,0,0.8,1,0.386993546706533,0.386993546706533,750,1,0,congruent,0.1,1917.4215177628,1954.74983326298
71,104,1,120,-0.5,0.5,0,1,NaN,0.6,1,674,1,1,674,1,0,0.8,0.8,0.480911085580236,0.480911085580236,750,0,0,neutral,0.1,3525.24216380519,2338.39940428718
71,104,1,121,-0.5,0.5,0.5,2,4,0.6,2,852,1,0,852,0,0,1,0.8,1.87402124554016,1.87402124554016,750,0,0,incongruent,0,3614.97836332971,2255.88109424311
71,104,1,122,0.5,0.5,0,1,NaN,0.6,1,522,1,1,522,1,0,1,NaN,-0.708711073486663,-0.708711073486663,750,0,0,neutral,1,1961.5170947114,2263.39397209212
71,104,1,123,-0.5,-0.5,0.5,3,4,0.6,4,460,0,1,NaN,0,0,1,1,-1.19395169100079,NaN,750,1,0,incongruent,0,3542.78602245568,7928.24360965436
71,104,1,124,-0.5,-0.5,-0.5,2,2,0.6,2,718,1,1,718,1,0,0.8,0.8,0.825275394783812,0.825275394783812,750,1,0,congruent,0.1,2624.14896577352,6731.92562798437
71,104,1,125,0.5,0.5,0,1,NaN,0.6,1,460,1,1,460,1,0,0.8,NaN,-1.19395169100079,-1.19395169100079,750,0,0,neutral,1,2707.90374081941,3169.28399523334
71,104,1,126,-0.5,0.5,0.5,4,1,0.8,4,868,1,0,868,0,0,1,0.6,1.99924463070509,1.99924463070509,750,0,0,incongruent,0,3087.35278516996,2321.47474165695
71,104,1,127,-0.5,-0.5,0.5,1,3,0.6,1,698,1,1,698,0,0,1,0.8,0.668746163327641,0.668746163327641,750,0,0,incongruent,0,6937.94707820982,11004.7105204636
71,104,1,128,0.5,0.5,-0.5,4,4,0.6,4,514,1,1,514,1,0,0.6,NaN,-0.771322766069131,-0.771322766069131,750,1,0,congruent,1,3555.63729991548,5661.80441926991
71,104,1,129,-0.5,-0.5,-0.5,1,1,0.6,1,478,1,1,478,0,0,1,0.6,-1.05307538269024,-1.05307538269024,750,1,0,congruent,0,1501.06028381789,1295.53861554008
71,104,1,130,0.5,0.5,0,4,NaN,0.6,4,529,1,1,529,1,0,0.8,NaN,-0.653925842477003,-0.653925842477003,750,0,0,neutral,1,4186.13074807573,3156.30266339749
71,104,1,131,-0.5,-0.5,-0.5,3,3,0.8,3,840,1,0,840,1,0,0.8,0.4,1.78010370666645,1.78010370666645,750,1,0,congruent,0.1,4810.74377705517,5056.6677145873
71,104,1,132,-0.5,0.5,0.5,4,1,0.8,4,665,1,1,665,1,0,1,0.4,0.410472931424959,0.410472931424959,750,0,0,incongruent,0.1,2499.31947987664,7801.61368439143
71,104,1,133,-0.5,0.5,0,3,NaN,0.8,3,722,1,1,722,1,0,1.2,0.6,0.856581241075046,0.856581241075046,750,0,0,neutral,0.1,7782.61077330338,10140.5510064277
71,104,1,134,0.5,-0.5,0.5,4,1,0.8,4,617,1,1,617,1,0,1,NaN,0.0348027759301489,0.0348027759301489,750,0,0,incongruent,1,6732.06404696803,776.919565143433
71,104,1,135,-0.5,-0.5,0,3,NaN,0.8,3,760,1,0,760,1,0,1.4,0.4,1.15398678084177,1.15398678084177,750,0,0,neutral,0.1,19434.7254684776,3332.21298178131
71,104,1,136,0.5,0.5,0.5,1,3,0.8,1,290,1,1,290,1,0,1.2,NaN,-2.52445015837825,-2.52445015837825,750,0,0,incongruent,1,1299.72731178639,2282.53625000816
71,104,1,137,0.5,-0.5,0.5,3,2,1,3,685,1,1,685,1,0,1.4,NaN,0.56700216288113,0.56700216288113,750,0,0,incongruent,1,3115.07065639027,3322.30667378471
71,104,1,138,0.5,-0.5,0,2,NaN,1,2,711,1,1,711,1,0,1.6,NaN,0.770490163774152,0.770490163774152,750,0,0,neutral,1,3835.24815046126,6662.79317135406
71,104,1,139,-0.5,-0.5,-0.5,4,4,1,4,639,1,1,639,1,0,1.8,0.6,0.206984930531937,0.206984930531937,750,1,0,congruent,0.1,3707.32970223385,3124.77690290295
71,104,1,141,0.5,-0.5,-0.5,4,4,1,4,381,1,1,381,1,0,1.6,NaN,-1.81224215525267,-1.81224215525267,750,1,0,congruent,1,2563.4816555395,5545.70602763911
71,104,1,142,0.5,0.5,-0.5,1,1,1,1,572,1,1,572,1,0,1.6,NaN,-0.317387994846236,-0.317387994846236,750,1,0,congruent,1,4081.345763782,3763.61577583285
71,104,1,146,-0.5,-0.5,0.5,4,1,0.8,4,748,1,1,748,1,0,1.2,0.8,1.06006924196807,1.06006924196807,750,0,0,incongruent,0.1,3404.65784883363,1602.41674556189
71,104,1,148,-0.5,-0.5,0.5,1,4,0.8,1,840,1,0,840,1,0,1,1,1.78010370666645,1.78010370666645,750,0,0,incongruent,0.1,2698.01944270975,3186.30309175687
71,104,1,150,0.5,-0.5,0.5,4,3,0.8,4,716,1,1,716,1,0,1.2,NaN,0.809622471638195,0.809622471638195,750,0,0,incongruent,1,2161.58112605826,3190.19231415121
71,104,2,152,0.5,-0.5,0,1,NaN,0.6,1,432,1,1,432,1,0,1.4,NaN,-1.41309261503943,-1.41309261503943,750,0,0,neutral,1,3455.56237151567,2354.23311160645
71,104,2,153,0.5,-0.5,-0.5,4,4,0.6,4,631,1,1,631,0,0,1.4,NaN,0.144373237949469,0.144373237949469,750,1,0,congruent,0,3261.39704777463,1979.6214843555
71,104,2,154,0.5,0.5,-0.5,2,2,0.6,2,491,1,1,491,1,0,1.2,NaN,-0.951331382243728,-0.951331382243728,750,1,0,congruent,1,2451.59505953872,2116.9086994334
71,104,2,155,-0.5,-0.5,0.5,3,4,0.6,3,728,1,1,728,1,0,1.2,1,0.903540010511897,0.903540010511897,750,0,0,incongruent,0.1,3413.23141474843,5780.76111090886
71,104,2,156,-0.5,-0.5,-0.5,2,2,0.6,2,454,1,1,454,1,0,1,1,-1.24091046043764,-1.24091046043764,750,1,0,congruent,0.1,4343.56226726653,3928.28531455326
71,104,2,157,-0.5,-0.5,-0.5,4,4,0.6,4,555,1,1,555,1,0,1.2,1,-0.450437841583981,-0.450437841583981,750,1,0,congruent,0.1,5986.6749278325,4773.87836179638
71,104,2,158,-0.5,-0.5,-0.5,2,2,0.6,2,426,1,1,426,1,0,1,1,-1.46005138447628,-1.46005138447628,750,1,0,congruent,0.1,2648.60390557833,3323.370323504
71,104,2,159,0.5,0.5,0,1,NaN,0.6,1,483,1,1,483,1,0,1.2,NaN,-1.0139430748262,-1.0139430748262,750,0,0,neutral,1,4381.66589600258,1126.213202223
71,104,2,160,-0.5,0.5,0.5,4,2,0.6,4,632,1,1,632,1,0,1.2,0.4,0.152199699522277,0.152199699522277,750,0,0,incongruent,0.1,2352.8318907503,6602.09445798342
71,104,2,161,-0.5,0.5,0.5,3,4,0.6,3,739,1,1,739,1,0,1.2,0.6,0.989631087812792,0.989631087812792,750,0,0,incongruent,0.1,1436.93274712822,4703.97569557024
71,104,2,162,0.5,0.5,0,2,NaN,0.8,2,632,1,1,632,1,0,1.2,NaN,0.152199699522277,0.152199699522277,750,0,0,neutral,1,4372.64946291059,3610.8637825065
71,104,2,163,0.5,0.5,-0.5,4,4,1,4,553,1,1,553,1,0,1.4,NaN,-0.466090764729598,-0.466090764729598,750,1,0,congruent,1,877.027804805801,1848.07505441004
71,104,2,164,-0.5,0.5,-0.5,2,2,1,2,428,1,1,428,1,0,1.6,0.8,-1.44439846133067,-1.44439846133067,750,1,0,congruent,0.1,4284.11601646951,3476.01457472831
71,104,2,165,0.5,0.5,0,4,NaN,1,3,698,0,1,NaN,0,0,1.4,NaN,0.668746163327641,NaN,750,0,1,neutral,0,2586.71065684123,10650.6428889962
71,104,2,167,0.5,-0.5,0.5,3,1,0.8,3,729,1,1,729,1,0,1.4,NaN,0.911366472084706,0.911366472084706,750,0,0,incongruent,1,7574.89936961031,4166.88327890019
71,104,2,168,-0.5,0.5,-0.5,2,2,0.8,2,453,1,1,453,1,0,1.4,0.8,-1.24873692201045,-1.24873692201045,750,1,0,congruent,0.1,3941.45931026784,6704.54557404451
71,104,2,169,-0.5,0.5,-0.5,1,1,0.8,1,687,1,1,687,1,0,1.2,0.8,0.582655086026747,0.582655086026747,750,1,0,congruent,0.1,5596.84958506167,6934.4480032086
71,104,2,170,-0.5,-0.5,0.5,2,3,0.8,2,508,1,1,508,1,0,1.2,1,-0.818281535505983,-0.818281535505983,750,0,0,incongruent,0.1,4139.00261760542,5063.58732709794
71,104,2,171,0.5,-0.5,0.5,4,2,0.8,4,657,1,1,657,1,0,1.4,NaN,0.347861238842491,0.347861238842491,750,0,0,incongruent,1,5215.42772324624,6548.45128150201
71,104,2,172,0.5,-0.5,0,2,NaN,0.8,2,536,1,1,536,1,0,1.4,NaN,-0.599140611467343,-0.599140611467343,750,0,0,neutral,1,2448.45722672232,1935.36231222152
71,104,2,173,0.5,-0.5,-0.5,4,4,0.8,4,497,1,1,497,1,0,1.4,NaN,-0.904372612806877,-0.904372612806877,750,1,0,congruent,1,973.784087231133,772.785026378741
71,104,2,175,0.5,0.5,0.5,3,4,0.6,3,721,1,1,721,1,0,1.4,NaN,0.848754779502238,0.848754779502238,750,0,0,incongruent,1,496.613399789031,1450.86389791054
71,104,2,176,-0.5,0.5,0.5,1,2,0.6,1,682,1,1,682,1,0,1.6,1,0.543522778162704,0.543522778162704,750,0,0,incongruent,0.1,3730.22987237817,1186.31044527431
71,104,2,177,-0.5,0.5,-0.5,4,4,0.8,4,532,1,1,532,1,0,1.4,1,-0.630446457758577,-0.630446457758577,750,1,0,congruent,0.1,3322.85001814805,1981.58664756078
71,104,2,178,0.5,0.5,0.5,1,3,0.8,1,651,1,1,651,1,0,1.2,NaN,0.300902469405639,0.300902469405639,750,0,0,incongruent,1,1512.65461380818,4926.30823978544
71,104,2,179,-0.5,0.5,-0.5,2,2,0.8,2,475,1,1,475,1,0,1.2,1,-1.07655476740866,-1.07655476740866,750,1,0,congruent,0.1,4494.08146298055,663.724445784018
71,104,2,180,0.5,0.5,0.5,1,3,1,1,554,1,1,554,1,0,1.4,NaN,-0.458264303156789,-0.458264303156789,750,0,0,incongruent,1,2201.62488062247,1642.90726388285
71,104,2,181,-0.5,-0.5,-0.5,4,4,1,2,684,0,1,NaN,1,0,1.4,1,0.559175701308322,NaN,750,0,1,congruent,0.1,566.355133263669,10198.2521188214
71,104,2,183,-0.5,0.5,0,4,NaN,1,4,608,1,1,608,1,0,1.6,1,-0.035635378225128,-0.035635378225128,750,0,0,neutral,0.1,6854.08342093778,1473.46083218683
71,104,2,184,0.5,-0.5,-0.5,2,2,1,2,695,1,1,695,1,0,1.4,NaN,0.645266778609215,0.645266778609215,750,1,0,congruent,1,1808.98109591348,5658.05260933619
71,104,2,186,0.5,0.5,0.5,3,1,1,1,547,0,1,NaN,0,0,1.6,NaN,-0.513049534166449,NaN,750,1,0,incongruent,0,2752.47935059131,4212.88314757713
71,104,2,187,0.5,-0.5,0,2,NaN,0.8,2,563,1,1,563,1,0,1.4,NaN,-0.387826149001513,-0.387826149001513,750,0,0,neutral,1,6161.31490215154,2800.12769188491
71,104,2,188,-0.5,-0.5,0.5,1,2,0.8,3,687,0,1,NaN,1,0,1.4,1,0.582655086026747,NaN,750,0,1,incongruent,0.1,5767.05554321951,2316.29450730506
71,104,2,189,0.5,0.5,0.5,3,1,0.8,3,685,1,1,685,1,0,1.4,NaN,0.56700216288113,0.56700216288113,750,0,0,incongruent,1,2505.14841471469,1874.53505853519
71,104,2,190,-0.5,-0.5,-0.5,2,2,0.8,2,593,1,1,593,0,0,1.4,1,-0.153032301817256,-0.153032301817256,750,1,0,congruent,0,1393.44051443515,2012.13800176879
71,104,2,191,0.5,0.5,0.5,1,4,0.8,1,734,1,1,734,1,0,1,NaN,0.950498779948749,0.950498779948749,750,0,0,incongruent,1,271.610811514059,5070.87829598833
71,104,2,193,0.5,0.5,0,2,NaN,0.6,1,439,0,1,NaN,0,0,1,NaN,-1.35830738402977,NaN,750,0,1,neutral,0,11124.6664559562,4160.09327076719
71,104,2,194,0.5,-0.5,-0.5,1,1,0.4,1,465,1,1,465,0,0,0.8,NaN,-1.15481938313675,-1.15481938313675,750,1,0,congruent,0,2951.61394312095,3919.23409634518
71,104,2,195,0.5,0.5,0,4,NaN,0.4,4,585,1,1,585,1,0,0.4,NaN,-0.215643994399725,-0.215643994399725,750,0,0,neutral,1,2840.43571649312,3922.54511847278
71,104,2,196,0.5,0.5,-0.5,3,3,0.6,3,642,1,1,642,1,0,0.8,NaN,0.230464315250363,0.230464315250363,750,1,0,congruent,1,3958.63806175661,1914.02405973321
71,104,2,197,-0.5,0.5,0.5,4,1,0.6,4,711,1,1,711,1,0,0.8,1,0.770490163774152,0.770490163774152,750,0,0,incongruent,0.1,2312.649659264,3466.87302448626
71,104,2,198,0.5,-0.5,0.5,1,2,0.6,1,666,1,1,666,0,0,1,NaN,0.418299392997768,0.418299392997768,750,0,0,incongruent,0,1726.39821389751,4870.05450111719
71,104,2,199,-0.5,0.5,0,2,NaN,0.6,2,570,1,1,570,1,0,1,1,-0.333040917991853,-0.333040917991853,750,0,0,neutral,0.1,11902.5073765146,1868.2731400276
71,104,2,200,0.5,-0.5,-0.5,4,4,0.8,4,613,1,1,613,0,0,1.2,NaN,0.00349692963891474,0.00349692963891474,750,1,0,congruent,0,1664.59620459429,10160.2492166827
71,104,2,201,-0.5,-0.5,0.5,2,3,0.8,2,540,1,1,540,0,0,0.8,0.8,-0.567834765176109,-0.567834765176109,750,0,0,incongruent,0,3627.26488369205,17417.5771419589
71,104,2,202,0.5,-0.5,-0.5,4,4,0.8,4,424,1,1,424,1,0,0.4,NaN,-1.4757043076219,-1.4757043076219,750,1,0,congruent,1,5854.33437292837,10563.0003446915
71,104,2,203,-0.5,-0.5,0.5,2,1,0.8,2,584,1,1,584,0,0,0.6,0.6,-0.223470455972533,-0.223470455972533,750,0,0,incongruent,0,4128.43113809737,4848.79440477054
71,104,2,204,-0.5,-0.5,0.5,3,4,0.8,4,620,0,1,NaN,1,0,0.6,0.4,0.0582821606485746,NaN,750,1,0,incongruent,0.1,1439.715198068,2816.49148575675
71,104,2,205,0.5,0.5,0.5,2,3,0.8,2,535,1,1,535,1,0,0.6,NaN,-0.606967073040152,-0.606967073040152,750,0,0,incongruent,1,1445.09046920634,5418.06588015938
71,104,2,206,0.5,0.5,-0.5,1,1,1,1,818,1,0,818,0,0,1,NaN,1.60792155206467,1.60792155206467,750,1,0,congruent,0,6672.98600298113,4276.52139162918
71,104,2,207,0.5,-0.5,0.5,3,4,0.8,3,876,1,0,876,1,0,1,NaN,2.06185632328756,2.06185632328756,750,0,0,incongruent,1,5172.703917816,2789.97512380303
71,104,2,208,-0.5,-0.5,0.5,2,1,0.8,1,604,0,1,NaN,1,0,1,0.4,-0.0669412245163622,NaN,750,1,0,incongruent,0.1,3949.97887979676,1263.93989330457
71,104,2,209,0.5,-0.5,0.5,3,2,0.8,3,806,1,0,806,1,0,1.2,NaN,1.51400401319096,1.51400401319096,750,0,0,incongruent,1,2302.60235230024,2953.03365602889
71,104,2,210,-0.5,-0.5,0.5,1,4,0.8,1,655,1,1,655,0,0,1.4,0.4,0.332208315696874,0.332208315696874,750,0,0,incongruent,0,3916.77256462712,6484.96453971039
71,104,2,211,-0.5,-0.5,0.5,4,2,0.8,4,626,1,1,626,0,0,1,0.4,0.105240930085426,0.105240930085426,750,0,0,incongruent,0,2460.76188524165,6015.86234888677
71,104,2,212,0.5,-0.5,0.5,1,4,0.8,1,770,1,0,770,0,0,1,NaN,1.23225139656986,1.23225139656986,750,0,0,incongruent,0,2218.99348841138,1745.85302539574
71,104,2,213,-0.5,-0.5,-0.5,2,2,0.8,2,725,1,1,725,0,0,0.6,0.4,0.880060625793472,0.880060625793472,750,1,0,congruent,0,14375.3495945089,3322.55502288878
71,104,2,214,-0.5,0.5,-0.5,4,4,0.8,4,421,1,1,421,1,0,0.4,1,-1.49918369234033,-1.49918369234033,750,1,0,congruent,0.1,3913.39410385593,1336.43688494386
71,104,2,216,0.5,0.5,-0.5,1,1,0.8,2,439,0,1,NaN,0,0,0.4,NaN,-1.35830738402977,NaN,750,0,1,congruent,0,3526.89643146263,4238.60317097617
71,104,2,217,0.5,-0.5,0.5,3,2,0.6,3,792,1,0,792,1,0,0.4,NaN,1.40443355117164,1.40443355117164,750,0,0,incongruent,1,1073.99256177188,1398.37383538661
71,104,2,218,-0.5,-0.5,0.5,2,1,0.6,2,814,1,0,814,1,0,0.8,0.4,1.57661570577343,1.57661570577343,750,0,0,incongruent,0.1,6767.15931440798,855.140714898405
71,104,2,219,0.5,-0.5,0,3,NaN,0.6,1,743,0,1,NaN,0,0,1,NaN,1.02093693410403,NaN,750,0,1,neutral,0,2210.67761578728,3350.11368175438
71,104,2,220,0.5,0.5,-0.5,1,1,0.6,1,524,1,1,524,1,0,0.8,NaN,-0.693058150341046,-0.693058150341046,750,1,0,congruent,1,5472.12435427797,2580.86473194756
71,104,2,221,0.5,0.5,-0.5,2,2,0.6,2,574,1,1,574,1,0,1,NaN,-0.301735071700619,-0.301735071700619,750,1,0,congruent,1,2841.86945805591,3938.3013553188
71,104,2,222,0.5,-0.5,0,1,NaN,0.6,1,493,1,1,493,0,0,1.4,NaN,-0.935678459098111,-0.935678459098111,750,0,0,neutral,0,3941.34759893245,2469.48593174037
71,104,2,223,0.5,-0.5,-0.5,2,2,0.6,2,611,1,1,611,1,0,1,NaN,-0.0121559935067024,-0.0121559935067024,750,1,0,congruent,1,3254.16741179358,2326.88162834139
71,104,2,224,-0.5,0.5,0.5,1,4,0.6,1,650,1,1,650,1,0,1.2,1,0.293076007832831,0.293076007832831,750,0,0,incongruent,0.1,1600.99864448207,1657.88080946404
71,104,2,225,0.5,0.5,-0.5,3,3,0.8,3,662,1,1,662,1,0,1.4,NaN,0.386993546706533,0.386993546706533,750,1,0,congruent,1,1395.46370856148,4978.18850808714
71,104,2,226,-0.5,-0.5,0,2,NaN,0.8,2,651,1,1,651,1,0,1.4,0.4,0.300902469405639,0.300902469405639,750,0,0,neutral,0.1,6272.2212431991,2129.66128642278
71,104,2,227,0.5,-0.5,-0.5,4,4,0.8,4,452,1,1,452,1,0,1.2,NaN,-1.25656338358326,-1.25656338358326,750,1,0,congruent,1,3567.83283971697,3450.53251132285
71,104,2,228,-0.5,0.5,0,3,NaN,0.8,3,588,1,1,588,1,0,1.6,1,-0.192164609681299,-0.192164609681299,750,0,0,neutral,0.1,4086.01910906728,1861.39205906925
71,104,2,229,-0.5,-0.5,0.5,4,1,1,4,630,1,1,630,1,0,1.4,0.6,0.13654677637666,0.13654677637666,750,0,0,incongruent,0.1,3751.65048273925,7132.99197957482
71,104,2,230,-0.5,0.5,-0.5,2,2,1,2,529,1,1,529,1,0,1.4,1,-0.653925842477003,-0.653925842477003,750,1,0,congruent,0.1,3109.65466286723,6607.48953223458
71,104,2,231,-0.5,-0.5,-0.5,1,1,1,1,580,1,1,580,1,0,1.2,0.8,-0.254776302263767,-0.254776302263767,750,1,0,congruent,0.1,3194.75919034466,5950.27495840136
71,104,2,232,0.5,-0.5,0.5,4,3,1,4,712,1,1,712,1,0,1.2,NaN,0.778316625346961,0.778316625346961,750,0,0,incongruent,1,6502.98687401653,8161.00553631873
71,104,2,233,0.5,-0.5,0.5,3,1,1,3,890,1,0,890,1,0,1.2,NaN,2.17142678530688,2.17142678530688,750,0,0,incongruent,1,6012.92469577324,12676.7658456639
71,104,2,234,-0.5,0.5,-0.5,2,2,1,2,576,1,1,576,1,0,1.4,1,-0.286082148555001,-0.286082148555001,750,1,0,congruent,0.1,5078.7654426319,3158.84123871345
71,104,2,235,0.5,0.5,-0.5,3,3,1,3,634,1,1,634,1,0,1.4,NaN,0.167852622667894,0.167852622667894,750,1,0,congruent,1,1974.49448570328,2126.08110257849
71,104,2,236,0.5,0.5,-0.5,4,4,1,4,488,1,1,488,1,0,1.6,NaN,-0.974810766962153,-0.974810766962153,750,1,0,congruent,1,3651.74803405277,4516.66078299645
71,104,2,237,0.5,-0.5,0,2,NaN,1,2,518,1,1,518,1,0,1.8,NaN,-0.740016919777897,-0.740016919777897,750,0,0,neutral,1,1652.40582931235,9664.90513488033
71,104,2,238,0.5,-0.5,-0.5,1,1,1,1,585,1,1,585,1,0,1.8,NaN,-0.215643994399725,-0.215643994399725,750,1,0,congruent,1,5350.19670304133,4510.10841793989
71,104,2,239,-0.5,0.5,-0.5,2,2,1,2,531,1,1,531,1,0,1.8,1,-0.638272919331386,-0.638272919331386,750,1,0,congruent,0.1,10267.7816086781,6344.72771455408
71,104,2,240,0.5,-0.5,0.5,3,1,1,3,634,1,1,634,1,0,1.8,NaN,0.167852622667894,0.167852622667894,750,0,0,incongruent,1,4563.00829581519,5450.45144561138
71,104,2,241,0.5,-0.5,0.5,1,2,1,1,619,1,1,619,1,0,1.8,NaN,0.050455699075766,0.050455699075766,750,0,0,incongruent,1,1373.74218744526,1880.46604499561
71,104,2,242,-0.5,-0.5,0.5,2,1,1,2,566,1,1,566,1,0,1.8,1,-0.364346764283087,-0.364346764283087,750,0,0,incongruent,0.1,2933.22836165089,11397.3825392183
71,104,2,243,0.5,-0.5,0.5,1,3,1,1,581,1,1,581,1,0,1.6,NaN,-0.246949840690959,-0.246949840690959,750,0,0,incongruent,1,11510.0139747166,2768.46090975136
71,104,2,244,0.5,-0.5,-0.5,2,2,1,2,523,1,1,523,1,0,1.6,NaN,-0.700884611913854,-0.700884611913854,750,1,0,congruent,1,1735.96302897345,2610.20643124383
71,104,2,245,0.5,-0.5,-0.5,4,4,1,4,319,1,1,319,1,0,1.8,NaN,-2.2974827727668,-2.2974827727668,750,1,0,congruent,1,2180.84933656441,3740.87939147695
71,104,2,246,0.5,-0.5,0.5,2,3,1,2,510,1,1,510,1,0,1.8,NaN,-0.802628612360365,-0.802628612360365,750,0,0,incongruent,1,2474.81135922306,3760.88447151496
71,104,2,247,-0.5,0.5,-0.5,1,1,1,1,720,1,1,720,1,0,1.8,1,0.840928317929429,0.840928317929429,750,1,0,congruent,0.1,4760.30095469558,884.43391979049
71,104,2,248,0.5,-0.5,0,2,NaN,1,2,527,1,1,527,1,0,1.8,NaN,-0.66957876562262,-0.66957876562262,750,0,0,neutral,1,6237.36271067631,1601.25079440256
71,104,2,249,0.5,0.5,-0.5,3,3,1,3,875,1,0,875,0,0,1.8,NaN,2.05402986171475,2.05402986171475,750,1,0,congruent,0,6179.03189147996,2363.5896791258
71,104,2,250,-0.5,-0.5,0.5,2,4,0.8,4,471,0,1,NaN,1,0,1.4,1,-1.1078606136999,NaN,750,1,0,incongruent,0.1,6023.40530657801,3409.34333597435
71,104,2,251,-0.5,0.5,-0.5,1,1,0.8,2,509,0,1,NaN,0,0,1.2,1,-0.810455073933174,NaN,750,0,1,congruent,0,2109.65118235845,2500.01266133668
71,104,2,252,-0.5,0.5,0,4,NaN,0.6,4,823,1,0,823,0,0,0.8,0.8,1.64705385992871,1.64705385992871,750,0,0,neutral,0,991.87253248696,2105.21895597301
71,104,2,253,0.5,0.5,-0.5,1,1,0.4,1,363,1,1,363,1,0,0.6,NaN,-1.95311846356322,-1.95311846356322,750,1,0,congruent,1,3114.40520173559,5598.76642660336
71,104,2,254,0.5,0.5,0,2,NaN,0.4,2,586,1,1,586,1,0,0.6,NaN,-0.207817532826916,-0.207817532826916,750,0,0,neutral,1,2966.25104884238,4164.05869999626
71,104,2,255,-0.5,-0.5,-0.5,3,3,0.4,3,521,1,1,521,0,0,1,1,-0.716537535059471,-0.716537535059471,750,1,0,congruent,0,4494.23058253044,1192.7170716521
71,104,2,256,0.5,-0.5,-0.5,2,2,0.4,2,625,1,1,625,1,0,0.8,NaN,0.0974144685126173,0.0974144685126173,750,1,0,congruent,1,3833.20638627203,1146.24662990793
71,104,2,257,-0.5,-0.5,-0.5,3,3,0.4,3,394,1,1,394,0,0,1.2,0.8,-1.71049815480616,-1.71049815480616,750,1,0,congruent,0,1899.94537123401,961.242185272089
71,104,2,258,-0.5,-0.5,-0.5,1,1,0.4,1,401,1,1,401,1,0,1.2,0.6,-1.6557129237965,-1.6557129237965,750,1,0,congruent,0.1,1253.38855620364,3434.35333776682
71,104,2,259,-0.5,-0.5,-0.5,2,2,0.4,2,493,1,1,493,0,0,1,0.6,-0.935678459098111,-0.935678459098111,750,1,0,congruent,0,3737.89907168475,12390.8796882093
71,104,2,261,0.5,-0.5,0.5,3,4,0.4,3,779,1,0,779,1,0,0.6,NaN,1.30268955072513,1.30268955072513,750,0,0,incongruent,1,2087.15799342141,4614.30352360259
71,104,2,262,-0.5,-0.5,-0.5,2,2,0.4,2,612,1,1,612,1,0,0.6,0.4,-0.00432953193389381,-0.00432953193389381,750,1,0,congruent,0.1,1812.78821184936,2931.77401924306
71,104,2,265,-0.5,-0.5,-0.5,3,3,0.4,3,601,1,1,601,1,0,0.6,0.4,-0.0904206092347878,-0.0904206092347878,750,1,0,congruent,0.1,11479.4012378553,1609.18366718739
71,104,2,266,0.5,0.5,0,4,NaN,0.4,4,479,1,1,479,1,0,0.8,NaN,-1.04524892111743,-1.04524892111743,750,0,0,neutral,1,7090.40905401456,5327.10927242526
71,104,2,267,-0.5,-0.5,0.5,1,4,0.6,1,759,1,0,759,0,0,0.8,0.6,1.14616031926896,1.14616031926896,750,0,0,incongruent,0,4523.48302144535,1849.47950286442
71,104,2,269,-0.5,-0.5,0,3,NaN,0.6,3,569,1,1,569,1,0,0.8,0.6,-0.340867379564661,-0.340867379564661,750,0,0,neutral,0.1,871.269325740541,1843.48113459247
71,104,2,270,0.5,-0.5,-0.5,4,4,0.6,4,614,1,1,614,0,0,1,NaN,0.0113233912117233,0.0113233912117233,750,1,0,congruent,0,703.988900944398,17071.2528696685
71,104,2,271,-0.5,-0.5,0.5,2,3,0.6,2,755,1,0,755,1,0,0.8,0.6,1.11485447297773,1.11485447297773,750,0,0,incongruent,0.1,2650.10162296418,11589.8889083492
71,104,2,272,-0.5,-0.5,0.5,3,2,0.6,3,590,1,1,590,1,0,0.6,0.8,-0.176511686535682,-0.176511686535682,750,0,0,incongruent,0.1,4720.17848385386,11062.2529289425
71,104,2,273,0.5,0.5,0.5,2,4,0.6,2,682,1,1,682,1,0,0.8,NaN,0.543522778162704,0.543522778162704,750,0,0,incongruent,1,3457.24661629738,4502.97835748356
71,104,2,274,-0.5,-0.5,0,4,NaN,0.6,4,487,1,1,487,0,0,1,0.8,-0.982637228534962,-0.982637228534962,750,0,0,neutral,0,3345.36816767449,1771.51023166092
71,104,2,275,0.5,-0.5,-0.5,2,2,0.6,2,752,1,0,752,0,0,0.8,NaN,1.0913750882593,1.0913750882593,750,1,0,congruent,0,3722.6018681284,1706.29846098255
71,104,2,276,0.5,-0.5,-0.5,4,4,0.6,4,516,1,1,516,1,0,0.8,NaN,-0.755669842923514,-0.755669842923514,750,1,0,congruent,1,1022.27063302793,17574.724361337
71,104,2,277,0.5,-0.5,0.5,3,2,0.6,2,753,0,0,NaN,1,0,1,NaN,1.09920154983211,NaN,750,1,0,incongruent,1,2130.12107232459,7168.74720213096
71,104,2,278,0.5,0.5,0.5,4,1,0.6,4,644,1,1,644,1,0,1.2,NaN,0.24611723839598,0.24611723839598,750,0,0,incongruent,1,3760.18133956079,2259.10077922772
71,104,2,279,0.5,0.5,-0.5,3,3,0.8,4,697,0,1,NaN,0,0,1.2,NaN,0.660919701754833,NaN,750,0,1,congruent,0,20328.884009087,1264.52688156238
71,104,2,280,-0.5,0.5,0,4,NaN,0.8,4,576,1,1,576,1,0,1.2,0.6,-0.286082148555001,-0.286082148555001,750,0,0,neutral,0.1,1179.33076059612,3410.16221964673
71,104,2,281,-0.5,-0.5,-0.5,2,2,0.8,2,649,1,1,649,1,0,1.4,0.6,0.285249546260022,0.285249546260022,750,1,0,congruent,0.1,3350.94529791723,1967.00307024307
71,104,2,282,-0.5,-0.5,0.5,4,3,0.8,4,695,1,1,695,1,0,1.2,0.8,0.645266778609215,0.645266778609215,750,0,0,incongruent,0.1,8754.07448855668,5752.65734808455
71,104,2,283,-0.5,-0.5,0,2,NaN,0.8,2,671,1,1,671,1,0,1,0.8,0.45743170086181,0.45743170086181,750,0,0,neutral,0.1,2239.79970045094,14464.2395011424
71,104,2,284,0.5,0.5,-0.5,4,4,0.8,4,498,1,1,498,1,0,0.8,NaN,-0.896546151234068,-0.896546151234068,750,1,0,congruent,1,2706.29464380792,7806.3934493846
71,104,2,285,-0.5,0.5,0.5,2,3,0.8,2,776,1,0,776,0,0,1.2,0.6,1.27921016600671,1.27921016600671,750,0,0,incongruent,0,5456.95303836841,20217.388980602
71,104,2,286,-0.5,0.5,0,1,NaN,0.6,1,530,1,1,530,1,0,1,0.4,-0.646099380904194,-0.646099380904194,750,0,0,neutral,0.1,4242.58843399457,9959.61409016506
71,104,2,289,0.5,0.5,-0.5,3,3,0.8,3,588,1,1,588,1,0,1.2,NaN,-0.192164609681299,-0.192164609681299,750,1,0,congruent,1,10331.8556010842,3687.83604884787
71,104,2,290,-0.5,0.5,-0.5,4,4,0.8,4,445,1,1,445,1,0,1.2,0.6,-1.31134861459292,-1.31134861459292,750,1,0,congruent,0.1,1683.56325284316,1476.40699760394
71,104,2,291,0.5,-0.5,0,1,NaN,0.8,1,465,1,1,465,1,0,1.4,NaN,-1.15481938313675,-1.15481938313675,750,0,0,neutral,1,3796.3494493242,1678.38695827448
71,104,2,292,-0.5,-0.5,-0.5,3,3,0.8,3,614,1,1,614,1,0,1.6,0.8,0.0113233912117233,0.0113233912117233,750,1,0,congruent,0.1,2996.57944145816,8348.96802657155
71,104,2,293,-0.5,0.5,0,4,NaN,0.8,4,582,1,1,582,1,0,1.6,0.8,-0.23912337911815,-0.23912337911815,750,0,0,neutral,0.1,461.10017303745,7434.48519071193
71,104,2,294,-0.5,-0.5,-0.5,1,1,1,1,896,1,0,896,1,0,1.4,1,2.21838555474373,2.21838555474373,750,1,0,congruent,0.1,2573.71015525667,3669.23137760836
71,104,2,296,-0.5,-0.5,0,3,NaN,0.8,3,609,1,1,609,0,0,1,1,-0.0278089166523194,-0.0278089166523194,750,0,0,neutral,0,2312.000683674,2144.22625823508
71,104,2,297,0.5,-0.5,0.5,1,4,0.8,1,584,1,1,584,1,0,0.6,NaN,-0.223470455972533,-0.223470455972533,750,0,0,incongruent,1,2781.70762498248,1210.74472589404
71,104,2,298,-0.5,0.5,0,3,NaN,0.8,3,610,1,1,610,1,0,0.8,0.8,-0.0199824550795109,-0.0199824550795109,750,0,0,neutral,0.1,5734.91888184657,6192.25429858613
71,104,2,299,0.5,-0.5,0.5,1,2,0.8,1,480,1,1,480,1,0,0.8,NaN,-1.03742245954462,-1.03742245954462,750,0,0,incongruent,1,5047.34921856757,12411.7447938428
71,104,2,300,0.5,0.5,0.5,2,1,0.8,2,739,1,1,739,1,0,1,NaN,0.989631087812792,0.989631087812792,750,0,0,incongruent,1,2574.33201514971,2447.28620276687
71,104,3,301,-0.5,-0.5,0,4,NaN,0.8,4,613,1,1,613,0,0,1.4,0.8,0.00349692963891474,0.00349692963891474,750,0,0,neutral,0,1131.07382819254,1285.79895240843
71,104,3,302,0.5,-0.5,-0.5,1,1,0.8,1,535,1,1,535,1,0,1.4,NaN,-0.606967073040152,-0.606967073040152,750,1,0,congruent,1,1134.69236958177,4259.71471600847
71,104,3,303,0.5,-0.5,0.5,2,4,0.8,2,818,1,0,818,1,0,1.4,NaN,1.60792155206467,1.60792155206467,750,0,0,incongruent,1,4438.92905568556,2886.35994638395
71,104,3,304,-0.5,0.5,-0.5,1,1,0.8,1,452,1,1,452,1,0,1.6,0.8,-1.25656338358326,-1.25656338358326,750,1,0,congruent,0.1,3517.86571072271,2169.87117562981
71,104,3,305,0.5,-0.5,0.5,3,2,0.8,2,567,0,1,NaN,1,0,1.4,NaN,-0.356520302710278,NaN,750,1,0,incongruent,1,5984.73688428718,1832.55274107406
71,104,3,307,-0.5,0.5,-0.5,3,3,0.8,2,525,0,1,NaN,0,0,1.4,1,-0.685231688768237,NaN,750,0,1,congruent,0,1983.27579617803,2751.77410810066
71,104,3,309,-0.5,-0.5,-0.5,3,3,0.6,3,503,1,1,503,0,0,1,0.6,-0.857413843370025,-0.857413843370025,750,1,0,congruent,0,4943.83781610362,1618.13414720603
71,104,3,312,0.5,0.5,-0.5,1,1,0.6,1,509,1,1,509,1,0,1,NaN,-0.810455073933174,-0.810455073933174,750,1,0,congruent,1,4631.1637541,1944.9186488202
71,104,3,313,-0.5,-0.5,0,3,NaN,0.8,3,661,1,1,661,1,0,1.4,0.4,0.379167085133725,0.379167085133725,750,0,0,neutral,0.1,1261.89721909261,13285.6768575792
71,104,3,314,0.5,0.5,0.5,4,1,0.8,4,695,1,1,695,1,0,1.2,NaN,0.645266778609215,0.645266778609215,750,0,0,incongruent,1,1645.56371407855,10191.3607162862
71,104,3,315,-0.5,-0.5,0.5,2,4,0.8,1,578,0,1,NaN,1,0,1.6,0.4,-0.270429225409384,NaN,750,0,1,incongruent,0.1,5662.11239225639,5644.62797682918
71,104,3,316,0.5,0.5,-0.5,3,3,0.8,3,655,1,1,655,1,0,1.4,NaN,0.332208315696874,0.332208315696874,750,1,0,congruent,1,1432.871150305,4824.92468236065
71,104,3,317,-0.5,-0.5,-0.5,2,2,0.8,2,545,1,1,545,1,0,1.6,0.6,-0.528702457312066,-0.528702457312066,750,1,0,congruent,0.1,3548.1590310369,4883.80973706953
71,104,3,318,-0.5,0.5,0,1,NaN,0.8,1,695,1,1,695,1,0,1.4,0.8,0.645266778609215,0.645266778609215,750,0,0,neutral,0.1,2697.02279647448,3804.08515959497
71,104,3,319,-0.5,-0.5,-0.5,4,4,0.8,4,458,1,1,458,1,0,1.4,0.8,-1.20960461414641,-1.20960461414641,750,1,0,congruent,0.1,4243.08069163641,3921.17411845599
71,104,3,320,-0.5,0.5,-0.5,1,1,0.8,1,819,1,0,819,0,0,1.2,0.8,1.61574801363748,1.61574801363748,750,1,0,congruent,0,1564.33370083865,4099.54420720056
71,104,3,321,-0.5,-0.5,0.5,3,4,0.8,3,653,1,1,653,1,0,1,1,0.316555392551257,0.316555392551257,750,0,0,incongruent,0.1,3159.11315427935,10363.6390805506
71,104,3,322,-0.5,0.5,-0.5,2,2,0.8,1,558,0,1,NaN,0,0,0.8,0.6,-0.426958456865555,NaN,750,0,1,congruent,0,3848.10238015418,6541.91168913377
71,104,3,323,0.5,0.5,0,1,NaN,0.6,1,732,1,1,732,1,0,0.6,NaN,0.934845856803132,0.934845856803132,750,0,0,neutral,1,3145.431733202,2909.64864024529
71,104,3,324,-0.5,-0.5,-0.5,3,3,0.6,3,487,1,1,487,0,0,0.8,1,-0.982637228534962,-0.982637228534962,750,1,0,congruent,0,1417.64280445597,4958.98035254873
71,104,3,325,0.5,-0.5,0,2,NaN,0.6,1,553,0,1,NaN,0,0,0.6,NaN,-0.466090764729598,NaN,750,0,1,neutral,0,5040.57916419728,20160.1892908859
71,104,3,326,0.5,-0.5,0.5,1,4,0.6,1,970,1,0,970,1,0,0.6,NaN,2.79754371113157,2.79754371113157,750,0,0,incongruent,1,10409.2957737362,2429.58007186448
71,104,3,327,0.5,0.5,-0.5,2,2,0.6,2,521,1,1,521,1,0,0.8,NaN,-0.716537535059471,-0.716537535059471,750,1,0,congruent,1,3089.60881979413,7003.70782564013
71,104,3,328,-0.5,0.5,-0.5,1,1,0.6,1,584,1,1,584,1,0,1.2,0.4,-0.223470455972533,-0.223470455972533,750,1,0,congruent,0.1,3262.5249511853,18236.3775154801
71,104,3,329,-0.5,-0.5,-0.5,3,3,0.6,3,500,1,1,500,1,0,1,0.8,-0.880893228088451,-0.880893228088451,750,1,0,congruent,0.1,2259.89857387238,4273.11954360421
71,104,3,330,-0.5,0.5,0.5,4,1,0.6,4,631,1,1,631,1,0,1.2,0.4,0.144373237949469,0.144373237949469,750,0,0,incongruent,0.1,10531.512019105,3986.56754549409
71,104,3,331,0.5,-0.5,0,3,NaN,0.8,3,656,1,1,656,1,0,1.4,NaN,0.340034777269682,0.340034777269682,750,0,0,neutral,1,12962.0532828324,1356.01395721062
71,104,3,332,-0.5,-0.5,-0.5,1,1,0.8,1,493,1,1,493,0,0,1.4,0.8,-0.935678459098111,-0.935678459098111,750,1,0,congruent,0,2041.44026796953,2308.26966090358
71,104,3,333,-0.5,-0.5,0.5,4,3,0.8,3,508,0,1,NaN,1,0,1,0.6,-0.818281535505983,NaN,750,1,0,incongruent,0.1,4677.23525492734,6544.51046318746
71,104,3,334,-0.5,0.5,-0.5,1,1,0.8,1,663,1,1,663,1,0,1,0.6,0.394820008279342,0.394820008279342,750,1,0,congruent,0.1,1897.06152965068,7922.99877308473
71,104,3,335,0.5,-0.5,-0.5,2,2,1,2,596,1,1,596,1,0,1,NaN,-0.129552917098831,-0.129552917098831,750,1,0,congruent,1,5136.34734494702,3237.46969345567
71,104,3,336,0.5,0.5,-0.5,4,4,1,4,511,1,1,511,1,0,1.2,NaN,-0.794802150787557,-0.794802150787557,750,1,0,congruent,1,1500.2272161936,11293.6743537491
71,104,3,337,0.5,-0.5,0.5,3,2,1,3,658,1,1,658,1,0,1.2,NaN,0.355687700415299,0.355687700415299,750,0,0,incongruent,1,1891.03501234549,6493.81354301856
71,104,3,338,0.5,0.5,0,1,NaN,1,1,753,1,0,753,0,0,1.6,NaN,1.09920154983211,1.09920154983211,750,0,0,neutral,0,1008.8539558457,409.575747712878
71,104,3,339,-0.5,0.5,-0.5,4,4,0.8,4,487,1,1,487,1,0,1.4,0.6,-0.982637228534962,-0.982637228534962,750,1,0,congruent,0.1,2951.56693246073,2549.39074464786
71,104,3,340,-0.5,0.5,0,2,NaN,0.8,2,716,1,1,716,1,0,1.4,0.8,0.809622471638195,0.809622471638195,750,0,0,neutral,0.1,1742.60033573847,2815.2998311836
71,104,3,341,0.5,-0.5,-0.5,1,1,0.8,1,568,1,1,568,1,0,1.2,NaN,-0.34869384113747,-0.34869384113747,750,1,0,congruent,1,3427.63345166094,2484.3007547996
71,104,3,342,0.5,0.5,0.5,3,2,0.8,3,782,1,0,782,0,0,1.2,NaN,1.32616893544356,1.32616893544356,750,0,0,incongruent,0,8886.97254563237,2380.88214073746
71,104,3,343,0.5,0.5,0,1,NaN,0.6,1,496,1,1,496,1,0,0.8,NaN,-0.912199074379685,-0.912199074379685,750,0,0,neutral,1,5062.14394036807,1331.41133155288
71,104,3,344,0.5,0.5,-0.5,4,4,0.6,4,663,1,1,663,1,0,1.2,NaN,0.394820008279342,0.394820008279342,750,1,0,congruent,1,3720.16723599824,2284.12020412198
71,104,3,345,-0.5,0.5,0.5,2,1,0.8,1,472,0,1,NaN,0,0,1.4,1,-1.10003415212709,NaN,750,1,0,incongruent,0,4484.12502884955,615.592676023498
71,104,3,346,-0.5,0.5,-0.5,4,4,0.6,4,518,1,1,518,1,0,1.2,0.8,-0.740016919777897,-0.740016919777897,750,1,0,congruent,0.1,2343.28983584779,1521.57561746767
71,104,3,347,0.5,-0.5,-0.5,1,1,0.6,1,565,1,1,565,0,0,1,NaN,-0.372173225855895,-0.372173225855895,750,1,0,congruent,0,2667.11849271387,4124.1235675469
71,104,3,348,0.5,0.5,0.5,3,2,0.6,3,748,1,1,748,1,0,1,NaN,1.06006924196807,1.06006924196807,750,0,0,incongruent,1,6458.23746439773,4022.58702963249
71,104,3,349,0.5,-0.5,0,2,NaN,0.8,2,635,1,1,635,1,0,1,NaN,0.175679084240703,0.175679084240703,750,0,0,neutral,1,4508.55313491351,1617.30631297446
71,104,3,350,-0.5,-0.5,0.5,1,4,0.8,3,640,0,1,NaN,1,0,1,0.6,0.214811392104745,NaN,750,0,1,incongruent,0.1,5883.93737094671,2355.79021327689
71,104,3,351,0.5,-0.5,0,4,NaN,0.8,4,631,1,1,631,0,0,1.2,NaN,0.144373237949469,0.144373237949469,750,0,0,neutral,0,3969.49659711872,1630.39188298013
71,104,3,352,0.5,0.5,-0.5,1,1,0.8,1,677,1,1,677,1,0,1,NaN,0.504390470298662,0.504390470298662,750,1,0,congruent,1,2780.66253560689,1629.31295015311
71,104,3,353,-0.5,-0.5,-0.5,3,3,0.8,3,595,1,1,595,1,0,1.4,0.6,-0.137379378671639,-0.137379378671639,750,1,0,congruent,0.1,2694.66293429329,6178.32758032947
71,104,3,354,0.5,-0.5,0.5,2,1,0.8,1,863,0,0,NaN,1,0,1.2,NaN,1.96011232284105,NaN,750,1,0,incongruent,1,3165.42337257718,644.627423164783
71,104,3,355,-0.5,-0.5,0,3,NaN,0.8,3,697,1,1,697,1,0,1.2,0.8,0.660919701754833,0.660919701754833,750,0,0,neutral,0.1,7099.59473193635,2604.0860174009
71,104,3,356,-0.5,-0.5,-0.5,4,4,0.8,4,665,1,1,665,1,0,1.2,0.8,0.410472931424959,0.410472931424959,750,1,0,congruent,0.1,1413.49308399917,6150.72048664391
71,104,3,357,-0.5,0.5,0.5,3,1,0.8,3,702,1,1,702,1,0,1.4,0.8,0.700052009618875,0.700052009618875,750,0,0,incongruent,0.1,3696.11063645916,1903.16629884087
71,104,3,358,-0.5,0.5,0,1,NaN,0.8,1,746,1,1,746,1,0,1.2,0.8,1.04441631882245,1.04441631882245,750,0,0,neutral,0.1,3625.02843058453,7694.13495686696
71,104,3,359,0.5,0.5,-0.5,3,3,1,3,516,1,1,516,1,0,1.2,NaN,-0.755669842923514,-0.755669842923514,750,1,0,congruent,1,2030.90454574329,5248.46890173499
71,104,3,360,-0.5,-0.5,-0.5,2,2,1,2,717,1,1,717,1,0,1.2,1,0.817448933211004,0.817448933211004,750,1,0,congruent,0.1,2400.16504802375,6407.95758383578
71,104,3,361,-0.5,0.5,-0.5,3,3,1,3,707,1,1,707,1,0,1.2,0.8,0.739184317482918,0.739184317482918,750,1,0,congruent,0.1,4882.53276420573,6704.49045406069
71,104,3,362,-0.5,0.5,0,1,NaN,1,1,668,1,1,668,1,0,1.2,0.8,0.433952316143385,0.433952316143385,750,0,0,neutral,0.1,4303.90238207574,4766.50461948993
71,104,3,363,-0.5,-0.5,-0.5,2,2,1,2,537,1,1,537,1,0,1.2,1,-0.591314149894535,-0.591314149894535,750,1,0,congruent,0.1,3268.57775286359,3281.15039321125
71,104,3,364,-0.5,-0.5,-0.5,3,3,1,3,775,1,0,775,1,0,1.2,1,1.2713837044339,1.2713837044339,750,1,0,congruent,0.1,4216.10671082227,4103.69411560589
71,104,3,365,0.5,-0.5,0.5,1,4,1,1,669,1,1,669,1,0,1,NaN,0.441778777716193,0.441778777716193,750,0,0,incongruent,1,3746.61299551084,2753.34886283862
71,104,3,366,0.5,0.5,-0.5,2,2,1,2,621,1,1,621,1,0,1.2,NaN,0.0661086222213831,0.0661086222213831,750,1,0,congruent,1,2149.97590225154,10161.138196117
71,104,3,367,0.5,-0.5,0.5,3,1,1,3,750,1,1,750,1,0,1.4,NaN,1.07572216511369,1.07572216511369,750,0,0,incongruent,1,3206.26752913972,2375.06844563147
71,104,3,368,-0.5,0.5,0.5,1,2,1,1,779,1,0,779,0,0,1.6,1,1.30268955072513,1.30268955072513,750,0,0,incongruent,0,3845.53130910097,5214.52014749448
71,104,3,370,-0.5,0.5,-0.5,1,1,0.6,1,491,1,1,491,1,0,1.2,0.8,-0.951331382243728,-0.951331382243728,750,1,0,congruent,0.1,8542.71580773693,5863.02086731639
71,104,3,372,0.5,-0.5,0,2,NaN,0.6,2,607,1,1,607,1,0,0.8,NaN,-0.0434618397979365,-0.0434618397979365,750,0,0,neutral,1,2167.38939642881,5350.43390699332
71,104,3,373,-0.5,-0.5,-0.5,1,1,0.6,1,611,1,1,611,1,0,0.8,1,-0.0121559935067024,-0.0121559935067024,750,1,0,congruent,0.1,1326.32326467779,7232.50832460681
71,104,3,374,0.5,-0.5,0.5,3,4,0.6,3,658,1,1,658,1,0,1,NaN,0.355687700415299,0.355687700415299,750,0,0,incongruent,1,2141.5226977386,5584.96399371841
71,104,3,375,0.5,-0.5,0,1,NaN,0.6,1,689,1,1,689,0,0,1.4,NaN,0.598308009172364,0.598308009172364,750,0,0,neutral,0,5085.08561724363,4480.19250939262
71,104,3,376,-0.5,0.5,-0.5,2,2,0.6,2,665,1,1,665,1,0,1.2,0.8,0.410472931424959,0.410472931424959,750,1,0,congruent,0.1,2267.41216423348,3088.21141363784
71,104,3,377,0.5,-0.5,-0.5,3,3,0.6,3,743,1,1,743,0,0,1.2,NaN,1.02093693410403,1.02093693410403,750,1,0,congruent,0,2637.61264563357,1649.88663368177
71,104,3,378,-0.5,0.5,0,4,NaN,0.6,4,455,1,1,455,1,0,0.8,0.8,-1.23308399886484,-1.23308399886484,750,0,0,neutral,0.1,4479.73094979068,1719.18053394666
71,104,3,379,0.5,-0.5,-0.5,2,2,0.8,2,513,1,1,513,1,0,0.8,NaN,-0.77914922764194,-0.77914922764194,750,1,0,congruent,1,2587.7214365623,5747.04942222609
71,104,3,380,0.5,0.5,-0.5,3,3,0.8,3,531,1,1,531,1,0,0.8,NaN,-0.638272919331386,-0.638272919331386,750,1,0,congruent,1,1855.03373297208,3857.97072030771
71,104,3,381,0.5,-0.5,-0.5,2,2,1,2,446,1,1,446,1,0,1.2,NaN,-1.30352215302011,-1.30352215302011,750,1,0,congruent,1,5688.46734405242,979.978637561296
71,104,3,382,0.5,-0.5,0,1,NaN,1,1,619,1,1,619,1,0,1.4,NaN,0.050455699075766,0.050455699075766,750,0,0,neutral,1,2963.04759690702,15433.1949510619
71,104,3,383,0.5,0.5,-0.5,3,3,1,3,498,1,1,498,1,0,1.8,NaN,-0.896546151234068,-0.896546151234068,750,1,0,congruent,1,891.549493792481,20127.7000800291
71,104,3,384,-0.5,-0.5,0.5,2,4,1,2,703,1,1,703,1,0,2,1,0.707878471191684,0.707878471191684,750,0,0,incongruent,0.1,1631.73291423974,3922.80790228132
71,104,3,385,-0.5,-0.5,0,1,NaN,1,1,486,1,1,486,1,0,1.8,1,-0.990463690107771,-0.990463690107771,750,0,0,neutral,0.1,6240.14958059946,11418.6736471111
71,104,3,386,-0.5,-0.5,-0.5,4,4,1,4,447,1,1,447,1,0,1.6,1,-1.2956956914473,-1.2956956914473,750,1,0,congruent,0.1,8736.36749837059,7534.03450206046
71,104,3,388,-0.5,-0.5,0.5,3,4,1,3,604,1,1,604,1,0,1.2,1,-0.0669412245163622,-0.0669412245163622,750,0,0,incongruent,0.1,6842.4633841304,5798.25971912238
71,104,3,389,0.5,0.5,0,4,NaN,1,4,501,1,1,501,1,0,1,NaN,-0.873066766515642,-0.873066766515642,750,0,0,neutral,1,1402.66437229937,3337.55389493504
71,104,3,390,0.5,0.5,0.5,2,3,1,3,968,0,0,NaN,0,0,1.2,NaN,2.78189078798595,NaN,750,1,0,incongruent,0,2629.00942895211,3754.15986273159
71,104,3,391,0.5,-0.5,0,3,NaN,0.8,3,525,1,1,525,1,0,1,NaN,-0.685231688768237,-0.685231688768237,750,0,0,neutral,1,4967.30169948514,4172.54216815081
71,104,3,392,0.5,0.5,-0.5,1,1,0.8,1,472,1,1,472,1,0,1.2,NaN,-1.10003415212709,-1.10003415212709,750,1,0,congruent,1,1273.63954653699,1717.0990480372
71,104,3,393,0.5,-0.5,0,3,NaN,0.8,3,555,1,1,555,1,0,1.4,NaN,-0.450437841583981,-0.450437841583981,750,0,0,neutral,1,1377.82876100802,1743.64087773147
71,104,3,394,0.5,0.5,-0.5,4,4,0.8,4,475,1,1,475,1,0,1.6,NaN,-1.07655476740866,-1.07655476740866,750,1,0,congruent,1,1299.0855106513,3610.30380101975
71,104,3,395,-0.5,-0.5,0.5,1,2,0.8,2,500,0,1,NaN,0,0,1.6,1,-0.880893228088451,NaN,750,1,0,incongruent,0,3313.33714349113,3803.08810379307
71,104,3,396,-0.5,-0.5,0,2,NaN,0.8,3,494,0,1,NaN,0,0,1.6,0.8,-0.927851997525302,NaN,750,0,1,neutral,0,4609.03036450836,2909.49533719025
71,104,3,397,-0.5,0.5,-0.5,1,1,0.8,1,693,1,1,693,1,0,1.2,0.8,0.629613855463598,0.629613855463598,750,1,0,congruent,0.1,633.251146925611,6790.94018857086
71,104,3,398,0.5,-0.5,0,3,NaN,0.8,3,754,1,0,754,1,0,1,NaN,1.10702801140492,1.10702801140492,750,0,0,neutral,1,20621.5952304149,3057.21820672169
71,104,3,399,0.5,-0.5,0.5,2,1,0.8,2,725,1,1,725,1,0,1,NaN,0.880060625793472,0.880060625793472,750,0,0,incongruent,1,4333.15868583899,4465.35461595479
71,104,3,400,-0.5,0.5,0.5,3,4,0.8,3,690,1,1,690,1,0,1,1,0.606134470745173,0.606134470745173,750,0,0,incongruent,0.1,1361.06119564421,2636.86369874636
71,104,3,401,-0.5,0.5,-0.5,1,1,0.8,1,568,1,1,568,1,0,1.2,1,-0.34869384113747,-0.34869384113747,750,1,0,congruent,0.1,2594.92916160952,4806.32352847853
71,104,3,402,0.5,0.5,0.5,4,3,1,3,459,0,1,NaN,0,0,1.4,NaN,-1.2017781525736,NaN,750,1,0,incongruent,0,4312.82466136647,4515.64796810487
71,104,3,403,-0.5,-0.5,0,3,NaN,0.8,3,912,1,0,912,1,0,1.2,0.6,2.34360893990867,2.34360893990867,750,0,0,neutral,0.1,2922.82264206134,6368.30348190007
71,104,3,404,-0.5,-0.5,-0.5,1,1,0.8,1,617,1,1,617,1,0,1,0.6,0.0348027759301489,0.0348027759301489,750,1,0,congruent,0.1,1174.02092869963,1877.63564835248
71,104,3,405,0.5,0.5,-0.5,2,2,0.8,2,803,1,0,803,0,0,0.8,NaN,1.49052462847254,1.49052462847254,750,1,0,congruent,0,7458.66275119301,881.383649356183
71,104,3,406,0.5,0.5,0.5,4,3,0.6,4,620,1,1,620,1,0,0.6,NaN,0.0582821606485746,0.0582821606485746,750,0,0,incongruent,1,5365.32909260881,4113.24842637796
71,104,3,407,-0.5,0.5,0.5,3,4,0.6,3,744,1,1,744,1,0,0.8,1,1.02876339567683,1.02876339567683,750,0,0,incongruent,0.1,3300.95253203069,2549.25238172429
71,104,3,408,0.5,0.5,0.5,1,2,0.6,1,809,1,0,809,0,0,1,NaN,1.53748339790939,1.53748339790939,750,0,0,incongruent,0,3098.32840120043,1960.81590659624
71,104,3,409,-0.5,-0.5,0.5,3,1,0.4,3,950,1,0,950,0,0,0.8,0.6,2.64101447967539,2.64101447967539,750,0,0,incongruent,0,8061.28091621795,1827.17239547283
71,104,3,410,-0.5,0.5,0,1,NaN,0.4,1,763,1,0,763,0,0,0.6,1,1.1774661655602,1.1774661655602,750,0,0,neutral,0,5778.49293015528,6762.13896891006
71,104,3,411,-0.5,0.5,-0.5,3,3,0.4,3,505,1,1,505,1,0,0.6,0.8,-0.841760920224408,-0.841760920224408,750,1,0,congruent,0.1,5365.04006293983,2583.25111499276
71,104,3,412,0.5,0.5,-0.5,1,1,0.6,1,656,1,1,656,1,0,0.4,NaN,0.340034777269682,0.340034777269682,750,1,0,congruent,1,929.652686616224,2842.07804311481
71,104,3,413,-0.5,0.5,0,2,NaN,0.6,2,642,1,1,642,1,0,0.6,0.8,0.230464315250363,0.230464315250363,750,0,0,neutral,0.1,4734.69710103233,3110.03044031629
71,104,3,414,-0.5,-0.5,-0.5,4,4,0.6,4,476,1,1,476,1,0,0.8,0.4,-1.06872830583586,-1.06872830583586,750,1,0,congruent,0.1,1292.45400091469,2308.82167839475
71,104,3,415,-0.5,-0.5,-0.5,1,1,0.6,1,474,1,1,474,0,0,1,0.6,-1.08438122898147,-1.08438122898147,750,1,0,congruent,0,1848.38905876938,2567.31123448964
71,104,3,416,0.5,0.5,-0.5,2,2,0.6,2,483,1,1,483,1,0,1,NaN,-1.0139430748262,-1.0139430748262,750,1,0,congruent,1,2473.73065805639,5132.93704402595
71,104,3,417,0.5,0.5,-0.5,4,4,0.8,4,532,1,1,532,1,0,1.2,NaN,-0.630446457758577,-0.630446457758577,750,1,0,congruent,1,2304.47536489939,1687.33599080362
71,104,3,418,-0.5,-0.5,-0.5,1,1,1,1,505,1,1,505,1,0,1.2,0.6,-0.841760920224408,-0.841760920224408,750,1,0,congruent,0.1,2002.59997151452,2557.62054477904
71,104,3,419,0.5,0.5,0,2,NaN,1,2,758,1,0,758,0,0,1.2,NaN,1.13833385769615,1.13833385769615,750,0,0,neutral,0,1498.16814229518,4713.13784419483
71,104,3,420,-0.5,-0.5,-0.5,4,4,0.8,4,463,1,1,463,1,0,1,0.6,-1.17047230628237,-1.17047230628237,750,1,0,congruent,0.1,1211.61073689589,1430.70626136807
71,104,3,421,0.5,-0.5,0,1,NaN,0.8,1,524,1,1,524,1,0,1.2,NaN,-0.693058150341046,-0.693058150341046,750,0,0,neutral,1,2374.28922815745,13665.8385760774
71,104,3,422,-0.5,0.5,-0.5,4,4,0.8,4,440,1,1,440,1,0,1.2,0.8,-1.35048092245696,-1.35048092245696,750,1,0,congruent,0.1,3118.64460629743,1309.37382580713
71,104,3,423,-0.5,-0.5,-0.5,2,2,0.8,2,535,1,1,535,1,0,1,0.6,-0.606967073040152,-0.606967073040152,750,1,0,congruent,0.1,6498.03128945621,6251.41597433662
71,104,3,424,-0.5,-0.5,-0.5,1,1,0.8,1,756,1,0,756,1,0,1,0.8,1.12268093455054,1.12268093455054,750,1,0,congruent,0.1,4228.77467897479,16268.083862474
71,104,3,425,-0.5,0.5,0.5,3,2,0.8,3,684,1,1,684,1,0,1.2,0.8,0.559175701308322,0.559175701308322,750,0,0,incongruent,0.1,2589.83744366967,2892.54870317828
71,104,3,426,-0.5,0.5,0.5,1,3,0.8,1,802,1,0,802,0,0,1.2,0.8,1.48269816689973,1.48269816689973,750,0,0,incongruent,0,2637.2281599466,8810.02228639666
71,104,3,427,0.5,0.5,0.5,2,4,0.6,2,856,1,0,856,0,0,0.8,NaN,1.90532709183139,1.90532709183139,750,0,0,incongruent,0,4000.76055673145,4450.79761141466
71,104,3,429,0.5,-0.5,-0.5,3,3,0.4,3,717,1,1,717,1,0,0.4,NaN,0.817448933211004,0.817448933211004,750,1,0,congruent,1,8263.13099432063,6692.02465234859
71,104,3,430,0.5,0.5,-0.5,4,4,0.4,4,484,1,1,484,1,0,0.6,NaN,-1.00611661325339,-1.00611661325339,750,1,0,congruent,1,2345.31083523672,1995.31501699235
71,104,3,431,0.5,0.5,0,1,NaN,0.4,1,570,1,1,570,1,0,0.8,NaN,-0.333040917991853,-0.333040917991853,750,0,0,neutral,1,1415.96881521417,3229.17891696764
71,104,3,432,0.5,0.5,-0.5,3,3,0.4,3,757,1,0,757,0,0,1.2,NaN,1.13050739612335,1.13050739612335,750,1,0,congruent,0,1981.20264896671,8309.90630565609
71,104,3,433,0.5,-0.5,0,1,NaN,0.4,1,548,1,1,548,1,0,1.2,NaN,-0.505223072593641,-0.505223072593641,750,0,0,neutral,1,11436.2390829768,2000.34885362458
71,104,3,434,-0.5,-0.5,-0.5,2,2,0.4,3,565,0,1,NaN,0,0,1.6,0.8,-0.372173225855895,NaN,750,0,1,congruent,0,2702.04529557609,7288.14435687535
71,104,3,435,-0.5,0.5,0,4,NaN,0.4,4,585,1,1,585,1,0,1.2,0.6,-0.215643994399725,-0.215643994399725,750,0,0,neutral,0.1,2226.04575896859,5689.5668581099
71,104,3,436,-0.5,-0.5,0.5,2,1,0.6,2,820,1,0,820,1,0,1,0.8,1.62357447521028,1.62357447521028,750,0,0,incongruent,0.1,4370.16554276021,5163.8244910767
71,104,3,437,-0.5,0.5,0,3,NaN,0.6,3,684,1,1,684,1,0,0.8,0.6,0.559175701308322,0.559175701308322,750,0,0,neutral,0.1,3143.54363761924,1896.29472751044
71,104,3,438,-0.5,0.5,0.5,2,3,0.8,2,590,1,1,590,1,0,1,0.6,-0.176511686535682,-0.176511686535682,750,0,0,incongruent,0.1,4000.01747549505,7907.37995781374
71,104,3,439,0.5,-0.5,0,4,NaN,0.8,4,632,1,1,632,0,0,0.8,NaN,0.152199699522277,0.152199699522277,750,0,0,neutral,0,2474.69310317062,4430.53086883198
71,104,3,440,-0.5,-0.5,-0.5,1,1,0.8,1,557,1,1,557,1,0,0.8,0.8,-0.434784918438364,-0.434784918438364,750,1,0,congruent,0.1,4812.44825122703,13137.9116956314
71,104,3,441,0.5,-0.5,-0.5,2,2,0.8,2,669,1,1,669,0,0,0.8,NaN,0.441778777716193,0.441778777716193,750,1,0,congruent,0,2041.21019694217,1635.77763237448
71,104,3,442,-0.5,0.5,-0.5,4,4,0.8,4,458,1,1,458,1,0,0.6,0.6,-1.20960461414641,-1.20960461414641,750,1,0,congruent,0.1,4815.13014576238,1057.2671137525
71,104,3,443,0.5,-0.5,-0.5,3,3,0.8,3,595,1,1,595,0,0,0.6,NaN,-0.137379378671639,-0.137379378671639,750,1,0,congruent,0,1411.89192919695,3639.29073133746
71,104,3,444,0.5,0.5,0.5,1,2,0.8,1,610,1,1,610,1,0,0.4,NaN,-0.0199824550795109,-0.0199824550795109,750,0,0,incongruent,1,3832.78837057906,13556.6049542373
71,104,3,445,-0.5,-0.5,0.5,4,3,1,3,740,0,1,NaN,1,0,0.8,0.8,0.9974575493856,NaN,750,1,0,incongruent,0.1,11086.008186798,1942.42305024715
71,104,3,446,0.5,0.5,0,3,NaN,1,3,751,1,0,751,0,0,0.8,NaN,1.08354862668649,1.08354862668649,750,0,0,neutral,0,1741.03750467394,3131.55852558181
71,104,3,447,0.5,-0.5,-0.5,2,2,0.8,2,667,1,1,667,1,0,0.8,NaN,0.426125854570576,0.426125854570576,750,1,0,congruent,1,2418.41465237543,12786.9210056597
71,104,3,448,0.5,0.5,-0.5,1,1,0.8,1,684,1,1,684,1,0,1,NaN,0.559175701308322,0.559175701308322,750,1,0,congruent,1,2460.88337717789,4285.01122536632
71,104,3,449,-0.5,-0.5,0,4,NaN,0.8,4,674,1,1,674,0,0,1.4,0.8,0.480911085580236,0.480911085580236,750,0,0,neutral,0,2541.10256715807,8629.39367667846
71,104,3,450,0.5,-0.5,-0.5,3,3,0.8,3,693,1,1,693,1,0,1,NaN,0.629613855463598,0.629613855463598,750,1,0,congruent,1,2528.23182313685,22731.8333353923
71,104,4,451,-0.5,0.5,-0.5,4,4,0.8,4,654,1,1,654,1,0,1.2,0.8,0.324381854124065,0.324381854124065,750,1,0,congruent,0.1,1858.4820225102,655.1247187455
71,104,4,452,0.5,0.5,-0.5,3,3,0.8,3,466,1,1,466,1,0,1.4,NaN,-1.14699292156394,-1.14699292156394,750,1,0,congruent,1,3103.22995465528,3470.7697224763
71,104,4,453,-0.5,0.5,-0.5,1,1,0.8,1,279,1,1,279,1,0,1.4,1,-2.61054123567914,-2.61054123567914,750,1,0,congruent,0.1,3723.92532927233,1762.39673423552
71,104,4,454,-0.5,-0.5,-0.5,3,3,0.8,3,631,1,1,631,0,0,1.2,0.6,0.144373237949469,0.144373237949469,750,1,0,congruent,0,1243.95383855628,3233.49561915628
71,104,4,455,-0.5,0.5,0,4,NaN,0.8,4,705,1,1,705,1,0,1.2,1,0.723531394337301,0.723531394337301,750,0,0,neutral,0.1,3477.40015678036,2994.82771391745
71,104,4,456,0.5,0.5,-0.5,2,2,1,2,582,1,1,582,1,0,1,NaN,-0.23912337911815,-0.23912337911815,750,1,0,congruent,1,4554.49988859839,4401.43221792488
71,104,4,457,-0.5,-0.5,0,4,NaN,1,4,556,1,1,556,1,0,1.2,0.6,-0.442611380011172,-0.442611380011172,750,0,0,neutral,0.1,1293.05120372086,4014.57222679806
71,104,4,458,0.5,-0.5,0.5,2,1,1,1,774,0,0,NaN,1,0,1,NaN,1.26355724286109,NaN,750,1,0,incongruent,1,5720.81655131307,2498.51753250402
71,104,4,459,-0.5,0.5,0.5,1,4,1,1,853,1,0,853,0,0,1.2,1,1.88184770711297,1.88184770711297,750,0,0,incongruent,0,2847.06227104365,1200.65355594948
71,104,4,460,-0.5,0.5,0,2,NaN,0.8,2,691,1,1,691,1,0,1.2,0.8,0.613960932317981,0.613960932317981,750,0,0,neutral,0.1,9292.92842001559,2227.94177539696
71,104,4,461,-0.5,-0.5,0.5,4,1,0.8,4,498,1,1,498,1,0,1.2,0.6,-0.896546151234068,-0.896546151234068,750,0,0,incongruent,0.1,4914.11470986357,2423.42459116158
71,104,4,462,0.5,-0.5,-0.5,2,2,0.8,2,440,1,1,440,1,0,1,NaN,-1.35048092245696,-1.35048092245696,750,1,0,congruent,1,7040.51061026816,2276.30310555145
71,104,4,463,-0.5,0.5,0.5,3,1,0.8,3,728,1,1,728,1,0,1.2,0.8,0.903540010511897,0.903540010511897,750,0,0,incongruent,0.1,4115.4637926389,6160.74178696736
71,104,4,464,0.5,-0.5,0,4,NaN,0.8,4,680,1,1,680,1,0,1,NaN,0.527869855017087,0.527869855017087,750,0,0,neutral,1,1776.40777421962,3695.0619258505
71,104,4,466,-0.5,-0.5,-0.5,2,2,0.8,2,505,1,1,505,1,0,1.6,0.6,-0.841760920224408,-0.841760920224408,750,1,0,congruent,0.1,3265.75010439622,2050.08996134835
71,104,4,467,-0.5,0.5,0,3,NaN,0.8,3,565,1,1,565,1,0,1.6,0.8,-0.372173225855895,-0.372173225855895,750,0,0,neutral,0.1,4760.71895384718,10049.0942832718
71,104,4,468,-0.5,0.5,0.5,4,1,0.8,4,620,1,1,620,1,0,1.4,0.8,0.0582821606485746,0.0582821606485746,750,0,0,incongruent,0.1,1389.5158561077,4810.20794758987
71,104,4,469,-0.5,-0.5,-0.5,2,2,1,2,527,1,1,527,1,0,1.4,0.6,-0.66957876562262,-0.66957876562262,750,1,0,congruent,0.1,1335.42460882577,2457.33939866532
71,104,4,470,0.5,0.5,0,1,NaN,1,1,635,1,1,635,1,0,1.2,NaN,0.175679084240703,0.175679084240703,750,0,0,neutral,1,6043.63664511671,12651.5903007417
71,104,4,471,0.5,-0.5,-0.5,3,3,1,3,447,1,1,447,1,0,1.2,NaN,-1.2956956914473,-1.2956956914473,750,1,0,congruent,1,3013.98929499507,7449.50651414251
71,104,4,472,0.5,0.5,0.5,1,2,1,1,617,1,1,617,1,0,1.4,NaN,0.0348027759301489,0.0348027759301489,750,0,0,incongruent,1,3037.1163797193,7933.98698622955
71,104,4,474,-0.5,0.5,0,4,NaN,1,4,438,1,1,438,1,0,1.6,0.8,-1.36613384560258,-1.36613384560258,750,0,0,neutral,0.1,4869.33808228014,5609.80743713256
71,104,4,475,0.5,-0.5,-0.5,3,3,1,3,566,1,1,566,1,0,1.6,NaN,-0.364346764283087,-0.364346764283087,750,1,0,congruent,1,5505.08497843703,3041.3378459743
71,104,4,476,0.5,0.5,0,2,NaN,1,2,651,1,1,651,1,0,1.6,NaN,0.300902469405639,0.300902469405639,750,0,0,neutral,1,1908.87396669628,3199.92688026515
71,104,4,477,-0.5,-0.5,-0.5,4,4,1,4,443,1,1,443,1,0,1.6,1,-1.32700153773854,-1.32700153773854,750,1,0,congruent,0.1,4533.09201762281,25050.0512050345
71,104,4,479,-0.5,-0.5,0,1,NaN,1,1,569,1,1,569,1,0,1.4,1,-0.340867379564661,-0.340867379564661,750,0,0,neutral,0.1,2211.58704879338,10970.6256520896
71,104,4,480,-0.5,0.5,-0.5,4,4,1,4,463,1,1,463,1,0,1.4,1,-1.17047230628237,-1.17047230628237,750,1,0,congruent,0.1,4979.0285949833,3380.31273990365
71,104,4,481,-0.5,0.5,0,1,NaN,1,1,539,1,1,539,1,0,1.2,1,-0.575661226748918,-0.575661226748918,750,0,0,neutral,0.1,2896.83269248829,16894.8503878839
71,104,4,482,0.5,-0.5,-0.5,2,2,1,2,548,1,1,548,1,0,1,NaN,-0.505223072593641,-0.505223072593641,750,1,0,congruent,1,1709.86339824837,810.295650163019
71,104,4,483,0.5,0.5,0.5,1,3,1,3,798,0,0,NaN,0,0,1.2,NaN,1.4513923206085,NaN,750,1,0,incongruent,0,3759.03538431775,6131.21923632287
71,104,4,484,0.5,0.5,0.5,4,2,0.8,4,594,1,1,594,1,0,1,NaN,-0.145205840244448,-0.145205840244448,750,0,0,incongruent,1,4250.34135858397,8300.73567701053
71,104,4,485,-0.5,0.5,-0.5,1,1,0.8,1,703,1,1,703,1,0,1.2,1,0.707878471191684,0.707878471191684,750,1,0,congruent,0.1,3844.90118023528,4182.84790312313
71,104,4,486,0.5,-0.5,0.5,3,2,0.8,3,727,1,1,727,1,0,1.2,NaN,0.895713548939089,0.895713548939089,750,0,0,incongruent,1,2900.36985553733,2224.12502243334
71,104,4,487,-0.5,-0.5,-0.5,1,1,0.8,1,577,1,1,577,1,0,1.4,1,-0.278255686982193,-0.278255686982193,750,1,0,congruent,0.1,1866.78157341901,1581.47452013758
71,104,4,488,-0.5,-0.5,-0.5,2,2,0.8,2,562,1,1,562,1,0,1.2,1,-0.395652610574321,-0.395652610574321,750,1,0,congruent,0.1,3069.59727789702,628.772446331433
71,104,4,489,0.5,0.5,0.5,1,4,0.8,1,567,1,1,567,1,0,1.4,NaN,-0.356520302710278,-0.356520302710278,750,0,0,incongruent,1,1992.87209701904,4443.20758543321
71,104,4,490,-0.5,0.5,-0.5,2,2,0.8,2,496,1,1,496,1,0,1.4,1,-0.912199074379685,-0.912199074379685,750,1,0,congruent,0.1,3847.99987288949,2218.98046160943
71,104,4,492,-0.5,-0.5,-0.5,2,2,0.8,2,517,1,1,517,0,0,1,1,-0.747843381350706,-0.747843381350706,750,1,0,congruent,0,3469.57515908832,3165.79606017456
71,104,4,493,-0.5,0.5,-0.5,4,4,0.8,4,381,1,1,381,1,0,0.8,1,-1.81224215525267,-1.81224215525267,750,1,0,congruent,0.1,7149.5548264686,2680.32126935504
71,104,4,494,-0.5,-0.5,0.5,2,1,1,2,717,1,1,717,1,0,0.8,0.8,0.817448933211004,0.817448933211004,750,0,0,incongruent,0.1,3309.49010908974,2768.47016300131
71,104,4,495,0.5,0.5,-0.5,4,4,1,4,446,1,1,446,1,0,0.6,NaN,-1.30352215302011,-1.30352215302011,750,1,0,congruent,1,2379.16436236576,9425.34495830574
71,104,4,496,0.5,0.5,-0.5,1,1,1,1,799,1,0,799,0,0,0.8,NaN,1.4592187821813,1.4592187821813,750,1,0,congruent,0,6495.33378171972,2388.81714066575
71,104,4,497,-0.5,-0.5,0.5,2,3,0.8,2,566,1,1,566,1,0,0.8,0.8,-0.364346764283087,-0.364346764283087,750,0,0,incongruent,0.1,4570.79203616953,3071.39392894206
71,104,4,498,0.5,-0.5,0,4,NaN,0.8,4,448,1,1,448,1,0,1,NaN,-1.2878692298745,-1.2878692298745,750,0,0,neutral,1,6339.10823351704,2032.75936957102
71,104,4,499,0.5,0.5,-0.5,2,2,0.8,2,678,1,1,678,1,0,1.2,NaN,0.51221693187147,0.51221693187147,750,1,0,congruent,1,5900.423214829,1387.52074874717
71,104,4,500,0.5,0.5,-0.5,1,1,0.8,1,561,1,1,561,1,0,1.4,NaN,-0.40347907214713,-0.40347907214713,750,1,0,congruent,1,1302.94474703562,1791.22194847609
71,104,4,501,0.5,0.5,-0.5,3,3,0.8,3,568,1,1,568,1,0,1.4,NaN,-0.34869384113747,-0.34869384113747,750,1,0,congruent,1,2936.89629214685,7561.83630705569
71,104,4,502,-0.5,-0.5,0.5,2,1,0.8,2,694,1,1,694,1,0,1.8,0.8,0.637440317036407,0.637440317036407,750,0,0,incongruent,0.1,1679.52930987916,5129.09068073321
71,104,4,504,-0.5,-0.5,0.5,2,4,0.8,2,795,1,0,795,1,0,1.4,0.6,1.42791293589007,1.42791293589007,750,0,0,incongruent,0.1,4250.63532240651,982.595902506289
71,104,4,506,-0.5,0.5,-0.5,2,2,0.8,2,606,1,1,606,1,0,1.2,1,-0.0512883013707451,-0.0512883013707451,750,1,0,congruent,0.1,1194.1423405101,250.705774623323
71,104,4,507,-0.5,0.5,0.5,3,1,1,3,906,1,0,906,0,0,1,1,2.29665017047182,2.29665017047182,750,0,0,incongruent,0,2431.63636459805,1882.0620634555
71,104,4,508,-0.5,-0.5,-0.5,4,4,0.8,4,384,1,1,384,1,0,0.8,0.8,-1.78876277053424,-1.78876277053424,750,1,0,congruent,0.1,4133.25975196299,1797.76619164164
71,104,4,509,-0.5,-0.5,-0.5,3,3,0.8,3,708,1,1,708,0,0,1,0.8,0.747010779055727,0.747010779055727,750,1,0,congruent,0,3307.32603597904,7387.64773428162
71,104,4,510,-0.5,0.5,0,1,NaN,0.8,1,606,1,1,606,1,0,0.8,0.8,-0.0512883013707451,-0.0512883013707451,750,0,0,neutral,0.1,2298.60450668089,3447.57741538957
71,104,4,511,-0.5,0.5,-0.5,2,2,0.8,2,573,1,1,573,1,0,0.6,0.8,-0.309561533273427,-0.309561533273427,750,1,0,congruent,0.1,2552.34224838967,1503.24665301975
71,104,4,513,0.5,0.5,0,2,NaN,0.8,2,650,1,1,650,1,0,1,NaN,0.293076007832831,0.293076007832831,750,0,0,neutral,1,2829.91131247184,2047.50325775563
71,104,4,514,0.5,-0.5,-0.5,3,3,0.8,3,515,1,1,515,0,0,1.2,NaN,-0.763496304496323,-0.763496304496323,750,1,0,congruent,0,2316.13422179775,6423.82854744701
71,104,4,515,-0.5,-0.5,0.5,1,4,0.8,1,744,1,1,744,1,0,1.2,0.6,1.02876339567683,1.02876339567683,750,0,0,incongruent,0.1,6701.55235024341,21165.9412399314
71,104,4,516,0.5,0.5,0,3,NaN,0.8,4,505,0,1,NaN,0,0,1.2,NaN,-0.841760920224408,NaN,750,0,1,neutral,0,8286.51680699116,2295.20490497217
71,104,4,517,0.5,0.5,0.5,2,3,0.6,2,643,1,1,643,1,0,1,NaN,0.238290776823171,0.238290776823171,750,0,0,incongruent,1,5071.33024233353,5552.47832351243
71,104,4,519,0.5,0.5,0.5,3,2,0.6,3,726,1,1,726,1,0,0.6,NaN,0.88788708736628,0.88788708736628,750,0,0,incongruent,1,12597.1882679937,2027.04603451813
71,104,4,520,-0.5,0.5,0.5,4,1,0.6,4,840,1,0,840,0,0,1,0.8,1.78010370666645,1.78010370666645,750,0,0,incongruent,0,2806.91860965515,1588.37750145428
71,104,4,521,-0.5,-0.5,0,3,NaN,0.4,3,612,1,1,612,1,0,0.8,0.6,-0.00432953193389381,-0.00432953193389381,750,0,0,neutral,0.1,8549.67649463965,2117.69768793434
71,104,4,522,-0.5,0.5,-0.5,1,1,0.4,1,514,1,1,514,1,0,1,0.6,-0.771322766069131,-0.771322766069131,750,1,0,congruent,0.1,2192.99950476077,13386.499558314
71,104,4,524,0.5,-0.5,0.5,2,1,0.6,2,755,1,0,755,1,0,1.2,NaN,1.11485447297773,1.11485447297773,750,0,0,incongruent,1,17243.5224766156,1685.05302760126
71,104,4,525,-0.5,0.5,0.5,4,3,0.6,4,805,1,0,805,0,0,1.2,0.6,1.50617755161816,1.50617755161816,750,0,0,incongruent,0,6488.56926902592,2382.79401483806
71,104,4,527,0.5,0.5,0.5,2,3,0.4,1,849,0,0,NaN,0,0,1,NaN,1.85054186082173,NaN,750,0,1,incongruent,0,5924.86828975678,1489.67265820095
71,104,4,528,0.5,-0.5,-0.5,4,4,0.4,4,547,1,1,547,0,0,0.8,NaN,-0.513049534166449,-0.513049534166449,750,1,0,congruent,0,1551.18786738519,5836.49885204269
71,104,4,529,0.5,0.5,0,1,NaN,0.4,3,588,0,1,NaN,0,0,0.4,NaN,-0.192164609681299,NaN,750,0,1,neutral,0,3000.84231196707,2066.40490106459
71,104,4,530,-0.5,-0.5,-0.5,3,3,0.2,3,813,1,0,813,0,0,0,0.6,1.56878924420062,1.56878924420062,750,1,0,congruent,0,8800.3397992284,5362.98924587954
71,104,4,531,-0.5,0.5,0.5,2,1,0.2,2,648,1,1,648,1,0,0,0.6,0.277423084687214,0.277423084687214,750,0,0,incongruent,0.1,3160.06774094864,849.110579893204
71,104,4,532,0.5,0.5,-0.5,3,3,0.4,3,612,1,1,612,1,0,0.2,NaN,-0.00432953193389381,-0.00432953193389381,750,1,0,congruent,1,3465.70260496293,2935.92015021262
71,104,4,534,0.5,-0.5,0.5,2,1,0.4,2,684,1,1,684,1,0,0.8,NaN,0.559175701308322,0.559175701308322,750,0,0,incongruent,1,3484.70255702117,985.873709857412
71,104,4,535,0.5,-0.5,0,1,NaN,0.4,1,569,1,1,569,0,0,1.2,NaN,-0.340867379564661,-0.340867379564661,750,0,0,neutral,0,3978.80945875288,2892.42884644273
71,104,4,536,0.5,-0.5,-0.5,2,2,0.4,2,510,1,1,510,0,0,1.2,NaN,-0.802628612360365,-0.802628612360365,750,1,0,congruent,0,4087.09290304106,1472.30019121219
71,104,4,537,-0.5,0.5,0.5,1,4,0.4,1,873,1,0,873,0,0,1,0.6,2.03837693856914,2.03837693856914,750,0,0,incongruent,0,6664.17847254722,2667.25657173845
71,104,4,538,-0.5,0.5,-0.5,3,3,0.4,3,837,1,0,837,0,0,0.6,0.4,1.75662432194803,1.75662432194803,750,1,0,congruent,0,928.288416302409,1151.91255781528
71,104,4,539,0.5,0.5,0,2,NaN,0.4,1,578,0,1,NaN,0,0,0.4,NaN,-0.270429225409384,NaN,750,0,1,neutral,0,3586.73577032819,7467.14994951706
71,104,4,540,0.5,0.5,-0.5,3,3,0.4,3,533,1,1,533,1,0,0,NaN,-0.622619996185769,-0.622619996185769,750,1,0,congruent,1,817.469218696966,3930.44574516192
71,104,4,541,-0.5,0.5,-0.5,2,2,0.4,2,556,1,1,556,1,0,0.4,0.4,-0.442611380011172,-0.442611380011172,750,1,0,congruent,0.1,5638.71630756489,2135.16741315816
71,104,4,542,0.5,-0.5,0.5,3,1,0.4,3,809,1,0,809,0,0,0.6,NaN,1.53748339790939,1.53748339790939,750,0,0,incongruent,0,5250.37818463485,704.511148095074
71,104,4,543,0.5,-0.5,0.5,1,2,0.4,1,764,1,0,764,0,0,0.6,NaN,1.18529262713301,1.18529262713301,750,0,0,incongruent,0,2558.62975154021,1135.69869139811
71,104,4,544,-0.5,-0.5,0.5,4,3,0.4,4,550,1,1,550,0,0,0.6,0.6,-0.489570149448024,-0.489570149448024,750,0,0,incongruent,0,2716.45462710758,2967.16016358226
71,104,4,545,-0.5,-0.5,-0.5,2,2,0.4,2,555,1,1,555,0,0,0.6,0.4,-0.450437841583981,-0.450437841583981,750,1,0,congruent,0,6206.30607086775,2118.22825046169
71,104,4,546,-0.5,0.5,-0.5,1,1,0.4,1,473,1,1,473,1,0,0.2,0.4,-1.09220769055428,-1.09220769055428,750,1,0,congruent,0.1,972.658530135201,3830.49267849501
71,104,4,547,-0.5,-0.5,-0.5,2,2,0.6,2,506,1,1,506,0,0,0.2,0.2,-0.8339344586516,-0.8339344586516,750,1,0,congruent,0,6968.04979685184,6202.5742957755
71,104,4,548,0.5,-0.5,0.5,1,3,0.6,1,654,1,1,654,0,0,0.2,NaN,0.324381854124065,0.324381854124065,750,0,0,incongruent,0,4526.54052819152,9802.14284460212
71,104,4,549,-0.5,-0.5,0,4,NaN,0.6,3,963,0,0,NaN,1,0,0.2,0.2,2.74275848012191,NaN,750,0,1,neutral,0.1,1736.39363288946,4163.84073900704
71,104,4,550,0.5,0.5,0.5,2,1,0.6,1,684,0,1,NaN,0,0,0.4,NaN,0.559175701308322,NaN,750,1,0,incongruent,0,935.455557541738,4118.60342676316
71,104,4,551,0.5,0.5,-0.5,3,3,0.6,3,706,1,1,706,1,0,0.4,NaN,0.731357855910109,0.731357855910109,750,1,0,congruent,1,3602.91424254658,7045.08801004655
71,104,4,552,-0.5,0.5,0,1,NaN,0.8,4,930,0,0,NaN,0,0,0.6,0.6,2.48448524821922,NaN,750,0,1,neutral,0,1044.38234662649,1153.92064846847
71,104,4,553,-0.5,-0.5,-0.5,4,4,0.6,4,450,1,1,450,1,0,0.6,0.4,-1.27221630672888,-1.27221630672888,750,1,0,congruent,0.1,3149.93500754137,6750.52580040233
71,104,4,555,0.5,-0.5,-0.5,4,4,0.6,4,409,1,1,409,0,0,0.6,NaN,-1.59310123121403,-1.59310123121403,750,1,0,congruent,0,5539.43429820963,1084.70435560226
71,104,4,556,0.5,0.5,0.5,3,2,0.6,3,650,1,1,650,1,0,0.6,NaN,0.293076007832831,0.293076007832831,750,0,0,incongruent,1,4050.73486309921,1763.97149688077
71,104,4,557,0.5,-0.5,0.5,4,1,0.6,4,620,1,1,620,0,0,0.6,NaN,0.0582821606485746,0.0582821606485746,750,0,0,incongruent,0,5651.13774526506,1504.96209570456
71,104,4,558,0.5,0.5,0.5,3,4,0.6,3,669,1,1,669,1,0,0.6,NaN,0.441778777716193,0.441778777716193,750,0,0,incongruent,1,5746.91824105042,3784.51772938457
71,104,4,559,0.5,0.5,-0.5,1,1,0.6,1,529,1,1,529,1,0,0.8,NaN,-0.653925842477003,-0.653925842477003,750,1,0,congruent,1,2331.35373847858,2635.6464774971
71,104,4,560,0.5,-0.5,0,4,NaN,0.8,4,473,1,1,473,1,0,1.2,NaN,-1.09220769055428,-1.09220769055428,750,0,0,neutral,1,753.426225577583,1815.41147730664
71,104,4,562,0.5,-0.5,0.5,1,2,0.8,1,521,1,1,521,0,0,1.6,NaN,-0.716537535059471,-0.716537535059471,750,0,0,incongruent,0,11444.8125902072,3113.90908103079
71,104,4,563,-0.5,-0.5,0.5,2,4,0.8,2,639,1,1,639,1,0,1.6,0.4,0.206984930531937,0.206984930531937,750,0,0,incongruent,0.1,2853.2361459085,1989.01033935585
71,104,4,564,0.5,-0.5,0,1,NaN,0.8,1,488,1,1,488,1,0,1.4,NaN,-0.974810766962153,-0.974810766962153,750,0,0,neutral,1,3169.24583200124,2656.07749890214
71,104,4,565,-0.5,0.5,0.5,4,3,0.8,4,587,1,1,587,1,0,1.4,0.4,-0.199991071254107,-0.199991071254107,750,0,0,incongruent,0.1,592.584856594312,2977.91213267205
71,104,4,566,-0.5,0.5,0.5,2,4,1,2,615,1,1,615,1,0,1.2,0.6,0.0191498527845318,0.0191498527845318,750,0,0,incongruent,0.1,2825.68851636173,2184.06710143675
71,104,4,567,-0.5,-0.5,0.5,3,2,1,3,727,1,1,727,1,0,1,0.6,0.895713548939089,0.895713548939089,750,0,0,incongruent,0.1,3846.93340027873,7362.29796710465
71,104,4,568,-0.5,0.5,-0.5,4,4,1,4,390,1,1,390,1,0,1.2,0.8,-1.74180400109739,-1.74180400109739,750,1,0,congruent,0.1,4330.77890740708,2106.56851839791
71,104,4,569,-0.5,0.5,0.5,1,3,1,1,784,1,0,784,0,0,1.2,0.8,1.34182185858918,1.34182185858918,750,0,0,incongruent,0,1901.58210499112,1805.40555754176
71,104,4,570,0.5,-0.5,-0.5,2,2,0.8,2,469,1,1,469,1,0,0.8,NaN,-1.12351353684552,-1.12351353684552,750,1,0,congruent,1,1597.14614699893,2141.6618581962
71,104,4,572,-0.5,0.5,0,1,NaN,0.8,1,520,1,1,520,1,0,1.2,0.6,-0.72436399663228,-0.72436399663228,750,0,0,neutral,0.1,3790.6115164768,2218.8606948638
71,104,4,573,0.5,0.5,0.5,4,3,0.8,4,606,1,1,606,1,0,1.2,NaN,-0.0512883013707451,-0.0512883013707451,750,0,0,incongruent,1,1213.4445449453,4329.17511452914
71,104,4,574,0.5,-0.5,0.5,1,4,0.8,4,470,0,1,NaN,1,0,1.4,NaN,-1.11568707527271,NaN,750,1,0,incongruent,1,1646.07106926366,3622.39831167551
71,104,4,575,-0.5,-0.5,-0.5,3,3,0.8,3,903,1,0,903,1,0,1.8,0.8,2.27317078575339,2.27317078575339,750,1,0,congruent,0.1,5049.31115254958,3546.64237985828
71,104,4,576,-0.5,-0.5,0,4,NaN,0.8,4,517,1,1,517,1,0,1.6,1,-0.747843381350706,-0.747843381350706,750,0,0,neutral,0.1,2665.25188866867,1814.78941262679
71,104,4,577,-0.5,-0.5,0.5,1,4,0.8,1,645,1,1,645,1,0,1.4,1,0.253943699968788,0.253943699968788,750,0,0,incongruent,0.1,3959.0021362627,2732.32115515528
71,104,4,578,-0.5,-0.5,0.5,4,1,0.8,4,571,1,1,571,1,0,1.4,1,-0.325214456419044,-0.325214456419044,750,0,0,incongruent,0.1,2791.36547707669,3562.46703347259
71,104,4,579,0.5,0.5,-0.5,2,2,0.8,1,421,0,1,NaN,0,0,1.2,NaN,-1.49918369234033,NaN,750,0,1,congruent,0,1706.27443365049,1065.88889561645
71,104,4,580,0.5,-0.5,-0.5,1,1,0.6,1,848,1,0,848,1,0,0.8,NaN,1.84271539924892,1.84271539924892,750,1,0,congruent,1,3307.70685520784,1610.06082006847
71,104,4,581,0.5,0.5,0,3,NaN,0.6,3,754,1,0,754,0,0,1,NaN,1.10702801140492,1.10702801140492,750,0,0,neutral,0,7205.8724634596,1310.46791898625
71,104,4,582,-0.5,-0.5,-0.5,1,1,0.4,1,479,1,1,479,1,0,0.8,1,-1.04524892111743,-1.04524892111743,750,1,0,congruent,0.1,1846.4952175752,1816.01217027058
71,104,4,583,-0.5,0.5,0.5,2,3,0.4,2,545,1,1,545,1,0,0.8,0.8,-0.528702457312066,-0.528702457312066,750,0,0,incongruent,0.1,2268.30946546482,2422.17204486166
71,104,4,584,-0.5,-0.5,0,4,NaN,0.6,4,580,1,1,580,1,0,0.8,1,-0.254776302263767,-0.254776302263767,750,0,0,neutral,0.1,2182.19757108142,3717.77881518438
71,104,4,585,-0.5,-0.5,-0.5,1,1,0.6,1,509,1,1,509,0,0,1,1,-0.810455073933174,-0.810455073933174,750,1,0,congruent,0,16084.9251452279,862.877920234527
71,104,4,586,0.5,-0.5,-0.5,2,2,0.6,2,447,1,1,447,1,0,0.6,NaN,-1.2956956914473,-1.2956956914473,750,1,0,congruent,1,1132.43609419168,3403.86016950691
71,104,4,587,-0.5,-0.5,0,3,NaN,0.6,4,901,0,0,NaN,1,0,1,0.8,2.25751786260778,NaN,750,0,1,neutral,0.1,3441.72340375299,2416.07907036481
71,104,4,588,0.5,0.5,-0.5,2,2,0.6,2,656,1,1,656,1,0,1,NaN,0.340034777269682,0.340034777269682,750,1,0,congruent,1,5543.51082635423,3277.48874333278
71,104,4,589,0.5,-0.5,-0.5,1,1,0.6,1,607,1,1,607,1,0,1.2,NaN,-0.0434618397979365,-0.0434618397979365,750,1,0,congruent,1,1515.41173467166,9112.26638989771
71,104,4,590,-0.5,-0.5,0,2,NaN,0.6,2,492,1,1,492,1,0,1.4,0.8,-0.943504920670919,-0.943504920670919,750,0,0,neutral,0.1,5261.21956943584,6420.16595013248
71,104,4,591,0.5,-0.5,-0.5,3,3,0.6,3,543,1,1,543,1,0,1.6,NaN,-0.544355380457684,-0.544355380457684,750,1,0,congruent,1,3247.67492508034,1416.78958556069
71,104,4,592,-0.5,0.5,0,4,NaN,0.6,4,567,1,1,567,1,0,1.6,0.8,-0.356520302710278,-0.356520302710278,750,0,0,neutral,0.1,6134.58682391575,1001.95873372771
71,104,4,593,0.5,-0.5,0.5,1,3,0.6,2,441,0,1,NaN,1,0,1.6,NaN,-1.34265446088416,NaN,750,0,1,incongruent,1,4077.16343381403,3071.44984884632
71,104,4,594,-0.5,0.5,-0.5,4,4,0.6,4,575,1,1,575,1,0,1.6,0.8,-0.29390861012781,-0.29390861012781,750,1,0,congruent,0.1,2923.77986224375,3992.87099629397
71,104,4,595,0.5,-0.5,-0.5,2,2,0.8,2,505,1,1,505,1,0,1.4,NaN,-0.841760920224408,-0.841760920224408,750,1,0,congruent,1,2287.54545211498,1205.42577510455
71,104,4,596,-0.5,-0.5,-0.5,4,4,0.8,4,699,1,1,699,1,0,1.6,0.8,0.67657262490045,0.67657262490045,750,1,0,congruent,0.1,4371.69720083298,571.067514338032
71,104,4,598,0.5,0.5,0,2,NaN,0.8,2,519,1,1,519,1,0,1.2,NaN,-0.732190458205089,-0.732190458205089,750,0,0,neutral,1,4543.3056175218,1022.21619208801
71,104,4,599,0.5,0.5,0.5,1,2,0.8,2,492,0,1,NaN,0,0,1.2,NaN,-0.943504920670919,NaN,750,1,0,incongruent,0,2801.06842199666,2633.93546804403
71,104,4,600,0.5,0.5,-0.5,4,4,0.6,4,970,1,0,970,0,0,1,NaN,2.79754371113157,2.79754371113157,750,1,0,congruent,0,2888.59051126475,1582.29668951948
