subid,vers,block,trial,rewlvl,efflvl,congruency,targetresp,distractorresp,rollingefflvl,resp,rt,acc,fast,accrt,isrewarded,ismiss,runavgrrgen,runavgrrcond,zrt,acczrt,rtthreshold,isdisterror,isranderror,congruence,feedback,fcz_resp_theta,fcz_resp_theta_baseline
72,104,1,2,-0.5,-0.5,-0.5,2,2,0.4,2,840,1,0,840,0,0,0,0,0.540521119808592,0.540521119808592,750,1,0,congruent,0,1453.36263770163,1918.95542837134
72,104,1,3,-0.5,-0.5,0,4,NaN,0.4,1,595,0,1,NaN,0,0,0,0,-1.26523669041135,NaN,750,0,1,neutral,0,7102.56806132278,1608.28973853333
72,104,1,4,-0.5,-0.5,-0.5,1,1,0.4,1,569,1,1,569,1,0,0,0,-1.45686813149592,-1.45686813149592,750,1,0,congruent,0.1,1314.50486515701,971.851299137649
72,104,1,6,0.5,0.5,0,3,NaN,0.4,3,640,1,1,640,1,0,0.2,NaN,-0.933566888534221,-0.933566888534221,750,0,0,neutral,1,1518.36488330059,1593.48596770984
72,104,1,7,0.5,-0.5,-0.5,4,4,0.4,4,624,1,1,624,0,0,0.6,NaN,-1.05149392920165,-1.05149392920165,750,1,0,congruent,0,2156.82459411062,3607.64701850133
72,104,1,8,0.5,-0.5,0,1,NaN,0.4,1,642,1,1,642,1,0,0.6,NaN,-0.918826008450792,-0.918826008450792,750,0,0,neutral,1,891.451086812604,4673.5196024626
72,104,1,9,-0.5,0.5,-0.5,4,4,0.4,1,541,0,1,NaN,0,0,1,0,-1.66324045266391,NaN,750,0,1,congruent,0,8468.38707892013,595.28060907425
72,104,1,10,-0.5,-0.5,0,2,NaN,0.3,2,902,1,0,902,1,0,0.8,0.2,0.997488402394864,0.997488402394864,750,0,0,neutral,0.1,3001.89365046269,2807.09345705505
72,104,1,11,0.5,0.5,-0.5,1,1,0.3,1,517,1,1,517,1,0,1,NaN,-1.84013101366505,-1.84013101366505,750,1,0,congruent,1,966.402074837928,1583.0020267663
72,104,1,12,-0.5,-0.5,-0.5,4,4,0.5,4,781,1,0,781,1,0,1,0.4,0.105665157347463,0.105665157347463,750,1,0,congruent,0.1,2426.55755989638,2119.96778535719
72,104,1,13,0.5,-0.5,0,2,NaN,0.5,2,666,1,1,666,1,0,1.2,NaN,-0.741935447449655,-0.741935447449655,750,0,0,neutral,1,736.482215810957,3469.28906079792
72,104,1,14,-0.5,0.5,-0.5,3,3,0.5,3,546,1,1,546,1,0,1.2,0,-1.62638825245534,-1.62638825245534,750,1,0,congruent,0.1,800.719052859667,1295.60605359982
72,104,1,15,0.5,0.5,-0.5,1,1,0.6,1,445,1,1,445,1,0,1.4,NaN,-2.37080269666846,-2.37080269666846,750,1,0,congruent,1,1840.85597398859,1084.80695135182
72,104,1,16,-0.5,0.5,0.5,2,4,0.8,4,768,0,0,NaN,0,0,1.6,0.2,0.00984943680517974,NaN,750,1,0,incongruent,0,12735.1048619901,752.883886652731
72,104,1,18,0.5,-0.5,0,3,NaN,0.6,3,762,1,0,762,0,0,1,NaN,-0.0343732034451046,-0.0343732034451046,750,0,0,neutral,0,1804.20642660414,2455.4593968881
72,104,1,19,0.5,0.5,-0.5,2,2,0.6,2,960,1,0,960,0,0,0.6,NaN,1.42497392481428,1.42497392481428,750,1,0,congruent,0,3787.92699111053,2158.79813748226
72,104,1,20,0.5,-0.5,0,1,NaN,0.4,1,566,1,1,566,1,0,0.4,NaN,-1.47897945162106,-1.47897945162106,750,0,0,neutral,1,991.458344015231,917.020637106095
72,104,1,22,0.5,-0.5,0,3,NaN,0.2,3,872,1,0,872,0,0,0.4,NaN,0.776375201143442,0.776375201143442,750,0,0,neutral,0,1832.5451701901,3216.25171122856
72,104,1,23,-0.5,-0.5,-0.5,1,1,0.2,1,466,1,1,466,0,0,0.4,0.6,-2.21602345579247,-2.21602345579247,750,1,0,congruent,0,712.752050801501,1485.39587990204
72,104,1,24,-0.5,0.5,0.5,4,2,0.2,4,964,1,0,964,0,0,0.4,0.2,1.45445568498114,1.45445568498114,750,0,0,incongruent,0,3161.66094716925,4055.5735753256
72,104,1,25,0.5,-0.5,0,3,NaN,0,3,517,1,1,517,0,0,0.4,NaN,-1.84013101366505,-1.84013101366505,750,0,0,neutral,0,3465.61854206399,876.793478437022
72,104,1,26,-0.5,0.5,0.5,4,1,0,4,887,1,0,887,0,0,0,0.2,0.886931801769153,0.886931801769153,750,0,0,incongruent,0,2259.2590439009,1254.72156558916
72,104,1,27,0.5,0.5,-0.5,2,2,0,2,964,1,0,964,0,0,0,NaN,1.45445568498114,1.45445568498114,750,1,0,congruent,0,4906.68287011381,5779.56413300468
72,104,1,29,0.5,0.5,-0.5,4,4,0,4,707,1,1,707,1,0,0,NaN,-0.439747405739378,-0.439747405739378,750,1,0,congruent,1,2797.58819157179,1693.39420380187
72,104,1,30,-0.5,0.5,0,2,NaN,0.2,2,721,1,1,721,1,0,0.4,0,-0.336561245155381,-0.336561245155381,750,0,0,neutral,0.1,11714.66662621,1862.70807330782
72,104,1,31,-0.5,0.5,-0.5,4,4,0.4,4,769,1,0,769,0,0,0.6,0.2,0.0172198768468938,0.0172198768468938,750,1,0,congruent,0,4897.8867648605,437.556324594149
72,104,1,32,0.5,0.5,0.5,1,2,0.4,2,987,0,0,NaN,0,0,0.6,NaN,1.62397580594056,NaN,750,1,0,incongruent,0,4541.65484531166,2276.54821236855
72,104,1,33,-0.5,-0.5,0,3,NaN,0.4,3,733,1,1,733,0,0,0.6,0.6,-0.248115964654813,-0.248115964654813,750,0,0,neutral,0,1498.08626728456,3117.59433419145
72,104,1,35,0.5,0.5,0,3,NaN,0.4,3,696,1,1,696,1,0,0.4,NaN,-0.520822246198233,-0.520822246198233,750,0,0,neutral,1,4138.97669260154,3023.4424021374
72,104,1,36,-0.5,0.5,-0.5,2,2,0.6,2,825,1,0,825,0,0,0.6,0.2,0.429964519182881,0.429964519182881,750,1,0,congruent,0,1683.23923223029,2046.33642024274
72,104,1,38,0.5,0.5,0,1,NaN,0.4,1,663,1,1,663,1,0,0.6,NaN,-0.764046767574797,-0.764046767574797,750,0,0,neutral,1,2838.73601535662,2498.4365195609
72,104,1,40,-0.5,0.5,0,1,NaN,0.4,1,609,1,1,609,1,0,0.8,0.2,-1.16205052982736,-1.16205052982736,750,0,0,neutral,0.1,1944.36153557395,2026.52897637934
72,104,1,41,-0.5,0.5,-0.5,2,2,0.6,2,995,1,0,995,0,0,0.6,0.4,1.68293932627427,1.68293932627427,750,1,0,congruent,0,4424.86563826045,1708.41146765135
72,104,1,42,-0.5,0.5,-0.5,3,3,0.6,3,798,1,0,798,0,0,0.6,0.4,0.230962638056602,0.230962638056602,750,1,0,congruent,0,1959.44018232232,3475.53268731388
72,104,1,46,0.5,0.5,-0.5,2,2,0.4,2,857,1,0,857,0,0,0.4,NaN,0.665818600517731,0.665818600517731,750,1,0,congruent,0,1686.08768902777,2205.29586886587
72,104,1,47,0.5,0.5,-0.5,4,4,0.2,4,643,1,1,643,1,0,0.4,NaN,-0.911455568409078,-0.911455568409078,750,1,0,congruent,1,2618.06370003034,3890.86749820343
72,104,1,48,0.5,-0.5,-0.5,2,2,0.2,2,963,1,0,963,0,0,0.8,NaN,1.44708524493942,1.44708524493942,750,1,0,congruent,0,4060.2560918469,4948.11491099429
72,104,1,49,-0.5,0.5,-0.5,1,1,0.2,1,572,1,1,572,1,0,0.8,0.2,-1.43475681137078,-1.43475681137078,750,1,0,congruent,0.1,1337.54017055431,825.907789217354
72,104,1,50,0.5,-0.5,-0.5,3,3,0.4,3,647,1,1,647,1,0,0.6,NaN,-0.881973808242222,-0.881973808242222,750,1,0,congruent,1,2640.40154621331,935.121880160686
72,104,1,51,-0.5,-0.5,-0.5,4,4,0.4,4,593,1,1,593,1,0,1,0.4,-1.27997757049478,-1.27997757049478,750,1,0,congruent,0.1,2012.32098846551,1074.7065912379
72,104,1,52,0.5,-0.5,0,3,NaN,0.4,3,784,1,0,784,0,0,1.2,NaN,0.127776477472605,0.127776477472605,750,0,0,neutral,0,2954.24330865609,1493.30248365257
72,104,1,53,0.5,-0.5,0.5,1,4,0.4,1,720,1,1,720,0,0,0.8,NaN,-0.343931685197095,-0.343931685197095,750,0,0,incongruent,0,3307.34194312214,2657.98448639896
72,104,1,54,-0.5,0.5,0.5,4,1,0.4,4,972,1,0,972,0,0,0.8,0.4,1.51341920531485,1.51341920531485,750,0,0,incongruent,0,1627.36867213611,881.601900493336
72,104,1,55,0.5,0.5,0,1,NaN,0.4,1,658,1,1,658,1,0,0.6,NaN,-0.800898967783367,-0.800898967783367,750,0,0,neutral,1,536.542033755853,978.81604769931
72,104,1,57,0.5,0.5,-0.5,4,4,0.6,4,980,1,0,980,0,0,0.4,NaN,1.57238272564856,1.57238272564856,750,1,0,congruent,0,1192.46918689932,1013.67486633792
72,104,1,58,0.5,-0.5,0,3,NaN,0.4,3,869,1,0,869,0,0,0.4,NaN,0.7542638810183,0.7542638810183,750,0,0,neutral,0,3262.63750201517,2335.83159227294
72,104,1,59,0.5,0.5,-0.5,2,2,0.4,2,720,1,1,720,1,0,0.4,NaN,-0.343931685197095,-0.343931685197095,750,1,0,congruent,1,248.273213759111,4087.01252408199
72,104,1,60,0.5,-0.5,-0.5,4,4,0.4,4,655,1,1,655,0,0,0.8,NaN,-0.82301028790851,-0.82301028790851,750,1,0,congruent,0,3298.56787337899,2207.45497761034
72,104,1,62,0.5,0.5,-0.5,1,1,0.4,1,612,1,1,612,1,0,0.4,NaN,-1.13993920970221,-1.13993920970221,750,1,0,congruent,1,538.618901177857,1185.88806463791
72,104,1,63,-0.5,-0.5,-0.5,2,2,0.4,2,957,1,0,957,0,0,0.8,0.4,1.40286260468914,1.40286260468914,750,1,0,congruent,0,1444.22875779897,689.311615974981
72,104,1,64,-0.5,-0.5,0,1,NaN,0.4,1,590,1,1,590,0,0,0.8,0.4,-1.30208889061992,-1.30208889061992,750,0,0,neutral,0,25899.908120539,1023.87860225189
72,104,1,66,0.5,0.5,-0.5,1,1,0.4,1,589,1,1,589,1,0,0.4,NaN,-1.30945933066164,-1.30945933066164,750,1,0,congruent,1,1431.90159849706,1702.96810108814
72,104,1,68,-0.5,0.5,0,3,NaN,0.6,3,814,1,0,814,0,0,0.6,0.2,0.348889678724027,0.348889678724027,750,0,0,neutral,0,2253.0069963406,2179.0472882812
72,104,1,72,0.5,-0.5,-0.5,4,4,0.2,4,702,1,1,702,0,0,0.4,NaN,-0.476599605947949,-0.476599605947949,750,1,0,congruent,0,3779.07340848995,1489.66040418401
72,104,1,73,0.5,0.5,0,2,NaN,0.2,3,824,0,0,NaN,0,0,0.2,NaN,0.422594079141167,NaN,750,0,1,neutral,0,3721.38209582107,4304.87298311736
72,104,1,74,-0.5,-0.5,-0.5,3,3,0.2,3,863,1,0,863,0,0,0.2,0.6,0.710041240768016,0.710041240768016,750,1,0,congruent,0,1690.80898553792,1659.02904097233
72,104,1,75,0.5,0.5,0,4,NaN,0.2,4,663,1,1,663,1,0,0.2,NaN,-0.764046767574797,-0.764046767574797,750,0,0,neutral,1,2321.4634207443,2097.36054485504
72,104,1,77,0.5,0.5,-0.5,4,4,0.2,4,740,1,1,740,1,0,0.4,NaN,-0.196522884362814,-0.196522884362814,750,1,0,congruent,1,3576.71454016277,2345.2955380254
72,104,1,80,-0.5,0.5,0,1,NaN,0.4,1,499,1,1,499,1,0,0.8,0,-1.9727989344159,-1.9727989344159,750,0,0,neutral,0.1,913.305295471734,1098.6743423201
72,104,1,81,-0.5,-0.5,-0.5,2,2,0.6,2,866,1,0,866,1,0,0.6,0.4,0.732152560893158,0.732152560893158,750,1,0,congruent,0.1,1850.82183996353,857.814148281319
72,104,1,82,-0.5,-0.5,0,4,NaN,0.6,3,861,0,0,NaN,0,0,0.8,0.6,0.695300360684588,NaN,750,0,1,neutral,0,13234.6395820973,1701.29385702313
72,104,1,85,-0.5,-0.5,-0.5,1,1,0.4,1,642,1,1,642,1,0,0.4,0.4,-0.918826008450792,-0.918826008450792,750,1,0,congruent,0.1,967.239407617989,1123.45082274767
72,104,1,88,0.5,0.5,-0.5,1,1,0.2,1,571,1,1,571,1,0,0.2,NaN,-1.44212725141249,-1.44212725141249,750,1,0,congruent,1,909.626840022608,1170.59317017265
72,104,1,90,0.5,0.5,-0.5,3,3,0.4,3,791,1,0,791,0,0,0.6,NaN,0.179369557764603,0.179369557764603,750,1,0,congruent,0,6868.09465485471,979.266875507916
72,104,1,91,0.5,-0.5,-0.5,1,1,0.2,1,570,1,1,570,0,0,0.4,NaN,-1.44949769145421,-1.44949769145421,750,1,0,congruent,0,3449.07968910736,763.392092231712
72,104,1,92,0.5,0.5,0.5,3,2,0.2,3,964,1,0,964,0,0,0.4,NaN,1.45445568498114,1.45445568498114,750,0,0,incongruent,0,1843.38764062327,594.043440557487
72,104,1,94,0.5,-0.5,-0.5,4,4,0.2,4,598,1,1,598,0,0,0,NaN,-1.24312537028621,-1.24312537028621,750,1,0,congruent,0,1977.4712217332,4811.75416598856
72,104,1,96,0.5,0.5,-0.5,4,4,0.2,4,655,1,1,655,1,0,0,NaN,-0.82301028790851,-0.82301028790851,750,1,0,congruent,1,823.125035631361,2179.10464610928
72,104,1,97,-0.5,0.5,0.5,3,1,0.4,1,622,0,1,NaN,0,0,0.4,0.2,-1.06623480928507,NaN,750,1,0,incongruent,0,12738.1618627376,2060.05785258689
72,104,1,98,0.5,0.5,0.5,4,2,0.2,4,903,1,0,903,0,0,0.4,NaN,1.00485884243658,1.00485884243658,750,0,0,incongruent,0,2522.95685172575,2192.01662607553
72,104,1,99,0.5,0.5,-0.5,3,3,0.2,3,847,1,0,847,0,0,0.4,NaN,0.592114200100591,0.592114200100591,750,1,0,congruent,0,1013.21975674496,729.20796852061
72,104,1,100,-0.5,0.5,0,1,NaN,0.2,1,746,1,1,746,1,0,0.4,0.2,-0.15230024411253,-0.15230024411253,750,0,0,neutral,0.1,2433.60847799475,2197.84503441125
72,104,1,101,-0.5,-0.5,-0.5,4,4,0.4,4,578,1,1,578,1,0,0.6,0.4,-1.39053417112049,-1.39053417112049,750,1,0,congruent,0.1,3418.59301466141,466.063261158267
72,104,1,102,0.5,-0.5,0.5,2,3,0.4,2,885,1,0,885,0,0,0.4,NaN,0.872190921685725,0.872190921685725,750,0,0,incongruent,0,2267.95437061953,1614.72172878889
72,104,1,104,-0.5,-0.5,-0.5,4,4,0.4,4,906,1,0,906,0,0,0.8,0.6,1.02697016256172,1.02697016256172,750,1,0,congruent,0,8856.61643635608,1350.19658324734
72,104,1,105,0.5,0.5,0.5,1,2,0.4,1,983,1,0,983,0,0,0.8,NaN,1.5944940457737,1.5944940457737,750,0,0,incongruent,0,1632.62170857183,1655.35786225441
72,104,1,106,0.5,0.5,0,3,NaN,0.2,3,956,1,0,956,0,0,0.6,NaN,1.39549216464742,1.39549216464742,750,0,0,neutral,0,4982.5274058527,5566.84894185212
72,104,1,107,0.5,0.5,0.5,4,1,0.2,4,831,1,0,831,0,0,0.4,NaN,0.474187159433166,0.474187159433166,750,0,0,incongruent,0,2522.40419741831,2159.0292422564
72,104,1,109,0.5,0.5,0,3,NaN,0.2,3,815,1,0,815,0,0,0,NaN,0.356260118765741,0.356260118765741,750,0,0,neutral,0,2151.13057962508,4216.78613609144
72,104,1,110,-0.5,-0.5,0.5,4,3,0.2,4,979,1,0,979,0,0,0,0.4,1.56501228560685,1.56501228560685,750,0,0,incongruent,0,5099.22552851229,706.80792520735
72,104,1,111,0.5,-0.5,0,3,NaN,0.2,3,775,1,0,775,1,0,0,NaN,0.0614425170971782,0.0614425170971782,750,0,0,neutral,1,7647.86538343573,2031.13322891489
72,104,1,112,-0.5,0.5,-0.5,2,2,0.2,4,785,0,0,NaN,0,0,0.4,0.4,0.135146917514319,NaN,750,0,1,congruent,0,12673.3101205335,1129.4505515809
72,104,1,115,-0.5,0.5,0,4,NaN,0,4,855,1,0,855,0,0,0.4,0.4,0.651077720434303,0.651077720434303,750,0,0,neutral,0,2792.12175181023,518.549224127565
72,104,1,116,0.5,0.5,-0.5,1,1,0,1,658,1,1,658,1,0,0.4,NaN,-0.800898967783367,-0.800898967783367,750,1,0,congruent,1,2961.4452801639,2359.28750493641
72,104,1,117,0.5,0.5,0,4,NaN,0.2,4,849,1,0,849,0,0,0.4,NaN,0.606855080184019,0.606855080184019,750,0,0,neutral,0,2072.47924899006,1455.05430171041
72,104,1,118,-0.5,-0.5,-0.5,1,1,0.2,1,752,1,0,752,0,0,0.4,0.2,-0.108077603862245,-0.108077603862245,750,1,0,congruent,0,2911.95407696458,2683.26788889716
72,104,1,119,-0.5,0.5,0,4,NaN,0.2,4,977,1,0,977,0,0,0.4,0.2,1.55027140552342,1.55027140552342,750,0,0,neutral,0,5483.76116138039,1086.58552477984
72,104,1,124,-0.5,-0.5,0,2,NaN,0.2,4,800,0,0,NaN,0,0,0.4,0,0.24570351814003,NaN,750,0,1,neutral,0,24313.3509401074,3090.4737997125
72,104,1,127,0.5,0.5,0.5,2,1,0.2,4,947,0,0,NaN,0,0,0,NaN,1.329158204272,NaN,750,0,1,incongruent,0,8609.4118660785,2872.53212470328
72,104,1,128,-0.5,-0.5,0,1,NaN,0,1,724,1,1,724,0,0,0,0,-0.314449925030239,-0.314449925030239,750,0,0,neutral,0,1599.02159859614,2608.58840726385
72,104,1,129,-0.5,0.5,-0.5,4,4,0,4,678,1,1,678,1,0,0,0,-0.653490166949086,-0.653490166949086,750,1,0,congruent,0.1,3681.51892719643,922.504876401342
72,104,1,130,0.5,-0.5,-0.5,3,3,0.2,3,710,1,1,710,0,0,0.2,NaN,-0.417636085614236,-0.417636085614236,750,1,0,congruent,0,2585.54240401338,939.476720808774
72,104,1,133,-0.5,0.5,-0.5,4,4,0.2,4,804,1,0,804,0,0,0.4,0.2,0.275185278306886,0.275185278306886,750,1,0,congruent,0,1367.66378735643,1624.87741974134
72,104,1,134,-0.5,-0.5,0.5,2,3,0.2,2,832,1,0,832,1,0,0.4,0.2,0.48155759947488,0.48155759947488,750,0,0,incongruent,0.1,1676.30043718149,4046.37175601936
72,104,1,135,-0.5,-0.5,-0.5,1,1,0.2,1,815,1,0,815,0,0,0.4,0.4,0.356260118765741,0.356260118765741,750,1,0,congruent,0,5361.76369467691,1748.81864887332
72,104,1,139,0.5,-0.5,0,1,NaN,0.2,1,623,1,1,623,0,0,0.6,NaN,-1.05886436924336,-1.05886436924336,750,0,0,neutral,0,1233.24474201501,3355.03138054276
72,104,1,140,0.5,0.5,0.5,4,1,0.2,4,978,1,0,978,0,0,0.4,NaN,1.55764184556513,1.55764184556513,750,0,0,incongruent,0,2574.76891169819,975.989488341158
72,104,1,143,-0.5,0.5,0.5,3,4,0.2,3,985,1,0,985,0,0,0.2,0.4,1.60923492585713,1.60923492585713,750,0,0,incongruent,0,3041.04658740121,2459.49134844619
72,104,1,144,-0.5,0.5,-0.5,1,1,0.2,1,634,1,1,634,1,0,0.2,0.2,-0.977789528784505,-0.977789528784505,750,1,0,congruent,0.1,1696.94919702082,1909.43927071103
72,104,1,145,0.5,0.5,0,3,NaN,0.4,3,798,1,0,798,0,0,0.4,NaN,0.230962638056602,0.230962638056602,750,0,0,neutral,0,2530.18422377401,2764.03742005748
72,104,1,146,0.5,-0.5,-0.5,1,1,0.4,1,830,1,0,830,1,0,0.4,NaN,0.466816719391452,0.466816719391452,750,1,0,congruent,1,2477.71808260316,825.113996481748
72,104,1,147,-0.5,-0.5,-0.5,3,3,0.4,3,861,1,0,861,1,0,0.6,0.4,0.695300360684588,0.695300360684588,750,1,0,congruent,0.1,935.452671725804,815.9503095689
72,104,1,149,-0.5,-0.5,0,3,NaN,0.2,3,944,1,0,944,0,0,0.8,0.6,1.30704688414686,1.30704688414686,750,0,0,neutral,0,680.382327226493,2767.38061220278
72,104,1,150,0.5,-0.5,0.5,4,2,0.2,4,889,1,0,889,0,0,0.6,NaN,0.901672681852582,0.901672681852582,750,0,0,incongruent,0,2933.35704562552,2406.18273933568
72,104,2,151,0.5,0.5,-0.5,1,1,0.2,1,595,1,1,595,1,0,0.6,NaN,-1.26523669041135,-1.26523669041135,750,1,0,congruent,1,1320.45499540695,2423.34142194193
72,104,2,152,0.5,0.5,0.5,4,2,0.4,4,951,1,0,951,0,0,0.6,NaN,1.35863996443885,1.35863996443885,750,0,0,incongruent,0,1692.66031033737,729.781201550949
72,104,2,153,0.5,0.5,-0.5,3,3,0.4,3,702,1,1,702,1,0,0.4,NaN,-0.476599605947949,-0.476599605947949,750,1,0,congruent,1,3530.47140987831,1865.23559403398
72,104,2,154,-0.5,-0.5,0,1,NaN,0.4,1,592,1,1,592,0,0,0.8,0.4,-1.2873480105365,-1.2873480105365,750,0,0,neutral,0,1369.08189343905,2205.16901319299
72,104,2,156,0.5,-0.5,-0.5,1,1,0.4,1,623,1,1,623,0,0,0.8,NaN,-1.05886436924336,-1.05886436924336,750,1,0,congruent,0,2693.5387285618,468.866500026047
72,104,2,157,0.5,-0.5,0,3,NaN,0.4,3,877,1,0,877,1,0,0.4,NaN,0.813227401352013,0.813227401352013,750,0,0,neutral,1,5997.30489504688,513.314082709803
72,104,2,158,0.5,0.5,-0.5,2,2,0.4,2,993,1,0,993,0,0,0.8,NaN,1.66819844619084,1.66819844619084,750,1,0,congruent,0,801.898537432085,882.127534522885
72,104,2,159,-0.5,0.5,0.5,3,4,0.4,4,807,0,0,NaN,0,0,0.4,0.2,0.297296598432028,NaN,750,1,0,incongruent,0,6445.18594458374,2623.82326592202
72,104,2,160,0.5,0.5,-0.5,1,1,0.2,1,734,1,1,734,1,0,0.4,NaN,-0.240745524613098,-0.240745524613098,750,1,0,congruent,1,1590.90260488759,700.321325969428
72,104,2,162,0.5,0.5,0,1,NaN,0.2,1,635,1,1,635,1,0,0.8,NaN,-0.970419088742791,-0.970419088742791,750,0,0,neutral,1,1208.84921635016,1881.33193540575
72,104,2,163,0.5,-0.5,-0.5,3,3,0.4,3,781,1,0,781,0,0,0.8,NaN,0.105665157347463,0.105665157347463,750,1,0,congruent,0,1448.17987123121,3364.27748867765
72,104,2,165,0.5,-0.5,-0.5,1,1,0.4,1,581,1,1,581,1,0,0.8,NaN,-1.36842285099535,-1.36842285099535,750,1,0,congruent,1,4337.01690219599,1987.4256892978
72,104,2,166,-0.5,-0.5,-0.5,2,2,0.4,4,812,0,0,NaN,1,0,0.8,0.2,0.334148798640599,NaN,750,0,1,congruent,0.1,12652.3965325572,1383.81173919638
72,104,2,167,-0.5,-0.5,-0.5,4,4,0.4,4,668,1,1,668,1,0,1,0.4,-0.727194567366227,-0.727194567366227,750,1,0,congruent,0.1,6956.27943824644,1332.53781645129
72,104,2,170,0.5,0.5,-0.5,4,4,0.4,4,769,1,0,769,0,0,0.8,NaN,0.0172198768468938,0.0172198768468938,750,1,0,congruent,0,2465.74753777237,1547.19177431867
72,104,2,171,-0.5,0.5,-0.5,2,2,0.2,2,816,1,0,816,0,0,0.4,0,0.363630558807455,0.363630558807455,750,1,0,congruent,0,2937.23642380641,4096.2973789616
72,104,2,173,-0.5,0.5,-0.5,4,4,0.2,4,796,1,0,796,0,0,0,0,0.216221757973174,0.216221757973174,750,1,0,congruent,0,5705.70452521667,3036.03780321548
72,104,2,174,-0.5,0.5,0,1,NaN,0,1,570,1,1,570,1,0,0,0,-1.44949769145421,-1.44949769145421,750,0,0,neutral,0.1,3415.61458581725,5810.52026083528
72,104,2,175,-0.5,0.5,-0.5,3,3,0.2,3,990,1,0,990,0,0,0.2,0.2,1.6460871260657,1.6460871260657,750,1,0,congruent,0,3849.18679379855,3019.81033527809
72,104,2,177,-0.5,-0.5,0.5,3,1,0.2,3,986,1,0,986,0,0,0.4,0.6,1.61660536589885,1.61660536589885,750,0,0,incongruent,0,2001.48488434321,1797.54374836491
72,104,2,178,0.5,-0.5,-0.5,2,2,0.2,2,769,1,0,769,0,0,0.4,NaN,0.0172198768468938,0.0172198768468938,750,1,0,congruent,0,1727.43548126784,840.914605588354
72,104,2,179,0.5,-0.5,0,3,NaN,0.2,3,890,1,0,890,0,0,0.4,NaN,0.909043121894296,0.909043121894296,750,0,0,neutral,0,7016.92585749583,2076.3268949007
72,104,2,180,0.5,-0.5,-0.5,2,2,0.2,2,792,1,0,792,0,0,0.2,NaN,0.186739997806317,0.186739997806317,750,1,0,congruent,0,2075.00762968795,2764.5401155126
72,104,2,181,-0.5,0.5,-0.5,4,4,0.2,4,730,1,1,730,1,0,0.2,0.2,-0.270227284779955,-0.270227284779955,750,1,0,congruent,0.1,1559.8857933703,935.820100197591
72,104,2,182,-0.5,-0.5,0,1,NaN,0.4,1,597,1,1,597,1,0,0.2,0.6,-1.25049581032793,-1.25049581032793,750,0,0,neutral,0.1,2121.90591957825,3317.071084858
72,104,2,183,-0.5,0.5,-0.5,4,4,0.4,4,646,1,1,646,1,0,0.4,0.4,-0.889344248283936,-0.889344248283936,750,1,0,congruent,0.1,5233.7855383847,1224.2106086047
72,104,2,184,0.5,0.5,0,2,NaN,0.6,3,855,0,0,NaN,0,0,0.6,NaN,0.651077720434303,NaN,750,0,1,neutral,0,1869.12192865151,3855.02389241651
72,104,2,185,0.5,-0.5,-0.5,4,4,0.6,4,668,1,1,668,0,0,0.6,NaN,-0.727194567366227,-0.727194567366227,750,1,0,congruent,0,414.051379376998,1409.62257276342
72,104,2,190,0.5,0.5,0,1,NaN,0.2,1,576,1,1,576,1,0,0,NaN,-1.40527505120392,-1.40527505120392,750,0,0,neutral,1,5452.65491958498,3529.90811735797
72,104,2,193,0.5,0.5,-0.5,1,1,0.2,1,752,1,0,752,0,0,0.4,NaN,-0.108077603862245,-0.108077603862245,750,1,0,congruent,0,7090.45740352188,6977.21786150574
72,104,2,194,0.5,-0.5,0,2,NaN,0.2,2,830,1,0,830,0,0,0.4,NaN,0.466816719391452,0.466816719391452,750,0,0,neutral,0,7411.04560680169,1273.47511995329
72,104,2,195,-0.5,-0.5,-0.5,1,1,0.2,1,711,1,1,711,0,0,0.4,0.4,-0.410265645572522,-0.410265645572522,750,1,0,congruent,0,1406.11223358696,1029.32751816081
72,104,2,200,-0.5,-0.5,0,4,NaN,0.2,4,954,1,0,954,0,0,0,0.2,1.380751284564,1.380751284564,750,0,0,neutral,0,3725.97594868214,1222.12456633347
72,104,2,201,0.5,0.5,-0.5,1,1,0.2,1,855,1,0,855,0,0,0,NaN,0.651077720434303,0.651077720434303,750,1,0,congruent,0,883.692845917009,3798.72763627692
72,104,2,202,-0.5,0.5,0,4,NaN,0,4,828,1,0,828,0,0,0,0.2,0.452075839308024,0.452075839308024,750,0,0,neutral,0,3954.1431623928,3960.38739274359
72,104,2,203,-0.5,-0.5,-0.5,3,3,0,3,977,1,0,977,0,0,0,0,1.55027140552342,1.55027140552342,750,1,0,congruent,0,1645.92599483315,2679.35211007282
72,104,2,204,0.5,0.5,-0.5,2,2,0,2,716,1,1,716,1,0,0,NaN,-0.373413445363952,-0.373413445363952,750,1,0,congruent,1,565.512726313126,7512.21378754748
72,104,2,205,-0.5,0.5,-0.5,4,4,0.2,4,868,1,0,868,0,0,0.4,0,0.746893440976586,0.746893440976586,750,1,0,congruent,0,10643.9087268748,2024.09418542603
72,104,2,207,0.5,-0.5,0,1,NaN,0.2,1,571,1,1,571,0,0,0.4,NaN,-1.44212725141249,-1.44212725141249,750,0,0,neutral,0,4445.1626096723,1386.47435817903
72,104,2,208,-0.5,0.5,-0.5,4,4,0.2,4,665,1,1,665,1,0,0.4,0,-0.749305887491369,-0.749305887491369,750,1,0,congruent,0.1,13978.8617339211,2517.2362132934
72,104,2,209,0.5,-0.5,0.5,3,1,0.4,3,903,1,0,903,1,0,0.6,NaN,1.00485884243658,1.00485884243658,750,0,0,incongruent,1,1968.56715045476,592.627999414247
72,104,2,212,0.5,0.5,0,2,NaN,0.4,2,969,1,0,969,0,0,1,NaN,1.49130788518971,1.49130788518971,750,0,0,neutral,0,3052.57960492981,3334.75615629321
72,104,2,214,0.5,0.5,0,3,NaN,0.4,2,945,0,0,NaN,0,0,0.8,NaN,1.31441732418857,NaN,750,0,1,neutral,0,3269.90366205705,2249.79039815441
72,104,2,215,-0.5,0.5,-0.5,2,2,0.2,2,901,1,0,901,0,0,0.4,0.2,0.99011796235315,0.99011796235315,750,1,0,congruent,0,5884.05512707426,3057.24229537045
72,104,2,216,-0.5,0.5,0,4,NaN,0.2,4,918,1,0,918,0,0,0,0.2,1.11541544306229,1.11541544306229,750,0,0,neutral,0,1087.70898772199,640.789253749865
72,104,2,217,0.5,0.5,-0.5,1,1,0.2,1,649,1,1,649,1,0,0,NaN,-0.867232928158794,-0.867232928158794,750,1,0,congruent,1,6872.81806600478,246.063725468563
72,104,2,218,-0.5,-0.5,-0.5,3,3,0.2,3,896,1,0,896,0,0,0.4,0,0.95326576214458,0.95326576214458,750,1,0,congruent,0,1908.56166170529,1015.71050886103
72,104,2,221,-0.5,-0.5,-0.5,1,1,0.2,1,641,1,1,641,1,0,0.4,0,-0.926196448492506,-0.926196448492506,750,1,0,congruent,0.1,2002.7104825483,2521.62569001057
72,104,2,222,0.5,-0.5,0.5,2,4,0.2,2,993,1,0,993,0,0,0.6,NaN,1.66819844619084,1.66819844619084,750,0,0,incongruent,0,4931.52121197944,3961.39057794371
72,104,2,223,-0.5,-0.5,0,1,NaN,0.2,1,591,1,1,591,1,0,0.2,0.2,-1.29471845057821,-1.29471845057821,750,0,0,neutral,0.1,3904.21938189215,5060.66083283056
72,104,2,226,-0.5,0.5,-0.5,4,4,0.2,4,763,1,0,763,0,0,0.4,0.2,-0.0270027634033906,-0.0270027634033906,750,1,0,congruent,0,1671.25183165012,2311.6068755082
72,104,2,227,0.5,0.5,0.5,1,2,0,1,645,1,1,645,1,0,0.2,NaN,-0.89671468832565,-0.89671468832565,750,0,0,incongruent,1,4149.12502699375,901.322228783929
72,104,2,228,0.5,-0.5,0,2,NaN,0.2,3,820,0,0,NaN,0,0,0.6,NaN,0.393112318974311,NaN,750,0,1,neutral,0,3335.69261241545,3680.5353483863
72,104,2,229,0.5,0.5,-0.5,1,1,0.2,1,544,1,1,544,1,0,0.4,NaN,-1.64112913253877,-1.64112913253877,750,1,0,congruent,1,2922.52042697622,1949.93087534366
72,104,2,230,-0.5,0.5,0.5,3,4,0.4,4,932,0,0,NaN,0,0,0.8,0,1.21860160364629,NaN,750,1,0,incongruent,0,6355.26392995872,2510.87921760687
72,104,2,231,-0.5,-0.5,-0.5,2,2,0.4,2,814,1,0,814,1,0,0.8,0.4,0.348889678724027,0.348889678724027,750,1,0,congruent,0.1,8804.63022791145,2510.30244407895
72,104,2,232,-0.5,0.5,0,1,NaN,0.4,1,534,1,1,534,1,0,1,0,-1.71483353295591,-1.71483353295591,750,0,0,neutral,0.1,5718.65577358843,1528.55690627374
72,104,2,233,0.5,0.5,0.5,4,1,0.6,4,907,1,0,907,0,0,0.8,NaN,1.03434060260343,1.03434060260343,750,0,0,incongruent,0,712.624143580359,1665.18404981114
72,104,2,234,0.5,-0.5,-0.5,3,3,0.6,3,819,1,0,819,1,0,0.8,NaN,0.385741878932597,0.385741878932597,750,1,0,congruent,1,3493.76528078287,1859.25562396412
72,104,2,236,0.5,-0.5,-0.5,4,4,0.6,4,561,1,1,561,0,0,1,NaN,-1.51583165182963,-1.51583165182963,750,1,0,congruent,0,2621.68896919365,1645.28842959329
72,104,2,238,0.5,0.5,0,1,NaN,0.4,1,655,1,1,655,1,0,0.6,NaN,-0.82301028790851,-0.82301028790851,750,0,0,neutral,1,574.135543977228,1152.66634003176
72,104,2,239,0.5,-0.5,-0.5,4,4,0.6,4,801,1,0,801,1,0,1,NaN,0.253073958181744,0.253073958181744,750,1,0,congruent,1,5925.20141133945,2501.15449789533
72,104,2,241,-0.5,-0.5,0,4,NaN,0.6,4,1000,1,0,1000,0,0,0.8,0.6,1.71979152648284,1.71979152648284,750,0,0,neutral,0,2534.2041006019,10362.4543186063
72,104,2,243,0.5,-0.5,-0.5,3,3,0.6,3,641,1,1,641,1,0,1.2,NaN,-0.926196448492506,-0.926196448492506,750,1,0,congruent,1,3063.45109355102,1329.11343901054
72,104,2,248,0.5,0.5,0,1,NaN,0.4,1,602,1,1,602,1,0,0.6,NaN,-1.21364361011936,-1.21364361011936,750,0,0,neutral,1,2077.8002486287,3204.3344087821
72,104,2,251,0.5,-0.5,-0.5,1,1,0.4,1,770,1,0,770,0,0,0.6,NaN,0.0245903168886079,0.0245903168886079,750,1,0,congruent,0,2841.36907519486,2723.33327755123
72,104,2,252,-0.5,0.5,-0.5,4,4,0.4,4,632,1,1,632,1,0,0.6,0.2,-0.992530408867933,-0.992530408867933,750,1,0,congruent,0.1,1265.91576704101,514.668237972624
72,104,2,253,-0.5,-0.5,0.5,1,2,0.4,1,806,1,0,806,0,0,0.8,0.4,0.289926158390314,0.289926158390314,750,0,0,incongruent,0,2686.36115493176,3991.46860489063
72,104,2,255,-0.5,0.5,-0.5,3,3,0.4,3,781,1,0,781,0,0,0.4,0.2,0.105665157347463,0.105665157347463,750,1,0,congruent,0,3679.86035867016,483.214120866098
72,104,2,257,-0.5,-0.5,0,1,NaN,0.2,1,572,1,1,572,0,0,0.2,0.4,-1.43475681137078,-1.43475681137078,750,0,0,neutral,0,992.066755096404,2038.09701899115
72,104,2,259,0.5,0.5,-0.5,1,1,0.2,1,561,1,1,561,1,0,0,NaN,-1.51583165182963,-1.51583165182963,750,1,0,congruent,1,3450.07931746668,1663.51232240101
72,104,2,260,0.5,0.5,-0.5,4,4,0.4,4,674,1,1,674,1,0,0.4,NaN,-0.682971927115942,-0.682971927115942,750,1,0,congruent,1,2541.84955483576,1537.02584442756
72,104,2,261,0.5,-0.5,-0.5,3,3,0.4,2,846,0,0,NaN,1,0,0.8,NaN,0.584743760058877,NaN,750,0,1,congruent,1,8860.91618218618,2230.08954769883
72,104,2,262,-0.5,0.5,0,4,NaN,0.4,4,967,1,0,967,0,0,1.2,0.2,1.47656700510628,1.47656700510628,750,0,0,neutral,0,2261.98653821483,679.672417227131
72,104,2,263,0.5,0.5,0.5,1,2,0.4,1,609,1,1,609,1,0,1.2,NaN,-1.16205052982736,-1.16205052982736,750,0,0,incongruent,1,1122.96005137452,3773.14013944162
72,104,2,265,0.5,-0.5,-0.5,4,4,0.6,4,698,1,1,698,1,0,1.2,NaN,-0.506081366114805,-0.506081366114805,750,1,0,congruent,1,1616.68319499788,3971.61900513764
72,104,2,266,0.5,-0.5,-0.5,1,1,0.6,1,665,1,1,665,1,0,1.2,NaN,-0.749305887491369,-0.749305887491369,750,1,0,congruent,1,8268.55863325599,521.077060785452
72,104,2,268,-0.5,-0.5,0.5,1,4,0.4,1,796,1,0,796,0,0,1.2,0.4,0.216221757973174,0.216221757973174,750,0,0,incongruent,0,4059.04511970748,1329.58875664222
72,104,2,269,0.5,0.5,-0.5,3,3,0.4,3,901,1,0,901,0,0,0.8,NaN,0.99011796235315,0.99011796235315,750,1,0,congruent,0,4199.91228455901,3234.95290037935
72,104,2,270,0.5,0.5,-0.5,1,1,0.2,1,708,1,1,708,1,0,0.8,NaN,-0.432376965697664,-0.432376965697664,750,1,0,congruent,1,4366.43404090282,5970.61710311485
72,104,2,273,0.5,0.5,-0.5,1,1,0.2,1,595,1,1,595,1,0,0.4,NaN,-1.26523669041135,-1.26523669041135,750,1,0,congruent,1,9651.10404007675,2472.76232423474
72,104,2,276,-0.5,-0.5,-0.5,2,2,0.2,2,958,1,0,958,0,0,0.4,0.2,1.41023304473085,1.41023304473085,750,1,0,congruent,0,7255.11030343788,7776.52890372509
72,104,2,277,0.5,-0.5,0,4,NaN,0.2,4,990,1,0,990,0,0,0.4,NaN,1.6460871260657,1.6460871260657,750,0,0,neutral,0,6972.11222901992,1869.19799369259
72,104,2,278,-0.5,-0.5,-0.5,1,1,0.2,1,743,1,1,743,0,0,0.4,0.2,-0.174411564237672,-0.174411564237672,750,1,0,congruent,0,620.681047676211,3622.36218934744
72,104,2,279,-0.5,0.5,0,4,NaN,0.2,4,830,1,0,830,0,0,0,0,0.466816719391452,0.466816719391452,750,0,0,neutral,0,2348.93193265876,1412.85906925915
72,104,2,281,0.5,-0.5,0.5,1,3,0.2,1,921,1,0,921,0,0,0,NaN,1.13752676318743,1.13752676318743,750,0,0,incongruent,0,3201.89367992253,1584.45092911562
72,104,2,283,-0.5,0.5,-0.5,4,4,0.2,4,689,1,1,689,1,0,0,0,-0.572415326490231,-0.572415326490231,750,1,0,congruent,0.1,2176.7001751479,2038.44162584713
72,104,2,287,-0.5,0.5,0,2,NaN,0.2,2,903,1,0,903,0,0,0.2,0.2,1.00485884243658,1.00485884243658,750,0,0,neutral,0,1699.53114839268,3683.44464523273
72,104,2,290,-0.5,-0.5,-0.5,1,1,0.2,1,600,1,1,600,0,0,0,0,-1.22838449020278,-1.22838449020278,750,1,0,congruent,0,2178.96348787648,2349.45680902572
72,104,2,292,0.5,0.5,-0.5,3,3,0.2,3,932,1,0,932,0,0,0,NaN,1.21860160364629,1.21860160364629,750,1,0,congruent,0,3817.53124433736,2693.35652232303
72,104,2,293,-0.5,-0.5,0.5,1,4,0.2,1,825,1,0,825,0,0,0,0,0.429964519182881,0.429964519182881,750,0,0,incongruent,0,1600.67783872211,3181.33227063785
72,104,2,296,-0.5,0.5,-0.5,3,3,0,3,817,1,0,817,0,0,0,0.2,0.371000998849169,0.371000998849169,750,1,0,congruent,0,4065.95381940363,1252.33330909092
72,104,2,297,0.5,0.5,0.5,1,2,0,1,504,1,1,504,1,0,0,NaN,-1.93594673420733,-1.93594673420733,750,0,0,incongruent,1,294.724098642028,1384.81420676775
72,104,2,298,0.5,0.5,0.5,2,1,0.2,2,817,1,0,817,0,0,0.4,NaN,0.371000998849169,0.371000998849169,750,0,0,incongruent,0,2008.13146847088,2531.01834664441
72,104,3,301,-0.5,0.5,-0.5,1,1,0.2,1,692,1,1,692,1,0,0.6,0.2,-0.550304006365089,-0.550304006365089,750,1,0,congruent,0.1,1359.38243040316,1155.30048451404
72,104,3,302,-0.5,0.5,0,4,NaN,0.4,4,807,1,0,807,0,0,0.8,0.4,0.297296598432028,0.297296598432028,750,0,0,neutral,0,3420.44671636141,4463.58833663313
72,104,3,303,0.5,0.5,-0.5,1,1,0.4,1,463,1,1,463,1,0,0.4,NaN,-2.23813477591761,-2.23813477591761,750,1,0,congruent,1,1307.66045559628,303.351629659794
72,104,3,305,0.5,0.5,-0.5,3,3,0.4,3,528,1,1,528,1,0,0.6,NaN,-1.7590561732062,-1.7590561732062,750,1,0,congruent,1,1701.27948305909,1773.61376238212
72,104,3,306,-0.5,-0.5,0.5,2,1,0.6,1,861,0,0,NaN,0,0,1,0.2,0.695300360684588,NaN,750,1,0,incongruent,0,577.600574077911,779.744996952548
72,104,3,307,-0.5,-0.5,0.5,1,4,0.6,1,635,1,1,635,0,0,0.8,0.2,-0.970419088742791,-0.970419088742791,750,0,0,incongruent,0,3688.6190212687,2914.45190869374
72,104,3,308,0.5,-0.5,0,2,NaN,0.6,3,848,0,0,NaN,0,0,0.8,NaN,0.599484640142305,NaN,750,0,1,neutral,0,3195.32900668667,1397.30832518066
72,104,3,309,-0.5,-0.5,-0.5,1,1,0.6,1,673,1,1,673,1,0,0.4,0.2,-0.690342367157656,-0.690342367157656,750,1,0,congruent,0.1,3166.9240976059,574.783165239601
72,104,3,310,0.5,-0.5,0,3,NaN,0.6,3,708,1,1,708,1,0,0.6,NaN,-0.432376965697664,-0.432376965697664,750,0,0,neutral,1,1390.91545602094,2128.46807298529
72,104,3,311,0.5,-0.5,-0.5,2,2,0.6,2,809,1,0,809,1,0,0.6,NaN,0.312037478515456,0.312037478515456,750,1,0,congruent,1,3694.44901061478,4282.57024957611
72,104,3,312,0.5,0.5,0,4,NaN,0.6,4,804,1,0,804,0,0,1,NaN,0.275185278306886,0.275185278306886,750,0,0,neutral,0,6399.30986704093,465.448521481104
72,104,3,313,0.5,0.5,-0.5,2,2,0.4,2,790,1,0,790,0,0,1,NaN,0.171999117722889,0.171999117722889,750,1,0,congruent,0,530.517999910597,1209.05207354963
72,104,3,315,0.5,0.5,0,2,NaN,0.2,2,837,1,0,837,0,0,0.8,NaN,0.51840979968345,0.51840979968345,750,0,0,neutral,0,2812.06088026244,2809.3797408722
72,104,3,316,0.5,0.5,-0.5,3,3,0.2,3,961,1,0,961,0,0,0.4,NaN,1.43234436485599,1.43234436485599,750,1,0,congruent,0,2773.78864436498,1807.00257635559
72,104,3,317,0.5,0.5,0,2,NaN,0,2,722,1,1,722,1,0,0,NaN,-0.329190805113667,-0.329190805113667,750,0,0,neutral,1,1869.15727313633,2203.23049211216
72,104,3,318,-0.5,-0.5,-0.5,4,4,0.2,4,619,1,1,619,0,0,0.4,0.4,-1.08834612941022,-1.08834612941022,750,1,0,congruent,0,1790.50085035588,4961.29023016352
72,104,3,319,-0.5,-0.5,-0.5,3,3,0.2,3,877,1,0,877,0,0,0.4,0.4,0.813227401352013,0.813227401352013,750,1,0,congruent,0,2655.96905800424,5875.06262126659
72,104,3,320,0.5,-0.5,0,1,NaN,0.2,1,628,1,1,628,1,0,0.4,NaN,-1.02201216903479,-1.02201216903479,750,0,0,neutral,1,3954.89978902739,6396.61748482285
72,104,3,321,-0.5,-0.5,-0.5,4,4,0.2,4,751,1,0,751,0,0,0.8,0.2,-0.115448043903959,-0.115448043903959,750,1,0,congruent,0,3310.05652058972,1473.0028163688
72,104,3,327,0.5,0.5,0,4,NaN,0,4,973,1,0,973,0,0,0,NaN,1.52078964535656,1.52078964535656,750,0,0,neutral,0,9307.74185175219,2571.40658013935
72,104,3,328,-0.5,0.5,-0.5,1,1,0,1,817,1,0,817,0,0,0,0,0.371000998849169,0.371000998849169,750,1,0,congruent,0,2257.0533943994,1936.16250945517
72,104,3,329,-0.5,-0.5,-0.5,2,2,0,2,913,1,0,913,0,0,0,0.2,1.07856324285372,1.07856324285372,750,1,0,congruent,0,3437.54897916348,3103.41060125079
72,104,3,331,-0.5,-0.5,0,3,NaN,0,3,905,1,0,905,0,0,0,0.2,1.01959972252001,1.01959972252001,750,0,0,neutral,0,1074.15035899942,3639.550514219
72,104,3,332,-0.5,-0.5,-0.5,2,2,0,2,716,1,1,716,0,0,0,0,-0.373413445363952,-0.373413445363952,750,1,0,congruent,0,6509.41623095291,2980.19922832305
72,104,3,334,-0.5,-0.5,-0.5,4,4,0,4,651,1,1,651,0,0,0,0,-0.852492048075366,-0.852492048075366,750,1,0,congruent,0,5595.51278928842,1003.4099633027
72,104,3,335,0.5,0.5,0,3,NaN,0,3,821,1,0,821,0,0,0,NaN,0.400482759016025,0.400482759016025,750,0,0,neutral,0,8659.56650950675,3239.12201887641
72,104,3,340,-0.5,0.5,0,4,NaN,0.2,4,723,1,1,723,1,0,0.6,0,-0.321820365071953,-0.321820365071953,750,0,0,neutral,0.1,1850.13054890523,7040.3645372676
72,104,3,341,-0.5,0.5,-0.5,1,1,0.4,1,551,1,1,551,1,0,0.8,0.2,-1.58953605224677,-1.58953605224677,750,1,0,congruent,0.1,1627.69549759215,1368.79453265426
72,104,3,342,-0.5,0.5,0,2,NaN,0.6,3,917,0,0,NaN,0,0,0.6,0.4,1.10804500302058,NaN,750,0,1,neutral,0,4515.7627570968,2224.68195585297
72,104,3,343,-0.5,-0.5,0.5,1,4,0.6,1,702,1,1,702,1,0,0.6,0.2,-0.476599605947949,-0.476599605947949,750,0,0,incongruent,0.1,3353.98250098608,1465.50805271992
72,104,3,344,0.5,0.5,0.5,4,3,0.6,4,896,1,0,896,0,0,0.6,NaN,0.95326576214458,0.95326576214458,750,0,0,incongruent,0,2167.00336935802,4165.67818710329
72,104,3,345,-0.5,-0.5,0,3,NaN,0.6,3,793,1,0,793,1,0,0.6,0.4,0.194110437848031,0.194110437848031,750,0,0,neutral,0.1,1225.37534751518,1960.79579248946
72,104,3,347,0.5,-0.5,0.5,2,3,0.6,3,982,0,0,NaN,1,0,0.6,NaN,1.58712360573199,NaN,750,1,0,incongruent,1,3589.73432810579,2558.79839308764
72,104,3,348,-0.5,-0.5,0.5,4,1,0.6,4,973,1,0,973,0,0,1,0.8,1.52078964535656,1.52078964535656,750,0,0,incongruent,0,799.578400954743,5237.35279322991
72,104,3,349,0.5,-0.5,0,1,NaN,0.6,1,652,1,1,652,1,0,0.8,NaN,-0.845121608033652,-0.845121608033652,750,0,0,neutral,1,4336.65096456462,5885.76933893344
72,104,3,350,0.5,-0.5,-0.5,3,3,0.6,3,998,1,0,998,1,0,1.2,NaN,1.70505064639941,1.70505064639941,750,1,0,congruent,1,2851.19851377474,4187.70453114019
72,104,3,351,-0.5,-0.5,-0.5,1,1,0.6,1,644,1,1,644,1,0,1.4,0.8,-0.904085128367364,-0.904085128367364,750,1,0,congruent,0.1,6228.43947324615,1707.28903967362
72,104,3,352,-0.5,-0.5,-0.5,4,4,0.6,4,762,1,0,762,1,0,1.4,0.8,-0.0343732034451046,-0.0343732034451046,750,1,0,congruent,0.1,2539.72379941021,6139.91561268745
72,104,3,353,0.5,0.5,0,2,NaN,0.6,2,963,1,0,963,0,0,1.2,NaN,1.44708524493942,1.44708524493942,750,0,0,neutral,0,1573.43308669125,6042.87582455214
72,104,3,354,-0.5,-0.5,-0.5,4,4,0.4,4,705,1,1,705,0,0,1.2,0.8,-0.454488285822806,-0.454488285822806,750,1,0,congruent,0,17972.2644169552,6030.14531680217
72,104,3,356,0.5,0.5,0,3,NaN,0.4,3,911,1,0,911,0,0,0.6,NaN,1.06382236277029,1.06382236277029,750,0,0,neutral,0,3009.4597776162,5147.96209784449
72,104,3,357,0.5,-0.5,0.5,4,1,0.2,4,887,1,0,887,0,0,0.4,NaN,0.886931801769153,0.886931801769153,750,0,0,incongruent,0,2587.89192638725,2830.76107341047
72,104,3,362,-0.5,0.5,0,3,NaN,0,2,815,0,0,NaN,0,0,0,0.4,0.356260118765741,NaN,750,0,1,neutral,0,6375.61263047958,5293.6493363381
72,104,3,363,0.5,0.5,-0.5,1,1,0,1,620,1,1,620,1,0,0,NaN,-1.0809756893685,-1.0809756893685,750,1,0,congruent,1,2127.47085783443,2861.90148240939
72,104,3,365,-0.5,0.5,0.5,1,2,0.2,1,902,1,0,902,0,0,0.4,0.4,0.997488402394864,0.997488402394864,750,0,0,incongruent,0,1143.73935333153,4368.9656388357
72,104,3,368,-0.5,-0.5,0,1,NaN,0.2,1,615,1,1,615,0,0,0.4,0.2,-1.11782788957707,-1.11782788957707,750,0,0,neutral,0,1509.29429515812,1365.17226682215
72,104,3,373,0.5,0.5,-0.5,2,2,0.4,2,826,1,0,826,0,0,0.2,NaN,0.437334959224595,0.437334959224595,750,1,0,congruent,0,6697.40100227653,1962.7606462577
72,104,3,374,0.5,0.5,0,1,NaN,0.2,1,583,1,1,583,1,0,0.2,NaN,-1.35368197091192,-1.35368197091192,750,0,0,neutral,1,3411.79090569437,920.977311011242
72,104,3,375,-0.5,-0.5,-0.5,4,4,0.4,4,636,1,1,636,1,0,0.6,0,-0.963048648701077,-0.963048648701077,750,1,0,congruent,0.1,2159.37057441014,3203.32740920065
72,104,3,376,-0.5,-0.5,0.5,1,3,0.4,1,707,1,1,707,0,0,0.8,0.2,-0.439747405739378,-0.439747405739378,750,0,0,incongruent,0,933.874136883168,1654.34234278709
72,104,3,377,0.5,0.5,0.5,3,1,0.4,3,952,1,0,952,0,0,0.8,NaN,1.36601040448057,1.36601040448057,750,0,0,incongruent,0,1179.13590013914,1697.39505589013
72,104,3,378,0.5,0.5,0.5,4,2,0.4,4,766,1,0,766,0,0,0.6,NaN,-0.00489144327824839,-0.00489144327824839,750,0,0,incongruent,0,1410.42908463861,4673.65291208262
72,104,3,379,0.5,-0.5,0.5,1,3,0.4,1,684,1,1,684,0,0,0.6,NaN,-0.609267526698802,-0.609267526698802,750,0,0,incongruent,0,1472.33381366069,3298.95291772614
72,104,3,380,0.5,-0.5,0.5,3,2,0.4,3,829,1,0,829,0,0,0.2,NaN,0.459446279349738,0.459446279349738,750,0,0,incongruent,0,4600.54327961021,4215.79438375236
72,104,3,381,-0.5,-0.5,0.5,4,3,0.4,4,984,1,0,984,0,0,0,0.2,1.60186448581542,1.60186448581542,750,0,0,incongruent,0,7766.80619229279,1993.65795070242
72,104,3,382,0.5,0.5,0.5,3,1,0.4,3,944,1,0,944,0,0,0,NaN,1.30704688414686,1.30704688414686,750,0,0,incongruent,0,667.657494523464,2223.5200920032
72,104,3,383,-0.5,-0.5,0.5,1,3,0.2,1,489,1,1,489,0,0,0,0.2,-2.04650333483304,-2.04650333483304,750,0,0,incongruent,0,733.6574943364,3950.28136323948
72,104,3,384,0.5,0.5,0,2,NaN,0.2,2,849,1,0,849,0,0,0,NaN,0.606855080184019,0.606855080184019,750,0,0,neutral,0,1000.7798062159,664.763575704844
72,104,3,385,0.5,-0.5,0.5,1,2,0.2,1,898,1,0,898,1,0,0,NaN,0.968006642228008,0.968006642228008,750,0,0,incongruent,1,9221.43429202099,4048.6404895404
72,104,3,386,0.5,-0.5,0.5,4,3,0.2,4,830,1,0,830,0,0,0.4,NaN,0.466816719391452,0.466816719391452,750,0,0,incongruent,0,6750.91623577325,2040.13220206505
72,104,3,387,0.5,-0.5,0,2,NaN,0.2,2,844,1,0,844,0,0,0.4,NaN,0.570002879975449,0.570002879975449,750,0,0,neutral,0,1711.90127684303,1650.33501158406
72,104,3,388,0.5,0.5,-0.5,1,1,0.2,1,531,1,1,531,1,0,0.4,NaN,-1.73694485308105,-1.73694485308105,750,1,0,congruent,1,2164.14598201019,1617.754606356
72,104,3,389,-0.5,-0.5,-0.5,3,3,0.2,2,797,0,0,NaN,0,0,0.8,0.2,0.223592198014888,NaN,750,0,1,congruent,0,3947.825975778,2341.23941958299
72,104,3,390,-0.5,-0.5,0,2,NaN,0.2,2,828,1,0,828,0,0,0.8,0.2,0.452075839308024,0.452075839308024,750,0,0,neutral,0,2648.55383088909,6313.41624229957
72,104,3,391,-0.5,-0.5,0.5,3,1,0.2,1,712,0,1,NaN,0,0,0.4,0,-0.402895205530808,NaN,750,1,0,incongruent,0,5861.28920104663,7377.42738324291
72,104,3,393,-0.5,-0.5,0,2,NaN,0.2,2,786,1,0,786,0,0,0.4,0,0.142517357556033,0.142517357556033,750,0,0,neutral,0,2396.01915003534,2744.21857194155
72,104,3,394,0.5,-0.5,-0.5,1,1,0.2,1,687,1,1,687,1,0,0,NaN,-0.58715620657366,-0.58715620657366,750,1,0,congruent,1,4142.34391918298,1132.88899244513
72,104,3,396,-0.5,0.5,0,1,NaN,0.2,1,686,1,1,686,1,0,0.4,0.2,-0.594526646615374,-0.594526646615374,750,0,0,neutral,0.1,1908.68459236519,846.046636357808
72,104,3,397,0.5,0.5,-0.5,4,4,0.4,4,696,1,1,696,1,0,0.6,NaN,-0.520822246198233,-0.520822246198233,750,1,0,congruent,1,1930.61530464598,1468.70443623456
72,104,3,398,-0.5,0.5,-0.5,2,2,0.6,2,689,1,1,689,1,0,1,0.4,-0.572415326490231,-0.572415326490231,750,1,0,congruent,0.1,2454.14728415619,1423.87396452344
72,104,3,399,0.5,0.5,-0.5,3,3,0.8,3,780,1,0,780,0,0,1.2,NaN,0.0982947173057485,0.0982947173057485,750,1,0,congruent,0,4206.49247128465,1773.59590767062
72,104,3,400,-0.5,-0.5,-0.5,1,1,0.6,1,601,1,1,601,0,0,0.8,0,-1.22101405016107,-1.22101405016107,750,1,0,congruent,0,3583.36324196476,2123.30391371324
72,104,3,402,0.5,-0.5,0,3,NaN,0.6,3,776,1,0,776,0,0,0.6,NaN,0.0688129571388923,0.0688129571388923,750,0,0,neutral,0,7189.94669534776,3349.37071124184
72,104,3,403,0.5,-0.5,-0.5,4,4,0.6,4,598,1,1,598,0,0,0.2,NaN,-1.24312537028621,-1.24312537028621,750,1,0,congruent,0,1454.69930861068,921.530048742528
72,104,3,405,0.5,0.5,0.5,1,4,0.4,4,814,0,0,NaN,0,0,0,NaN,0.348889678724027,NaN,750,1,0,incongruent,0,6829.48770935172,2827.18952718372
72,104,3,406,0.5,0.5,0,3,NaN,0.2,3,904,1,0,904,0,0,0,NaN,1.01222928247829,1.01222928247829,750,0,0,neutral,0,2368.9503789779,1009.255135636
72,104,3,407,-0.5,0.5,0.5,1,4,0,1,758,1,0,758,0,0,0,0.6,-0.0638549636119609,-0.0638549636119609,750,0,0,incongruent,0,2313.11557888019,1025.23500547974
72,104,3,410,0.5,0.5,0.5,1,4,0,1,903,1,0,903,0,0,0,NaN,1.00485884243658,1.00485884243658,750,0,0,incongruent,0,3101.00836316729,2281.71331370049
72,104,3,412,0.5,0.5,0.5,3,2,0,3,939,1,0,939,0,0,0,NaN,1.27019468393828,1.27019468393828,750,0,0,incongruent,0,2499.43958949062,4390.24476560994
72,104,3,413,0.5,-0.5,-0.5,1,1,0,1,707,1,1,707,0,0,0,NaN,-0.439747405739378,-0.439747405739378,750,1,0,congruent,0,5638.63761480397,3044.98529265999
72,104,3,414,0.5,-0.5,0.5,4,3,0,4,932,1,0,932,0,0,0,NaN,1.21860160364629,1.21860160364629,750,0,0,incongruent,0,3440.16362731827,1851.9496967674
72,104,3,415,-0.5,0.5,0,1,NaN,0,1,637,1,1,637,1,0,0,0.2,-0.955678208659363,-0.955678208659363,750,0,0,neutral,0.1,5367.67174060698,4703.55355211121
72,104,3,418,0.5,-0.5,0.5,2,4,0.2,2,974,1,0,974,0,0,0.2,NaN,1.52816008539828,1.52816008539828,750,0,0,incongruent,0,2598.90145871795,4590.50074962339
72,104,3,419,0.5,-0.5,0,3,NaN,0.2,3,853,1,0,853,0,0,0.2,NaN,0.636336840350875,0.636336840350875,750,0,0,neutral,0,1897.24016594576,1317.45678805793
72,104,3,420,0.5,0.5,-0.5,4,4,0.2,4,769,1,0,769,0,0,0.2,NaN,0.0172198768468938,0.0172198768468938,750,1,0,congruent,0,4074.91143267536,670.659563490549
72,104,3,421,-0.5,-0.5,-0.5,1,1,0.2,1,678,1,1,678,1,0,0,0,-0.653490166949086,-0.653490166949086,750,1,0,congruent,0.1,5923.4920331412,3419.27640535198
72,104,3,423,-0.5,0.5,-0.5,3,3,0.2,3,807,1,0,807,0,0,0.2,0.2,0.297296598432028,0.297296598432028,750,1,0,congruent,0,6377.52483117394,3849.24069657245
72,104,3,425,0.5,0.5,-0.5,4,4,0,4,904,1,0,904,0,0,0.2,NaN,1.01222928247829,1.01222928247829,750,1,0,congruent,0,638.183845338673,2511.68425145629
72,104,3,427,0.5,-0.5,0,4,NaN,0,4,695,1,1,695,0,0,0,NaN,-0.528192686239947,-0.528192686239947,750,0,0,neutral,0,2606.27907960284,4735.38276324985
72,104,3,429,-0.5,-0.5,0,3,NaN,0,3,681,1,1,681,0,0,0,0.2,-0.631378846823944,-0.631378846823944,750,0,0,neutral,0,528.665629470313,4599.16790499653
72,104,3,430,0.5,-0.5,-0.5,4,4,0,4,684,1,1,684,0,0,0,NaN,-0.609267526698802,-0.609267526698802,750,1,0,congruent,0,3080.02455087182,1650.02539817854
72,104,3,431,-0.5,-0.5,0.5,2,1,0,1,675,0,1,NaN,0,0,0,0.2,-0.675601487074228,NaN,750,1,0,incongruent,0,10682.4322479225,2785.19270818776
72,104,3,432,-0.5,0.5,0,3,NaN,0,3,935,1,0,935,0,0,0,0.2,1.24071292377143,1.24071292377143,750,0,0,neutral,0,4653.43791870929,3392.36251385636
72,104,3,433,0.5,0.5,-0.5,4,4,0,4,823,1,0,823,0,0,0,NaN,0.415223639099453,0.415223639099453,750,1,0,congruent,0,7464.32251367831,2971.08822899605
72,104,3,435,0.5,-0.5,-0.5,4,4,0,4,635,1,1,635,0,0,0,NaN,-0.970419088742791,-0.970419088742791,750,1,0,congruent,0,5499.92920851062,4120.60056662603
72,104,3,437,0.5,-0.5,0,2,NaN,0,2,875,1,0,875,0,0,0,NaN,0.798486521268585,0.798486521268585,750,0,0,neutral,0,2879.73182925321,1752.95075413544
72,104,3,442,0.5,0.5,-0.5,1,1,0,1,706,1,1,706,1,0,0,NaN,-0.447117845781092,-0.447117845781092,750,1,0,congruent,1,5629.72808900617,374.165950705614
72,104,3,443,0.5,-0.5,0.5,2,3,0.2,2,936,1,0,936,0,0,0.4,NaN,1.24808336381314,1.24808336381314,750,0,0,incongruent,0,3273.17858872302,2381.08213298497
72,104,3,444,-0.5,0.5,-0.5,4,4,0.2,4,672,1,1,672,1,0,0.4,0.2,-0.69771280719937,-0.69771280719937,750,1,0,congruent,0.1,2733.64695040156,5722.76747268663
72,104,3,446,-0.5,0.5,-0.5,4,4,0.4,4,626,1,1,626,1,0,0.6,0.2,-1.03675304911822,-1.03675304911822,750,1,0,congruent,0.1,4915.82681843854,905.984731812512
72,104,3,447,-0.5,-0.5,0.5,3,2,0.6,3,936,1,0,936,1,0,0.8,0,1.24808336381314,1.24808336381314,750,0,0,incongruent,0.1,4681.37600201149,3030.2922686175
72,104,3,448,0.5,0.5,-0.5,1,1,0.6,1,638,1,1,638,1,0,0.6,NaN,-0.948307768617649,-0.948307768617649,750,1,0,congruent,1,13473.6079003608,3851.26948530093
72,104,3,449,0.5,-0.5,0.5,3,2,0.8,3,960,1,0,960,1,0,1,NaN,1.42497392481428,1.42497392481428,750,0,0,incongruent,1,2615.18194203171,2908.50360466699
72,104,3,450,0.5,0.5,0,1,NaN,0.8,1,617,1,1,617,1,0,1.2,NaN,-1.10308700949364,-1.10308700949364,750,0,0,neutral,1,4959.82768825185,1560.77494769163
72,104,4,451,-0.5,-0.5,-0.5,4,4,0.8,4,697,1,1,697,1,0,1.6,0.2,-0.513451806156519,-0.513451806156519,750,1,0,congruent,0.1,1941.12449705105,1874.18595369207
72,104,4,452,0.5,-0.5,0,3,NaN,0.8,3,921,1,0,921,1,0,1.6,NaN,1.13752676318743,1.13752676318743,750,0,0,neutral,1,3524.42749766313,2589.21709588986
72,104,4,453,0.5,-0.5,-0.5,1,1,0.8,1,567,1,1,567,1,0,1.8,NaN,-1.47160901157935,-1.47160901157935,750,1,0,congruent,1,1387.78908214337,2773.42917235813
72,104,4,454,-0.5,0.5,-0.5,4,4,0.8,4,577,1,1,577,1,0,1.8,0.4,-1.39790461116221,-1.39790461116221,750,1,0,congruent,0.1,2578.24116389969,2115.22303710191
72,104,4,455,0.5,0.5,0,2,NaN,0.8,2,847,1,0,847,0,0,1.6,NaN,0.592114200100591,0.592114200100591,750,0,0,neutral,0,1836.99749979482,3427.98571114837
72,104,4,457,0.5,0.5,-0.5,4,4,0.6,4,618,1,1,618,1,0,1,NaN,-1.09571656945193,-1.09571656945193,750,1,0,congruent,1,1206.4365233645,1660.28137517437
72,104,4,459,0.5,-0.5,-0.5,3,3,0.6,3,807,1,0,807,0,0,1,NaN,0.297296598432028,0.297296598432028,750,1,0,congruent,0,3809.68477557881,5055.14142895671
72,104,4,460,0.5,0.5,0.5,1,2,0.6,1,813,1,0,813,0,0,0.8,NaN,0.341519238682313,0.341519238682313,750,0,0,incongruent,0,2185.61302989168,3454.89299424824
72,104,4,461,-0.5,0.5,0,2,NaN,0.4,2,756,1,0,756,0,0,0.8,0.6,-0.078595843695389,-0.078595843695389,750,0,0,neutral,0,1902.16688963373,3106.79165940757
72,104,4,462,0.5,0.5,0.5,3,2,0.2,3,952,1,0,952,0,0,0.8,NaN,1.36601040448057,1.36601040448057,750,0,0,incongruent,0,3604.35880169652,1467.89297944337
72,104,4,463,0.5,-0.5,-0.5,4,4,0.2,4,649,1,1,649,0,0,0.4,NaN,-0.867232928158794,-0.867232928158794,750,1,0,congruent,0,5411.98324252569,1475.87361097554
72,104,4,464,-0.5,-0.5,-0.5,2,2,0.2,2,845,1,0,845,0,0,0,0.4,0.577373320017163,0.577373320017163,750,1,0,congruent,0,927.640980789886,1635.89074150349
72,104,4,465,-0.5,0.5,0.5,1,3,0.2,1,739,1,1,739,1,0,0,0.4,-0.203893324404528,-0.203893324404528,750,0,0,incongruent,0.1,1024.44082606363,4027.25386334611
72,104,4,467,-0.5,-0.5,0,2,NaN,0.4,2,910,1,0,910,1,0,0.6,0.4,1.05645192272858,1.05645192272858,750,0,0,neutral,0.1,3408.43920235583,1649.47999574736
72,104,4,468,0.5,-0.5,-0.5,4,4,0.4,4,624,1,1,624,1,0,0.8,NaN,-1.05149392920165,-1.05149392920165,750,1,0,congruent,1,1600.7648357404,2748.47250341043
72,104,4,469,0.5,0.5,0.5,1,3,0.4,1,780,1,0,780,0,0,1.2,NaN,0.0982947173057485,0.0982947173057485,750,0,0,incongruent,0,2890.12926602745,3752.9853390517
72,104,4,470,-0.5,0.5,0.5,4,1,0.2,4,872,1,0,872,0,0,1.2,0.6,0.776375201143442,0.776375201143442,750,0,0,incongruent,0,2257.79371493307,8210.53995299226
72,104,4,471,0.5,0.5,0.5,1,4,0.2,1,728,1,1,728,1,0,1,NaN,-0.284968164863383,-0.284968164863383,750,0,0,incongruent,1,2596.99023829037,4236.11072224788
72,104,4,473,0.5,-0.5,0,4,NaN,0.4,4,665,1,1,665,1,0,0.8,NaN,-0.749305887491369,-0.749305887491369,750,0,0,neutral,1,4944.53181781948,5864.27461135543
72,104,4,474,0.5,-0.5,0.5,3,4,0.4,4,860,0,0,NaN,0,0,0.8,NaN,0.687929920642874,NaN,750,1,0,incongruent,0,2012.75200743384,1980.54268521333
72,104,4,475,-0.5,-0.5,0,2,NaN,0.4,2,736,1,1,736,0,0,0.8,0.6,-0.22600464452967,-0.22600464452967,750,0,0,neutral,0,2774.0307570297,3628.02366344852
72,104,4,476,0.5,-0.5,-0.5,1,1,0.4,1,937,1,0,937,0,0,0.8,NaN,1.25545380385486,1.25545380385486,750,1,0,congruent,0,3952.41895234429,7752.43633629021
72,104,4,480,0.5,-0.5,0,3,NaN,0.2,3,777,1,0,777,0,0,0,NaN,0.0761833971806063,0.0761833971806063,750,0,0,neutral,0,5905.61213697708,2395.87412440823
72,104,4,483,0.5,-0.5,0.5,1,2,0,1,751,1,0,751,0,0,0,NaN,-0.115448043903959,-0.115448043903959,750,0,0,incongruent,0,4624.04285093103,2294.16261697194
72,104,4,484,-0.5,-0.5,-0.5,4,4,0,4,657,1,1,657,0,0,0,0.4,-0.808269407825081,-0.808269407825081,750,1,0,congruent,0,2169.92183090484,2716.74647778775
72,104,4,486,-0.5,-0.5,0.5,1,3,0,1,804,1,0,804,0,0,0,0.2,0.275185278306886,0.275185278306886,750,0,0,incongruent,0,2479.36202527341,2567.5659556381
72,104,4,487,-0.5,-0.5,0,2,NaN,0,2,759,1,0,759,0,0,0,0.2,-0.0564845235702468,-0.0564845235702468,750,0,0,neutral,0,236.092289200178,2385.63105732382
72,104,4,488,-0.5,0.5,-0.5,4,4,0,4,720,1,1,720,1,0,0,0,-0.343931685197095,-0.343931685197095,750,1,0,congruent,0.1,3771.1681911317,6443.89354410933
72,104,4,490,0.5,-0.5,-0.5,4,4,0.2,4,630,1,1,630,0,0,0.2,NaN,-1.00727128895136,-1.00727128895136,750,1,0,congruent,0,3213.34280771502,2459.43631077251
72,104,4,491,0.5,-0.5,0,2,NaN,0.2,2,788,1,0,788,0,0,0.2,NaN,0.157258237639461,0.157258237639461,750,0,0,neutral,0,1263.81588772142,3811.17416577858
72,104,4,493,-0.5,0.5,0.5,1,2,0.2,1,596,1,1,596,1,0,0.2,0.2,-1.25786625036964,-1.25786625036964,750,0,0,incongruent,0.1,1235.55123393163,1028.13471083718
72,104,4,494,0.5,-0.5,0,4,NaN,0.4,4,760,1,0,760,0,0,0.2,NaN,-0.0491140835285328,-0.0491140835285328,750,0,0,neutral,0,4390.37843406071,783.92532875473
72,104,4,496,-0.5,-0.5,0.5,1,2,0.4,1,814,1,0,814,1,0,0.2,0,0.348889678724027,0.348889678724027,750,0,0,incongruent,0.1,4989.79522567885,7037.98588959536
72,104,4,498,0.5,0.5,-0.5,3,3,0.4,3,683,1,1,683,1,0,0.4,NaN,-0.616637966740516,-0.616637966740516,750,1,0,congruent,1,507.632308398919,6958.53841704057
72,104,4,499,-0.5,0.5,0,1,NaN,0.6,1,620,1,1,620,1,0,0.6,0.4,-1.0809756893685,-1.0809756893685,750,0,0,neutral,0.1,3631.63087465586,2037.71003168652
72,104,4,500,-0.5,-0.5,-0.5,2,2,0.6,3,849,0,0,NaN,1,0,0.8,0.2,0.606855080184019,NaN,750,0,1,congruent,0.1,3680.74620899223,4092.3514972732
72,104,4,501,0.5,0.5,-0.5,3,3,0.6,3,745,1,1,745,1,0,1,NaN,-0.159670684154244,-0.159670684154244,750,1,0,congruent,1,2699.94682946378,1469.83412933377
72,104,4,503,-0.5,-0.5,0,3,NaN,0.8,3,851,1,0,851,1,0,1.2,0.4,0.621595960267447,0.621595960267447,750,0,0,neutral,0.1,3784.11001207096,7299.57067774427
72,104,4,504,-0.5,0.5,-0.5,2,2,0.8,2,791,1,0,791,0,0,1,0.6,0.179369557764603,0.179369557764603,750,1,0,congruent,0,4674.06872088915,1408.78553160147
72,104,4,507,0.5,-0.5,0,3,NaN,0.6,3,808,1,0,808,1,0,0.2,NaN,0.304667038473742,0.304667038473742,750,0,0,neutral,1,5964.77089139971,3647.60670925617
72,104,4,509,-0.5,-0.5,0.5,3,4,0.4,4,704,0,1,NaN,1,0,0.4,0.6,-0.46185872586452,NaN,750,1,0,incongruent,0.1,7421.4949070057,789.060518766001
72,104,4,510,-0.5,-0.5,-0.5,1,1,0.4,1,578,1,1,578,0,0,0.6,0.6,-1.39053417112049,-1.39053417112049,750,1,0,congruent,0,4318.76588251915,1623.40872254133
72,104,4,511,0.5,-0.5,0.5,3,2,0.4,3,902,1,0,902,1,0,0.6,NaN,0.997488402394864,0.997488402394864,750,0,0,incongruent,1,3684.4237900892,4367.08033286806
72,104,4,512,-0.5,0.5,0.5,1,4,0.4,1,861,1,0,861,0,0,1,0.4,0.695300360684588,0.695300360684588,750,0,0,incongruent,0,7650.56359624096,2216.10345336863
72,104,4,513,0.5,-0.5,0.5,3,1,0.2,3,938,1,0,938,0,0,0.6,NaN,1.26282424389657,1.26282424389657,750,0,0,incongruent,0,2530.30968596219,940.715495176525
72,104,4,515,0.5,0.5,-0.5,3,3,0.2,3,758,1,0,758,0,0,0.4,NaN,-0.0638549636119609,-0.0638549636119609,750,1,0,congruent,0,4229.3614739678,1240.55504820547
72,104,4,516,-0.5,0.5,-0.5,4,4,0,4,586,1,1,586,1,0,0.4,0.2,-1.33157065078678,-1.33157065078678,750,1,0,congruent,0.1,2862.32478022325,5094.34682034333
72,104,4,518,0.5,0.5,0,4,NaN,0.2,4,883,1,0,883,0,0,0.2,NaN,0.857450041602297,0.857450041602297,750,0,0,neutral,0,5170.15337355644,4118.17834899275
72,104,4,519,0.5,-0.5,0.5,3,2,0.2,3,903,1,0,903,0,0,0.2,NaN,1.00485884243658,1.00485884243658,750,0,0,incongruent,0,8615.24479368878,2056.54028568701
72,104,4,520,0.5,-0.5,0,1,NaN,0.2,1,743,1,1,743,0,0,0.2,NaN,-0.174411564237672,-0.174411564237672,750,0,0,neutral,0,15087.9066218319,2832.71212844853
72,104,4,522,-0.5,0.5,0.5,4,3,0.2,4,877,1,0,877,0,0,0,0.2,0.813227401352013,0.813227401352013,750,0,0,incongruent,0,10134.6418140503,3480.6587059386
72,104,4,523,0.5,-0.5,-0.5,1,1,0.2,1,554,1,1,554,1,0,0,NaN,-1.56742473212163,-1.56742473212163,750,1,0,congruent,1,16137.4371609988,1556.14117873368
72,104,4,524,-0.5,-0.5,-0.5,2,2,0.2,2,894,1,0,894,0,0,0.4,0.4,0.938524882061152,0.938524882061152,750,1,0,congruent,0,3707.04208012973,3471.67375089779
72,104,4,525,0.5,0.5,0.5,4,3,0.2,4,981,1,0,981,0,0,0.4,NaN,1.57975316569028,1.57975316569028,750,0,0,incongruent,0,8594.40102577715,4005.59288622601
72,104,4,526,0.5,0.5,-0.5,1,1,0.2,1,613,1,1,613,1,0,0.4,NaN,-1.1325687696605,-1.1325687696605,750,1,0,congruent,1,2001.27743347798,2457.44043780464
72,104,4,527,-0.5,0.5,0.5,4,2,0.4,4,828,1,0,828,0,0,0.8,0.2,0.452075839308024,0.452075839308024,750,0,0,incongruent,0,1438.50996377393,1930.19664866402
72,104,4,528,0.5,0.5,0.5,3,1,0.2,1,633,0,1,NaN,0,0,0.8,NaN,-0.985159968826219,NaN,750,1,0,incongruent,0,4371.95340895269,1231.11949922478
72,104,4,530,0.5,-0.5,-0.5,1,1,0.2,1,908,1,0,908,0,0,0.4,NaN,1.04171104264515,1.04171104264515,750,1,0,congruent,0,1065.52719475508,1867.29376508609
72,104,4,531,-0.5,0.5,-0.5,4,4,0.2,4,608,1,1,608,1,0,0.4,0.2,-1.16942096986907,-1.16942096986907,750,1,0,congruent,0.1,3332.43649562786,1458.3789431473
72,104,4,532,0.5,-0.5,0,1,NaN,0.4,1,585,1,1,585,1,0,0.2,NaN,-1.33894109082849,-1.33894109082849,750,0,0,neutral,1,1579.55567236163,884.657507026595
72,104,4,533,-0.5,-0.5,-0.5,2,2,0.4,2,792,1,0,792,0,0,0.6,0.4,0.186739997806317,0.186739997806317,750,1,0,congruent,0,2516.47174928976,4773.4572311029
72,104,4,534,0.5,0.5,0.5,4,1,0.4,4,968,1,0,968,0,0,0.6,NaN,1.48393744514799,1.48393744514799,750,0,0,incongruent,0,2066.67771807443,1440.43911541002
72,104,4,535,0.5,-0.5,-0.5,2,2,0.2,2,755,1,0,755,1,0,0.6,NaN,-0.0859662837371031,-0.0859662837371031,750,1,0,congruent,1,1218.38963089039,1557.1072351226
72,104,4,536,-0.5,-0.5,0,3,NaN,0.2,3,843,1,0,843,0,0,1,0.2,0.562632439933735,0.562632439933735,750,0,0,neutral,0,4078.49258953788,1603.2536113845
72,104,4,537,-0.5,-0.5,0.5,1,3,0.2,4,923,0,0,NaN,1,0,0.8,0,1.15226764327086,NaN,750,0,1,incongruent,0.1,3799.83655370311,932.047251501109
72,104,4,540,0.5,0.5,-0.5,1,1,0.2,1,620,1,1,620,1,0,0.6,NaN,-1.0809756893685,-1.0809756893685,750,1,0,congruent,1,6287.50644956,2533.98146825253
72,104,4,541,-0.5,-0.5,0,2,NaN,0.4,2,844,1,0,844,0,0,0.6,0.2,0.570002879975449,0.570002879975449,750,0,0,neutral,0,6636.27211440668,3752.40077079496
72,104,4,542,0.5,-0.5,-0.5,1,1,0.4,1,560,1,1,560,0,0,0.6,NaN,-1.52320209187135,-1.52320209187135,750,1,0,congruent,0,3321.46310050348,2382.01099654021
72,104,4,544,0.5,0.5,-0.5,3,3,0.4,3,687,1,1,687,1,0,0.4,NaN,-0.58715620657366,-0.58715620657366,750,1,0,congruent,1,959.378733881151,1638.1086485417
72,104,4,545,0.5,0.5,-0.5,2,2,0.4,2,901,1,0,901,0,0,0.8,NaN,0.99011796235315,0.99011796235315,750,1,0,congruent,0,6544.02359329175,1463.77628488481
72,104,4,546,0.5,-0.5,-0.5,3,3,0.4,3,904,1,0,904,0,0,0.4,NaN,1.01222928247829,1.01222928247829,750,1,0,congruent,0,3463.2968542389,1286.77322099896
72,104,4,547,-0.5,0.5,0.5,2,1,0.4,4,916,0,0,NaN,0,0,0.4,0.4,1.10067456297886,NaN,750,0,1,incongruent,0,2761.68214795807,1478.84749365625
72,104,4,548,-0.5,-0.5,0,3,NaN,0.4,3,877,1,0,877,0,0,0.4,0.2,0.813227401352013,0.813227401352013,750,0,0,neutral,0,1637.83631716504,3860.47861170452
72,104,4,549,-0.5,0.5,0.5,4,1,0.4,4,887,1,0,887,0,0,0.4,0.2,0.886931801769153,0.886931801769153,750,0,0,incongruent,0,11646.823157827,3572.47811293473
72,104,4,550,0.5,0.5,0.5,1,4,0.2,1,770,1,0,770,0,0,0,NaN,0.0245903168886079,0.0245903168886079,750,0,0,incongruent,0,3793.82138603116,1658.84194890522
72,104,4,551,-0.5,-0.5,0,2,NaN,0.2,2,941,1,0,941,0,0,0,0.2,1.28493556402171,1.28493556402171,750,0,0,neutral,0,3774.43080867565,7287.77589054354
72,104,4,555,0.5,0.5,-0.5,1,1,0.2,1,488,1,1,488,1,0,0.2,NaN,-2.05387377487476,-2.05387377487476,750,1,0,congruent,1,2735.64907581874,3069.95001032646
72,104,4,556,0.5,0.5,0.5,3,2,0.4,3,974,1,0,974,0,0,0.6,NaN,1.52816008539828,1.52816008539828,750,0,0,incongruent,0,1472.0183325885,1202.82457626715
72,104,4,558,-0.5,0.5,0,3,NaN,0.4,3,879,1,0,879,0,0,0.6,0.2,0.827968281435441,0.827968281435441,750,0,0,neutral,0,2186.05372375113,3833.62542376896
72,104,4,559,0.5,0.5,-0.5,4,4,0.4,4,562,1,1,562,1,0,0.6,NaN,-1.50846121178792,-1.50846121178792,750,1,0,congruent,1,2633.92157832951,2015.71650268696
72,104,4,560,0.5,-0.5,0.5,3,1,0.6,2,913,0,0,NaN,0,0,0.8,NaN,1.07856324285372,NaN,750,0,1,incongruent,0,1581.68906420159,4358.38966181486
72,104,4,562,-0.5,0.5,0,3,NaN,0.4,3,686,1,1,686,1,0,0.4,0.2,-0.594526646615374,-0.594526646615374,750,0,0,neutral,0.1,3400.32641358473,3286.02618438392
72,104,4,564,0.5,-0.5,-0.5,3,3,0.4,3,704,1,1,704,0,0,0.6,NaN,-0.46185872586452,-0.46185872586452,750,1,0,congruent,0,2172.01192147371,6014.31635401499
72,104,4,565,0.5,0.5,0.5,4,1,0.4,4,979,1,0,979,0,0,0.2,NaN,1.56501228560685,1.56501228560685,750,0,0,incongruent,0,6624.45607639481,5665.24541277276
72,104,4,566,0.5,-0.5,0,2,NaN,0.4,2,908,1,0,908,0,0,0.2,NaN,1.04171104264515,1.04171104264515,750,0,0,neutral,0,1018.04524710061,1142.97864951422
72,104,4,567,-0.5,0.5,-0.5,4,4,0.4,4,633,1,1,633,1,0,0.2,0.4,-0.985159968826219,-0.985159968826219,750,1,0,congruent,0.1,4376.62259222489,4499.13780581592
72,104,4,568,0.5,0.5,0.5,2,1,0.6,2,947,1,0,947,0,0,0.2,NaN,1.329158204272,1.329158204272,750,0,0,incongruent,0,5232.20587665387,8697.11619297745
72,104,4,569,0.5,0.5,0.5,1,2,0.4,1,794,1,0,794,0,0,0.2,NaN,0.201480877889745,0.201480877889745,750,0,0,incongruent,0,3880.87336244433,7267.18420434222
72,104,4,570,-0.5,0.5,0,4,NaN,0.4,4,995,1,0,995,0,0,0.2,0.6,1.68293932627427,1.68293932627427,750,0,0,neutral,0,1921.61992844053,2805.92719665391
72,104,4,571,0.5,-0.5,0.5,3,2,0.2,3,860,1,0,860,0,0,0.2,NaN,0.687929920642874,0.687929920642874,750,0,0,incongruent,0,7751.92168415109,9680.5351644921
72,104,4,572,0.5,0.5,-0.5,4,4,0.2,4,672,1,1,672,1,0,0.2,NaN,-0.69771280719937,-0.69771280719937,750,1,0,congruent,1,12410.3211596485,7734.23393667918
72,104,4,573,-0.5,-0.5,0.5,1,2,0.4,1,535,1,1,535,1,0,0.4,0.2,-1.7074630929142,-1.7074630929142,750,0,0,incongruent,0.1,2379.4754581921,8010.84205035275
72,104,4,574,-0.5,0.5,-0.5,3,3,0.4,3,918,1,0,918,0,0,0.6,0.6,1.11541544306229,1.11541544306229,750,1,0,congruent,0,3045.07500057081,6383.25159418328
72,104,4,575,0.5,0.5,-0.5,2,2,0.2,2,678,1,1,678,1,0,0.6,NaN,-0.653490166949086,-0.653490166949086,750,1,0,congruent,1,6529.58830641649,7683.13299877255
72,104,4,576,-0.5,0.5,0.5,4,3,0.4,4,869,1,0,869,0,0,1,0.4,0.7542638810183,0.7542638810183,750,0,0,incongruent,0,5460.97068020557,3642.78677463422
72,104,4,577,-0.5,-0.5,0,1,NaN,0.4,1,584,1,1,584,1,0,1,0.2,-1.34631153087021,-1.34631153087021,750,0,0,neutral,0.1,882.21175423282,3903.05884996194
72,104,4,579,0.5,-0.5,0,2,NaN,0.6,2,901,1,0,901,1,0,0.8,NaN,0.99011796235315,0.99011796235315,750,0,0,neutral,1,1457.77693485429,2643.60709389065
72,104,4,580,0.5,-0.5,-0.5,4,4,0.6,4,634,1,1,634,1,0,1.2,NaN,-0.977789528784505,-0.977789528784505,750,1,0,congruent,1,34323.6428038201,1755.57376263383
72,104,4,582,0.5,-0.5,0,3,NaN,0.4,3,875,1,0,875,1,0,1.2,NaN,0.798486521268585,0.798486521268585,750,0,0,neutral,1,5603.4746334568,4101.05024993547
72,104,4,583,0.5,-0.5,0.5,4,2,0.4,4,960,1,0,960,0,0,1.4,NaN,1.42497392481428,1.42497392481428,750,0,0,incongruent,0,6698.51030344466,1108.3890754474
72,104,4,584,0.5,0.5,0.5,1,4,0.4,4,681,0,1,NaN,0,0,1.2,NaN,-0.631378846823944,NaN,750,1,0,incongruent,0,3459.38241923263,1390.37945539546
72,104,4,585,-0.5,0.5,-0.5,3,3,0.4,3,789,1,0,789,0,0,0.8,0.4,0.164628677681175,0.164628677681175,750,1,0,congruent,0,1645.55211368169,2480.00910304597
72,104,4,586,-0.5,-0.5,-0.5,2,2,0.2,2,616,1,1,616,1,0,0.4,0.4,-1.11045744953536,-1.11045744953536,750,1,0,congruent,0.1,1654.84863955251,6459.65152237997
72,104,4,587,-0.5,-0.5,-0.5,4,4,0.2,4,743,1,1,743,0,0,0.6,0.6,-0.174411564237672,-0.174411564237672,750,1,0,congruent,0,2933.70229463711,1496.32146313402
72,104,4,588,0.5,0.5,-0.5,2,2,0.2,2,845,1,0,845,0,0,0.2,NaN,0.577373320017163,0.577373320017163,750,1,0,congruent,0,1969.43560840576,785.475481294876
72,104,4,590,-0.5,0.5,-0.5,2,2,0.2,2,743,1,1,743,1,0,0.6,0.2,-0.174411564237672,-0.174411564237672,750,1,0,congruent,0.1,4743.80615507747,4236.93613034084
72,104,4,591,-0.5,-0.5,-0.5,3,3,0.2,3,699,1,1,699,0,0,0.8,0.6,-0.498710926073091,-0.498710926073091,750,1,0,congruent,0,2897.60908340188,1328.8273447293
72,104,4,593,0.5,-0.5,0,3,NaN,0.2,3,818,1,0,818,1,0,0.6,NaN,0.378371438890883,0.378371438890883,750,0,0,neutral,1,4536.05181793148,2522.02620311277
72,104,4,594,0.5,0.5,-0.5,1,1,0.2,1,514,1,1,514,1,0,1,NaN,-1.86224233379019,-1.86224233379019,750,1,0,congruent,1,2672.61429210464,1805.18005063635
72,104,4,595,-0.5,0.5,0.5,4,2,0.4,4,981,1,0,981,0,0,1,0.4,1.57975316569028,1.57975316569028,750,0,0,incongruent,0,2919.72181035513,1152.43644248033
72,104,4,596,-0.5,-0.5,0.5,2,3,0.4,3,990,0,0,NaN,0,0,0.8,0.6,1.6460871260657,NaN,750,1,0,incongruent,0,4003.9465032785,4363.95570799285
72,104,4,597,0.5,-0.5,0,1,NaN,0.4,1,586,1,1,586,0,0,0.8,NaN,-1.33157065078678,-1.33157065078678,750,0,0,neutral,0,3895.77103792841,1554.41150163729
72,104,4,598,-0.5,-0.5,0.5,4,3,0.4,4,748,1,1,748,0,0,0.8,0.4,-0.137559364029102,-0.137559364029102,750,0,0,incongruent,0,2112.67220843331,3090.56454067888
72,104,4,599,-0.5,-0.5,0,3,NaN,0.4,3,857,1,0,857,1,0,0.4,0.2,0.665818600517731,0.665818600517731,750,0,0,neutral,0.1,3429.7205011189,2549.12126130022
72,104,4,600,-0.5,0.5,-0.5,2,2,0.4,2,629,1,1,629,1,0,0.2,0.4,-1.01464172899308,-1.01464172899308,750,1,0,congruent,0.1,1797.50439743987,1378.69291216509
