subid,vers,block,trial,rewlvl,efflvl,congruency,targetresp,distractorresp,rollingefflvl,resp,rt,acc,fast,accrt,isrewarded,ismiss,runavgrrgen,runavgrrcond,zrt,acczrt,rtthreshold,isdisterror,isranderror,congruence,feedback,fcz_resp_theta,fcz_resp_theta_baseline
73,104,1,1,-0.5,-0.5,-0.5,4,4,0.4,4,689,1,1,689,0,0,0,0,0.267500288249728,0.267500288249728,750,1,0,congruent,0,3846.77813617905,10291.6052087249
73,104,1,2,-0.5,-0.5,0,1,NaN,0.4,1,685,1,1,685,0,0,0,0,0.235515117532502,0.235515117532502,750,0,0,neutral,0,2324.64389123054,3376.50320066095
73,104,1,4,0.5,0.5,0,4,NaN,0.4,4,571,1,1,571,1,0,0,NaN,-0.676062247908437,-0.676062247908437,750,0,0,neutral,1,3918.47521573646,1352.46937651966
73,104,1,6,-0.5,-0.5,0.5,4,2,0.6,4,677,1,1,677,1,0,0.8,0,0.17154477609805,0.17154477609805,750,0,0,incongruent,0.1,1632.88845081711,4650.23735803458
73,104,1,7,0.5,0.5,0.5,3,1,0.6,3,722,1,1,722,1,0,1,NaN,0.531377946666841,0.531377946666841,750,0,0,incongruent,1,2092.08268128241,6598.50580552565
73,104,1,8,-0.5,0.5,-0.5,2,2,0.6,3,806,0,0,NaN,0,0,1.4,0,1.20306653172859,NaN,750,0,1,congruent,0,3214.23839402457,5025.22982629482
73,104,1,9,0.5,-0.5,0,3,NaN,0.6,2,970,0,0,NaN,0,0,1.4,NaN,2.51445853113485,NaN,750,0,1,neutral,0,3317.53492825568,7980.87772529806
73,104,1,10,0.5,0.5,-0.5,1,1,0.6,1,596,1,1,596,1,0,1,NaN,-0.476154930925775,-0.476154930925775,750,1,0,congruent,1,3169.31186515496,3061.71607750244
73,104,1,11,-0.5,-0.5,0,4,NaN,0.7,4,875,1,0,875,0,0,1,0.2,1.75481072660073,1.75481072660073,750,0,0,neutral,0,3344.09183116763,4382.48828095512
73,104,1,12,-0.5,0.5,-0.5,3,3,0.7,3,681,1,1,681,1,0,0.8,0,0.203529946815276,0.203529946815276,750,1,0,congruent,0.1,11736.5734107899,11010.0954790446
73,104,1,13,-0.5,0.5,0,1,NaN,0.8,1,638,1,1,638,1,0,0.6,0.2,-0.140310638394903,-0.140310638394903,750,0,0,neutral,0.1,6282.55983237951,4541.26301955221
73,104,1,14,-0.5,-0.5,0.5,2,4,0.8,4,546,0,1,NaN,0,0,0.8,0.2,-0.875969564891099,NaN,750,1,0,incongruent,0,6894.1390971242,1197.73594241944
73,104,1,15,0.5,0.5,0,1,NaN,0.8,1,568,1,1,568,1,0,0.8,NaN,-0.700051125946357,-0.700051125946357,750,0,0,neutral,1,5057.91201210483,3752.18199926311
73,104,1,16,0.5,-0.5,0.5,4,2,0.8,4,847,1,0,847,1,0,0.8,NaN,1.53091453158015,1.53091453158015,750,0,0,incongruent,1,710.601561729632,4832.22236933291
73,104,1,17,0.5,0.5,0.5,1,3,0.8,1,675,1,1,675,1,0,1.2,NaN,0.155552190739437,0.155552190739437,750,0,0,incongruent,1,3580.37428118388,5149.47933733694
73,104,1,18,-0.5,-0.5,0.5,4,1,1,4,684,1,1,684,1,0,1.4,0.2,0.227518824853195,0.227518824853195,750,0,0,incongruent,0.1,2342.0621809052,3327.54215572747
73,104,1,19,-0.5,0.5,0,2,NaN,1,2,796,1,0,796,0,0,1.4,0.4,1.12310360493552,1.12310360493552,750,0,0,neutral,0,10965.6339826588,4424.13342074945
73,104,1,20,0.5,-0.5,-0.5,1,1,0.8,1,568,1,1,568,1,0,1.4,NaN,-0.700051125946357,-0.700051125946357,750,1,0,congruent,1,6873.09592473011,2619.58533563454
73,104,1,21,0.5,-0.5,0,2,NaN,0.8,1,618,0,1,NaN,1,0,1.4,NaN,-0.300236491981033,NaN,750,0,1,neutral,1,6833.69336014753,4118.87577150753
73,104,1,23,0.5,-0.5,0,2,NaN,0.8,2,749,1,1,749,0,0,1.4,NaN,0.747277849008117,0.747277849008117,750,0,0,neutral,0,9933.46821405913,8577.07866612908
73,104,1,24,0.5,0.5,0.5,1,2,0.8,1,670,1,1,670,1,0,1.2,NaN,0.115570727342904,0.115570727342904,750,0,0,incongruent,1,2707.52674840044,3001.07293228211
73,104,1,25,0.5,0.5,0,4,NaN,0.8,4,578,1,1,578,1,0,1.6,NaN,-0.620088199153292,-0.620088199153292,750,0,0,neutral,1,4367.21952029318,4584.51755565878
73,104,1,26,-0.5,0.5,-0.5,1,1,0.8,1,624,1,1,624,1,0,1.6,0.4,-0.252258735905194,-0.252258735905194,750,1,0,congruent,0.1,1296.58481590225,1270.58516900544
73,104,1,28,-0.5,-0.5,-0.5,4,4,0.6,4,586,1,1,586,1,0,1,0.4,-0.55611785771884,-0.55611785771884,750,1,0,congruent,0.1,2687.21960666026,3982.29163839983
73,104,1,32,-0.5,-0.5,0.5,4,1,0.4,4,809,1,0,809,1,0,0.6,0.6,1.22705540976651,1.22705540976651,750,0,0,incongruent,0.1,9142.49416157664,6414.73938560088
73,104,1,33,-0.5,-0.5,0,2,NaN,0.4,2,741,1,1,741,1,0,0.8,0.6,0.683307507573665,0.683307507573665,750,0,0,neutral,0.1,5915.71608751795,5597.97567260619
73,104,1,34,0.5,0.5,-0.5,4,4,0.4,4,538,1,1,538,1,0,0.8,NaN,-0.939939906325551,-0.939939906325551,750,1,0,congruent,1,2600.41492580334,2079.37171756351
73,104,1,36,0.5,0.5,-0.5,4,4,0.2,4,564,1,1,564,1,0,0.8,NaN,-0.732036296663583,-0.732036296663583,750,1,0,congruent,1,10386.4688294585,1228.60102332976
73,104,1,37,-0.5,0.5,0,2,NaN,0.4,2,659,1,1,659,1,0,1.2,0.6,0.0276115078705331,0.0276115078705331,750,0,0,neutral,0.1,8847.62695252136,4513.86869077515
73,104,1,38,0.5,-0.5,0.5,4,1,0.6,4,675,1,1,675,1,0,1.2,NaN,0.155552190739437,0.155552190739437,750,0,0,incongruent,1,6212.03272513751,3932.68545846176
73,104,1,39,0.5,0.5,0.5,2,4,0.6,4,498,0,1,NaN,0,0,1.4,NaN,-1.25979161349781,NaN,750,1,0,incongruent,0,9882.39028259824,4445.4261960092
73,104,1,41,-0.5,-0.5,-0.5,2,2,0.6,2,641,1,1,641,1,0,1.4,0.8,-0.116321760356984,-0.116321760356984,750,1,0,congruent,0.1,4748.37578462347,4146.59608181058
73,104,1,42,0.5,0.5,-0.5,4,4,0.6,4,662,1,1,662,1,0,1.2,NaN,0.0516003859084526,0.0516003859084526,750,1,0,congruent,1,2266.98175931768,1726.43590818627
73,104,1,43,0.5,-0.5,0.5,1,2,0.6,1,831,1,0,831,0,0,1.4,NaN,1.40297384871125,1.40297384871125,750,0,0,incongruent,0,9777.9957294606,10715.6292320521
73,104,1,44,-0.5,0.5,0.5,4,3,0.6,4,595,1,1,595,1,0,1,0.8,-0.484151223605082,-0.484151223605082,750,0,0,incongruent,0.1,3998.26277193092,17679.5786386408
73,104,1,47,-0.5,0.5,0,4,NaN,0.4,4,861,1,0,861,0,0,0.6,0.8,1.64286262909044,1.64286262909044,750,0,0,neutral,0,9483.42034416295,1445.36921329742
73,104,1,50,0.5,0.5,0.5,4,2,0.4,4,734,1,1,734,1,0,0.4,NaN,0.627333458818519,0.627333458818519,750,0,0,incongruent,1,3324.13228676424,6786.19864317407
73,104,1,52,0.5,0.5,0.5,2,4,0.2,2,885,1,0,885,0,0,0.8,NaN,1.8347736533938,1.8347736533938,750,0,0,incongruent,0,7388.06980978544,4945.97555505252
73,104,1,54,0.5,-0.5,-0.5,2,2,0.2,2,674,1,1,674,0,0,0.4,NaN,0.14755589806013,0.14755589806013,750,1,0,congruent,0,4086.92673754391,894.898257950243
73,104,1,55,-0.5,0.5,-0.5,4,4,0.2,4,534,1,1,534,1,0,0.4,0.6,-0.971925077042777,-0.971925077042777,750,1,0,congruent,0.1,2064.56504374878,1374.83106323479
73,104,1,57,0.5,-0.5,0,1,NaN,0.4,1,595,1,1,595,0,0,0.6,NaN,-0.484151223605082,-0.484151223605082,750,0,0,neutral,0,4606.42061863605,2094.33683807781
73,104,1,58,-0.5,-0.5,0.5,2,4,0.4,2,777,1,0,777,0,0,0.6,1,0.971174044028698,0.971174044028698,750,0,0,incongruent,0,3293.11842864381,9870.13925501765
73,104,1,59,0.5,-0.5,0.5,3,1,0.4,3,860,1,0,860,0,0,0.6,NaN,1.63486633641114,1.63486633641114,750,0,0,incongruent,0,3991.75769284568,2534.546275091
73,104,1,61,0.5,0.5,0,2,NaN,0.2,1,568,0,1,NaN,0,0,0.4,NaN,-0.700051125946357,NaN,750,0,1,neutral,0,19433.4630248841,3366.58877115363
73,104,1,62,-0.5,-0.5,-0.5,3,3,0.2,3,912,1,0,912,0,0,0,0.8,2.05067355573507,2.05067355573507,750,1,0,congruent,0,6919.93022648977,2800.07354518685
73,104,1,63,-0.5,-0.5,0,4,NaN,0.2,4,723,1,1,723,0,0,0,0.6,0.539374239346148,0.539374239346148,750,0,0,neutral,0,6994.88418177181,1919.44296275307
73,104,1,65,0.5,-0.5,-0.5,3,3,0.2,3,577,1,1,577,0,0,0,NaN,-0.628084491832598,-0.628084491832598,750,1,0,congruent,0,5461.38001632383,1429.94002793437
73,104,1,66,-0.5,0.5,0.5,1,4,0.2,1,801,1,0,801,0,0,0,0.8,1.16308506833205,1.16308506833205,750,0,0,incongruent,0,2732.52737119719,7275.08876110948
73,104,1,67,0.5,-0.5,0.5,2,1,0.2,2,881,1,0,881,1,0,0,NaN,1.80278848267657,1.80278848267657,750,0,0,incongruent,1,13142.5657723366,9197.41407357779
73,104,1,68,-0.5,0.5,0,3,NaN,0.2,1,604,0,1,NaN,0,0,0.4,0.6,-0.412184589491323,NaN,750,0,1,neutral,0,14838.3433079696,6544.90560609425
73,104,1,69,0.5,-0.5,-0.5,1,1,0,1,995,1,0,995,0,0,0.4,NaN,2.71436584811751,2.71436584811751,750,1,0,congruent,0,3846.94412896939,1392.75580458901
73,104,1,70,0.5,0.5,-0.5,2,2,0,2,647,1,1,647,1,0,0.4,NaN,-0.0683440042811447,-0.0683440042811447,750,1,0,congruent,1,3975.15723617376,11401.8585278428
73,104,1,71,-0.5,0.5,-0.5,1,1,0.2,1,574,1,1,574,1,0,0.8,0.4,-0.652073369870518,-0.652073369870518,750,1,0,congruent,0.1,1980.0948478068,4132.75799198281
73,104,1,72,-0.5,-0.5,-0.5,2,2,0.4,2,632,1,1,632,1,0,1,0.4,-0.188288394470742,-0.188288394470742,750,1,0,congruent,0.1,7345.66491663814,4604.4084051702
73,104,1,74,-0.5,0.5,-0.5,4,4,0.4,4,646,1,1,646,1,0,0.8,0.4,-0.0763402969604512,-0.0763402969604512,750,1,0,congruent,0.1,2093.72120376061,2120.65512093597
73,104,1,75,0.5,-0.5,0,2,NaN,0.6,2,730,1,1,730,1,0,1,NaN,0.595348288101293,0.595348288101293,750,0,0,neutral,1,14653.0452839601,5714.93063767602
73,104,1,76,-0.5,0.5,-0.5,1,1,0.6,1,639,1,1,639,1,0,1,0.6,-0.132314345715597,-0.132314345715597,750,1,0,congruent,0.1,3274.86547943265,2176.43514484799
73,104,1,77,-0.5,-0.5,-0.5,4,4,0.8,4,637,1,1,637,1,0,1,0.2,-0.14830693107421,-0.14830693107421,750,1,0,congruent,0.1,11457.0303272737,1905.56925658305
73,104,1,78,-0.5,0.5,-0.5,1,1,0.8,1,660,1,1,660,1,0,1,0.6,0.0356078005498396,0.0356078005498396,750,1,0,congruent,0.1,975.239135971648,4771.41399628521
73,104,1,79,-0.5,0.5,0.5,2,4,1,2,935,1,0,935,0,0,1.2,0.8,2.23458828735912,2.23458828735912,750,0,0,incongruent,0,4112.3194800968,7973.54843854405
73,104,1,80,-0.5,-0.5,-0.5,3,3,0.8,3,716,1,1,716,0,0,1,0.4,0.483400190591003,0.483400190591003,750,1,0,congruent,0,6584.78991805188,4422.79951625246
73,104,1,81,-0.5,0.5,0,1,NaN,0.8,1,591,1,1,591,1,0,0.6,0.8,-0.516136394322308,-0.516136394322308,750,0,0,neutral,0.1,6409.30627479106,3280.11630034767
73,104,1,82,-0.5,0.5,-0.5,4,4,0.8,4,601,1,1,601,1,0,0.6,0.8,-0.436173467529243,-0.436173467529243,750,1,0,congruent,0.1,12470.8149385799,6680.79074596509
73,104,1,84,-0.5,0.5,0.5,3,1,0.6,4,806,0,0,NaN,0,0,0.4,0.6,1.20306653172859,NaN,750,0,1,incongruent,0,3049.61012370823,5136.6976148021
73,104,1,85,0.5,-0.5,0,2,NaN,0.4,2,671,1,1,671,0,0,0.4,NaN,0.123567020022211,0.123567020022211,750,0,0,neutral,0,3124.19550851775,9784.37016754287
73,104,1,86,-0.5,0.5,0.5,4,2,0.4,4,682,1,1,682,1,0,0.4,0.4,0.211526239494582,0.211526239494582,750,0,0,incongruent,0.1,8734.63801461678,2115.22362521843
73,104,1,88,0.5,0.5,0.5,2,1,0.6,2,794,1,0,794,0,0,0.2,NaN,1.10711101957691,1.10711101957691,750,0,0,incongruent,0,6783.87341278366,6828.76424602517
73,104,1,89,0.5,0.5,0,4,NaN,0.4,4,651,1,1,651,1,0,0.2,NaN,-0.0363588335639187,-0.0363588335639187,750,0,0,neutral,1,5234.97801905317,2944.64807754626
73,104,1,90,-0.5,-0.5,-0.5,2,2,0.4,2,341,1,1,341,1,0,0.6,0.4,-2.51520956414893,-2.51520956414893,750,1,0,congruent,0.1,3111.75296464631,1686.8559513903
73,104,1,91,0.5,-0.5,0,4,NaN,0.4,4,623,1,1,623,1,0,0.8,NaN,-0.2602550285845,-0.2602550285845,750,0,0,neutral,1,3934.4407389547,1793.43061668098
73,104,1,92,-0.5,-0.5,-0.5,1,1,0.4,2,388,0,1,NaN,0,0,1,0.6,-2.13938380822152,NaN,750,0,1,congruent,0,3162.11231562913,5138.91902579153
73,104,1,93,0.5,0.5,0,2,NaN,0.4,2,639,1,1,639,1,0,1,NaN,-0.132314345715597,-0.132314345715597,750,0,0,neutral,1,4999.52539900316,2825.63877708001
73,104,1,94,-0.5,-0.5,-0.5,4,4,0.6,4,514,1,1,514,1,0,1.4,0.4,-1.13185093062891,-1.13185093062891,750,1,0,congruent,0.1,4007.05895711465,4164.37130820743
73,104,1,95,0.5,-0.5,0.5,3,2,0.6,3,748,1,1,748,0,0,1.2,NaN,0.73928155632881,0.73928155632881,750,0,0,incongruent,0,4230.85630714156,5024.16126627561
73,104,1,97,-0.5,-0.5,-0.5,3,3,0.6,4,547,0,1,NaN,1,0,0.6,0.6,-0.867973272211793,NaN,750,0,1,congruent,0.1,10783.819201681,2151.23562147585
73,104,1,98,0.5,0.5,0.5,1,2,0.6,2,624,0,1,NaN,0,0,0.8,NaN,-0.252258735905194,NaN,750,1,0,incongruent,0,11335.2826855656,3329.66976035085
73,104,1,99,0.5,0.5,-0.5,4,4,0.4,4,493,1,1,493,1,0,0.4,NaN,-1.29977307689434,-1.29977307689434,750,1,0,congruent,1,7304.13011853173,4693.61278294297
73,104,1,100,0.5,0.5,-0.5,2,2,0.6,2,739,1,1,739,1,0,0.6,NaN,0.667314922215052,0.667314922215052,750,1,0,congruent,1,5095.25988949538,3648.62645795851
73,104,1,101,0.5,0.5,0.5,3,1,0.6,3,871,1,0,871,0,0,1,NaN,1.72282555588351,1.72282555588351,750,0,0,incongruent,0,2296.29969920208,18893.5129299618
73,104,1,102,-0.5,0.5,0,4,NaN,0.4,4,738,1,1,738,1,0,1,0.4,0.659318629535745,0.659318629535745,750,0,0,neutral,0.1,4110.74244791358,2757.16354184926
73,104,1,103,-0.5,-0.5,0.5,2,1,0.6,2,711,1,1,711,0,0,1,0.6,0.44341872719447,0.44341872719447,750,0,0,incongruent,0,3646.56259997906,7189.09696039959
73,104,1,104,-0.5,-0.5,0.5,1,2,0.6,1,704,1,1,704,1,0,1,0.6,0.387444678439325,0.387444678439325,750,0,0,incongruent,0.1,2605.13770002692,2195.21214304645
73,104,1,105,0.5,0.5,0,3,NaN,0.6,2,725,0,1,NaN,0,0,0.8,NaN,0.555366824704761,NaN,750,0,1,neutral,0,2726.24094566615,3452.66743486239
73,104,1,106,-0.5,-0.5,-0.5,2,2,0.6,2,576,1,1,576,0,0,0.4,0.6,-0.636080784511905,-0.636080784511905,750,1,0,congruent,0,6661.98801549441,1775.11170591876
73,104,1,107,0.5,-0.5,-0.5,4,4,0.6,4,571,1,1,571,1,0,0.4,NaN,-0.676062247908437,-0.676062247908437,750,1,0,congruent,1,268.448845593514,1596.88023238853
73,104,1,108,0.5,0.5,-0.5,3,3,0.6,2,602,0,1,NaN,0,0,0.6,NaN,-0.428177174849936,NaN,750,0,1,congruent,0,6613.42660149919,6028.12221136349
73,104,1,109,0.5,0.5,0.5,1,4,0.4,4,534,0,1,NaN,0,0,0.6,NaN,-0.971925077042777,NaN,750,1,0,incongruent,0,8627.79347023858,5492.88358153422
73,104,1,110,0.5,-0.5,-0.5,3,3,0.2,3,842,1,0,842,0,0,0.4,NaN,1.49093306818362,1.49093306818362,750,1,0,congruent,0,2157.31841025725,3750.9465407222
73,104,1,111,-0.5,0.5,-0.5,1,1,0.2,1,427,1,1,427,1,0,0.4,0.4,-1.82752839372857,-1.82752839372857,750,1,0,congruent,0.1,3868.47414897035,6389.10966617632
73,104,1,112,-0.5,-0.5,-0.5,4,4,0.4,4,505,1,1,505,1,0,0.6,0.6,-1.20381756474267,-1.20381756474267,750,1,0,congruent,0.1,7824.50987781642,2509.77392789111
73,104,1,113,0.5,0.5,0,3,NaN,0.4,3,689,1,1,689,1,0,0.4,NaN,0.267500288249728,0.267500288249728,750,0,0,neutral,1,11462.644786086,8386.19735649418
73,104,1,114,0.5,0.5,-0.5,1,1,0.4,1,648,1,1,648,1,0,0.8,NaN,-0.0603477116018382,-0.0603477116018382,750,1,0,congruent,1,16039.055924773,3775.39891675026
73,104,1,115,0.5,0.5,0.5,4,2,0.6,3,817,0,0,NaN,0,0,1.2,NaN,1.29102575120096,NaN,750,0,1,incongruent,0,15502.8636131434,7291.60178552521
73,104,1,116,0.5,-0.5,0.5,2,1,0.6,2,749,1,1,749,0,0,1.2,NaN,0.747277849008117,0.747277849008117,750,0,0,incongruent,0,11900.5785132936,6404.81407858167
73,104,1,117,0.5,0.5,0,3,NaN,0.6,2,701,0,1,NaN,0,0,1,NaN,0.363455800401405,NaN,750,0,1,neutral,0,7827.4982671372,11944.5581970593
73,104,1,118,0.5,0.5,0.5,2,4,0.6,4,489,0,1,NaN,0,0,0.8,NaN,-1.33175824761157,NaN,750,1,0,incongruent,0,5973.38394498664,3661.1140213014
73,104,1,119,-0.5,-0.5,-0.5,1,1,0.4,1,480,1,1,480,0,0,0.4,0.6,-1.40372488172533,-1.40372488172533,750,1,0,congruent,0,6024.98419767582,1090.62841160147
73,104,1,120,-0.5,-0.5,-0.5,4,4,0.4,4,772,1,0,772,0,0,0,0.4,0.931192580632166,0.931192580632166,750,1,0,congruent,0,1925.64533547754,4937.77801268886
73,104,1,121,-0.5,0.5,0.5,3,2,0.4,3,700,1,1,700,1,0,0,0.6,0.355459507722099,0.355459507722099,750,0,0,incongruent,0.1,11309.0182555718,3338.34861160785
73,104,1,122,-0.5,-0.5,0,4,NaN,0.4,3,695,0,1,NaN,0,0,0.2,0.4,0.315478044325566,NaN,750,0,1,neutral,0,1282.69324431603,5836.31229451068
73,104,1,123,-0.5,-0.5,-0.5,2,2,0.4,2,579,1,1,579,0,0,0.2,0.2,-0.612091906473985,-0.612091906473985,750,1,0,congruent,0,14176.5145357702,4519.06234166129
73,104,1,124,0.5,-0.5,0.5,4,3,0.4,4,866,1,0,866,0,0,0.2,NaN,1.68284409248697,1.68284409248697,750,0,0,incongruent,0,2054.20784329468,3460.38793017211
73,104,1,125,-0.5,0.5,0,3,NaN,0.4,3,587,1,1,587,1,0,0.2,0.8,-0.548121565039534,-0.548121565039534,750,0,0,neutral,0.1,10978.8340457337,2217.34046757775
73,104,1,126,0.5,0.5,-0.5,4,4,0.4,4,504,1,1,504,1,0,0.4,NaN,-1.21181385742197,-1.21181385742197,750,1,0,congruent,1,2252.14599714891,1972.1548144909
73,104,1,128,0.5,0.5,0,3,NaN,0.6,3,848,1,0,848,0,0,0.6,NaN,1.53891082425946,1.53891082425946,750,0,0,neutral,0,7351.48341881704,2775.89108443507
73,104,1,129,-0.5,0.5,0.5,4,3,0.6,2,373,0,1,NaN,0,0,0.6,0.8,-2.25932819841112,NaN,750,0,1,incongruent,0,8653.3918908472,4973.49862744218
73,104,1,130,0.5,0.5,-0.5,2,2,0.4,3,994,0,0,NaN,0,0,0.6,NaN,2.7063695554382,NaN,750,0,1,congruent,0,5419.02284701715,2873.3658106626
73,104,1,131,0.5,0.5,-0.5,4,4,0.2,4,595,1,1,595,1,0,0.4,NaN,-0.484151223605082,-0.484151223605082,750,1,0,congruent,1,12005.8509123547,2755.06547173323
73,104,1,132,-0.5,-0.5,0,2,NaN,0.2,2,679,1,1,679,0,0,0.4,0.2,0.187537361456663,0.187537361456663,750,0,0,neutral,0,7220.87109556486,2888.37248418399
73,104,1,133,0.5,0.5,0.5,3,2,0.2,3,679,1,1,679,1,0,0.4,NaN,0.187537361456663,0.187537361456663,750,0,0,incongruent,1,5233.53830530809,3598.1561205018
73,104,1,134,0.5,0.5,-0.5,4,4,0.4,4,522,1,1,522,1,0,0.8,NaN,-1.06788058919445,-1.06788058919445,750,1,0,congruent,1,6584.33730484284,1749.13682185208
73,104,1,135,-0.5,-0.5,0.5,1,2,0.6,1,719,1,1,719,1,0,1.2,0,0.507389068628922,0.507389068628922,750,0,0,incongruent,0.1,9704.63435242365,3969.13433357252
73,104,1,136,0.5,-0.5,0,2,NaN,0.6,2,644,1,1,644,0,0,1.4,NaN,-0.0923328823190641,-0.0923328823190641,750,0,0,neutral,0,2827.32140833924,2015.60817896812
73,104,1,137,0.5,0.5,-0.5,1,1,0.6,1,647,1,1,647,1,0,1,NaN,-0.0683440042811447,-0.0683440042811447,750,1,0,congruent,1,8175.53688979963,1416.14465166613
73,104,1,138,-0.5,-0.5,0.5,4,2,0.8,4,789,1,0,789,1,0,1.4,0.2,1.06712955618038,1.06712955618038,750,0,0,incongruent,0.1,4950.96028272686,12227.1606362067
73,104,1,139,-0.5,0.5,0,2,NaN,0.8,2,605,1,1,605,1,0,1.2,0.6,-0.404188296812017,-0.404188296812017,750,0,0,neutral,0.1,4739.2325250177,3037.89785813807
73,104,1,140,-0.5,0.5,-0.5,1,1,1,1,642,1,1,642,1,0,1,0.6,-0.108325467677677,-0.108325467677677,750,1,0,congruent,0.1,3252.19747437454,6312.84169903552
73,104,1,141,-0.5,0.5,0,3,NaN,1,2,610,0,1,NaN,0,0,1,0.6,-0.364206833415484,NaN,750,0,1,neutral,0,6989.84314778777,5059.07268540815
73,104,1,142,-0.5,-0.5,-0.5,2,2,0.8,2,706,1,1,706,1,0,1,0.4,0.403437263797938,0.403437263797938,750,1,0,congruent,0.1,6699.75678835827,15499.2627791094
73,104,1,143,-0.5,0.5,0.5,1,3,0.8,1,544,1,1,544,1,0,0.8,0.4,-0.891962150249712,-0.891962150249712,750,0,0,incongruent,0.1,6753.900758516,4810.37009574075
73,104,1,144,-0.5,0.5,0,2,NaN,0.8,2,614,1,1,614,1,0,0.8,0.6,-0.332221662698259,-0.332221662698259,750,0,0,neutral,0.1,7814.1119822236,1994.52268357361
73,104,1,145,-0.5,0.5,-0.5,1,1,0.8,1,756,1,0,756,0,0,0.8,0.8,0.803251897763262,0.803251897763262,750,1,0,congruent,0,2036.92544789642,7829.49988040329
73,104,1,146,0.5,0.5,-0.5,2,2,0.6,2,636,1,1,636,1,0,0.6,NaN,-0.156303223753516,-0.156303223753516,750,1,0,congruent,1,4407.348766907,1790.23298990793
73,104,1,147,-0.5,0.5,0.5,4,3,0.6,4,661,1,1,661,1,0,1,0.6,0.0436040932291461,0.0436040932291461,750,0,0,incongruent,0.1,2852.9277200625,1299.22912553896
73,104,1,148,-0.5,0.5,-0.5,2,2,0.8,2,638,1,1,638,1,0,1,0.6,-0.140310638394903,-0.140310638394903,750,1,0,congruent,0.1,8047.79636315569,5802.8942408464
73,104,1,149,0.5,-0.5,0,3,NaN,0.8,1,685,0,1,NaN,1,0,1,NaN,0.235515117532502,NaN,750,0,1,neutral,1,8103.53069565538,3365.86322176246
73,104,1,150,0.5,-0.5,-0.5,2,2,0.8,2,629,1,1,629,1,0,1.2,NaN,-0.212277272508661,-0.212277272508661,750,1,0,congruent,1,2484.15913657553,8345.58790794078
73,104,2,151,0.5,0.5,0,4,NaN,0.8,4,793,1,0,793,0,0,1.6,NaN,1.0991147268976,1.0991147268976,750,0,0,neutral,0,4539.0678996621,1878.78955850466
73,104,2,152,0.5,-0.5,0.5,3,1,0.6,3,763,1,0,763,1,0,1.2,NaN,0.859225946518407,0.859225946518407,750,0,0,incongruent,1,3753.62023570129,6854.41111949951
73,104,2,153,-0.5,-0.5,-0.5,2,2,0.6,2,626,1,1,626,0,0,1.4,0.6,-0.236266150546581,-0.236266150546581,750,1,0,congruent,0,2530.57477808523,3246.67011008483
73,104,2,154,-0.5,0.5,0,1,NaN,0.6,2,552,0,1,NaN,0,0,1.2,0.8,-0.82799180881526,NaN,750,0,1,neutral,0,7742.47239987185,2537.05123225427
73,104,2,155,-0.5,-0.5,0.5,4,2,0.6,4,686,1,1,686,1,0,0.8,0.6,0.243511410211808,0.243511410211808,750,0,0,incongruent,0.1,1265.68746554767,10617.3096134614
73,104,2,156,0.5,-0.5,0.5,2,1,0.6,2,800,1,0,800,0,0,0.6,NaN,1.15508877565275,1.15508877565275,750,0,0,incongruent,0,6261.47806503913,6048.63990474995
73,104,2,158,-0.5,0.5,-0.5,3,3,0.4,3,808,1,0,808,0,0,0.2,0.6,1.2190591170872,1.2190591170872,750,1,0,congruent,0,2713.88301480678,3206.15893824632
73,104,2,160,-0.5,0.5,-0.5,3,3,0,3,677,1,1,677,1,0,0.2,0.4,0.17154477609805,0.17154477609805,750,1,0,congruent,0.1,3286.0046389784,7089.52225172678
73,104,2,162,0.5,-0.5,-0.5,3,3,0.2,3,809,1,0,809,0,0,0.2,NaN,1.22705540976651,1.22705540976651,750,1,0,congruent,0,4146.49116515037,6786.03862358112
73,104,2,163,0.5,0.5,0,4,NaN,0.2,4,709,1,1,709,1,0,0.2,NaN,0.427426141835857,0.427426141835857,750,0,0,neutral,1,7428.56590010672,8458.61992589946
73,104,2,164,0.5,-0.5,-0.5,1,1,0.4,1,626,1,1,626,0,0,0.6,NaN,-0.236266150546581,-0.236266150546581,750,1,0,congruent,0,4983.95361622458,1923.72710520051
73,104,2,165,-0.5,0.5,0,3,NaN,0.4,2,770,0,0,NaN,0,0,0.6,0.4,0.915199995273553,NaN,750,0,1,neutral,0,8886.2363484061,5811.98031204556
73,104,2,166,0.5,-0.5,-0.5,4,4,0.4,4,551,1,1,551,1,0,0.4,NaN,-0.835988101494567,-0.835988101494567,750,1,0,congruent,1,3021.9530964824,3105.18556552278
73,104,2,167,-0.5,0.5,0.5,1,3,0.4,1,603,1,1,603,1,0,0.8,0.2,-0.42018088217063,-0.42018088217063,750,0,0,incongruent,0.1,13316.1979804828,3731.74875686661
73,104,2,168,0.5,0.5,-0.5,4,4,0.6,3,767,0,0,NaN,0,0,1,NaN,0.891211117235633,NaN,750,0,1,congruent,0,3637.67542277738,4730.54476926534
73,104,2,169,0.5,-0.5,-0.5,3,3,0.6,3,669,1,1,669,1,0,0.6,NaN,0.107574434663598,0.107574434663598,750,1,0,congruent,1,2937.72766182415,14924.5127418182
73,104,2,170,-0.5,0.5,0.5,4,1,0.6,4,828,1,0,828,0,0,1,0.4,1.37898497067333,1.37898497067333,750,0,0,incongruent,0,3193.9710787149,7103.72061483556
73,104,2,171,-0.5,-0.5,0.5,1,2,0.4,1,705,1,1,705,1,0,1,0.8,0.395440971118631,0.395440971118631,750,0,0,incongruent,0.1,3502.77628328236,5228.76133045732
73,104,2,172,-0.5,0.5,-0.5,3,3,0.4,4,644,0,1,NaN,0,0,0.8,0.4,-0.0923328823190641,NaN,750,0,1,congruent,0,3680.59250774965,4366.81603837837
73,104,2,173,-0.5,0.5,0,4,NaN,0.2,2,651,0,1,NaN,0,0,0.6,0.4,-0.0363588335639187,NaN,750,0,1,neutral,0,11847.6530271925,12975.2125977535
73,104,2,174,0.5,0.5,0.5,2,3,0.2,2,798,1,0,798,0,0,0.6,NaN,1.13909619029413,1.13909619029413,750,0,0,incongruent,0,4121.38140118766,9295.1310119465
73,104,2,175,-0.5,0.5,-0.5,4,4,0,4,616,1,1,616,1,0,0.2,0.2,-0.316229077339646,-0.316229077339646,750,1,0,congruent,0.1,5654.12213618757,3839.94419946257
73,104,2,176,0.5,-0.5,0.5,1,2,0.2,1,582,1,1,582,0,0,0.4,NaN,-0.588103028436066,-0.588103028436066,750,0,0,incongruent,0,5454.53280847732,4121.18207740444
73,104,2,177,-0.5,0.5,0.5,2,3,0.2,4,630,0,1,NaN,0,0,0.2,0.4,-0.204280979829355,NaN,750,0,1,incongruent,0,3860.8324549998,2860.3178866954
73,104,2,178,-0.5,0.5,0,3,NaN,0.2,2,593,0,1,NaN,0,0,0.2,0.2,-0.500143808963695,NaN,750,0,1,neutral,0,13921.0140208804,1482.47400681509
73,104,2,179,0.5,-0.5,-0.5,2,2,0.2,2,729,1,1,729,0,0,0.2,NaN,0.587351995421987,0.587351995421987,750,1,0,congruent,0,5399.81360242595,8324.60984302361
73,104,2,180,-0.5,0.5,-0.5,1,1,0.2,1,582,1,1,582,1,0,0.2,0.2,-0.588103028436066,-0.588103028436066,750,1,0,congruent,0.1,3352.15184947046,4690.92632178887
73,104,2,181,-0.5,0.5,0,4,NaN,0.4,4,745,1,1,745,1,0,0.2,0.4,0.715292678290891,0.715292678290891,750,0,0,neutral,0.1,4546.90580544898,2383.39102538429
73,104,2,182,0.5,0.5,-0.5,2,2,0.6,3,818,0,0,NaN,0,0,0.4,NaN,1.29902204388026,NaN,750,0,1,congruent,0,5786.77797622365,8305.28186158389
73,104,2,183,-0.5,-0.5,0.5,1,4,0.4,1,689,1,1,689,0,0,0.4,0.8,0.267500288249728,0.267500288249728,750,0,0,incongruent,0,3303.90727801956,2300.48197360412
73,104,2,184,0.5,-0.5,-0.5,2,2,0.4,2,729,1,1,729,0,0,0.4,NaN,0.587351995421987,0.587351995421987,750,1,0,congruent,0,8224.43551152563,6922.0282322938
73,104,2,186,0.5,-0.5,-0.5,2,2,0.4,2,588,1,1,588,0,0,0.4,NaN,-0.540125272360227,-0.540125272360227,750,1,0,congruent,0,2449.67943144401,3154.55538759793
73,104,2,187,0.5,0.5,0,3,NaN,0.4,2,577,0,1,NaN,0,0,0.2,NaN,-0.628084491832598,NaN,750,0,1,neutral,0,7369.22453558923,4071.88865928344
73,104,2,188,0.5,0.5,-0.5,2,2,0.4,2,499,1,1,499,1,0,0.2,NaN,-1.2517953208185,-1.2517953208185,750,1,0,congruent,1,2258.98567331088,2189.05336367581
73,104,2,189,-0.5,0.5,0.5,3,1,0.6,1,642,0,1,NaN,0,0,0.6,0.6,-0.108325467677677,NaN,750,1,0,incongruent,0,5648.61809963365,2704.21086260461
73,104,2,190,-0.5,0.5,0.5,1,2,0.4,1,709,1,1,709,1,0,0.6,0.4,0.427426141835857,0.427426141835857,750,0,0,incongruent,0.1,4603.1387118733,3075.64031907839
73,104,2,191,-0.5,-0.5,0.5,3,4,0.4,3,946,1,0,946,0,0,0.6,0.6,2.32254750683149,2.32254750683149,750,0,0,incongruent,0,7187.07289893147,5502.71071103582
73,104,2,192,0.5,-0.5,0,4,NaN,0.4,4,622,1,1,622,1,0,0.6,NaN,-0.268251321263807,-0.268251321263807,750,0,0,neutral,1,2835.53685957471,4828.6792017394
73,104,2,193,0.5,-0.5,-0.5,2,2,0.4,3,831,0,0,NaN,1,0,1,NaN,1.40297384871125,NaN,750,0,1,congruent,1,5252.7228511081,8638.50983865031
73,104,2,194,0.5,-0.5,-0.5,3,3,0.4,3,837,1,0,837,1,0,1,NaN,1.45095160478709,1.45095160478709,750,1,0,congruent,1,12359.8392606204,15927.8729349206
73,104,2,195,0.5,-0.5,0.5,2,4,0.4,4,693,0,1,NaN,1,0,1.4,NaN,0.299485458966953,NaN,750,1,0,incongruent,1,2386.03964968092,1836.60540810659
73,104,2,196,0.5,-0.5,-0.5,1,1,0.4,1,639,1,1,639,0,0,1.6,NaN,-0.132314345715597,-0.132314345715597,750,1,0,congruent,0,3805.18420931512,2881.89335969159
73,104,2,197,0.5,-0.5,0,4,NaN,0.4,4,797,1,0,797,1,0,1.6,NaN,1.13109989761483,1.13109989761483,750,0,0,neutral,1,2768.02647149286,8582.69370694476
73,104,2,198,0.5,-0.5,-0.5,1,1,0.4,1,662,1,1,662,0,0,1.6,NaN,0.0516003859084526,0.0516003859084526,750,1,0,congruent,0,4345.17752273551,10555.4915150333
73,104,2,199,-0.5,0.5,0.5,4,3,0.4,4,608,1,1,608,1,0,1.2,0.6,-0.380199418774097,-0.380199418774097,750,0,0,incongruent,0.1,4776.92814725462,4545.75887350815
73,104,2,200,-0.5,0.5,-0.5,1,1,0.6,1,721,1,1,721,1,0,1,0.8,0.523381653987535,0.523381653987535,750,1,0,congruent,0.1,4574.35667379572,3672.41041985062
73,104,2,201,-0.5,0.5,0,3,NaN,0.8,4,829,0,0,NaN,0,0,0.8,0.8,1.38698126335264,NaN,750,0,1,neutral,0,6078.82789253139,3927.02922152925
73,104,2,202,-0.5,0.5,-0.5,4,4,0.6,4,536,1,1,536,1,0,0.8,0.6,-0.955932491684164,-0.955932491684164,750,1,0,congruent,0.1,2379.52144738193,8195.58085183165
73,104,2,203,0.5,-0.5,0.5,1,3,0.8,1,697,1,1,697,1,0,0.6,NaN,0.331470629684179,0.331470629684179,750,0,0,incongruent,1,1315.7394730517,3249.94536829794
73,104,2,205,-0.5,-0.5,0.5,1,4,0.6,1,624,1,1,624,0,0,0.8,0.6,-0.252258735905194,-0.252258735905194,750,0,0,incongruent,0,1921.33114109914,346.341647419947
73,104,2,206,-0.5,0.5,-0.5,2,2,0.6,2,656,1,1,656,1,0,0.6,0.6,0.00362262983261367,0.00362262983261367,750,1,0,congruent,0.1,8849.14435981514,5694.45269108265
73,104,2,208,0.5,-0.5,-0.5,4,4,0.4,2,482,0,1,NaN,0,0,0.6,NaN,-1.38773229636671,NaN,750,0,1,congruent,0,2537.48718860229,2939.55363096618
73,104,2,209,0.5,0.5,0,3,NaN,0.4,2,610,0,1,NaN,0,0,0.2,NaN,-0.364206833415484,NaN,750,0,1,neutral,0,1618.60151581243,2060.63161708436
73,104,2,210,-0.5,0.5,-0.5,2,2,0.4,2,595,1,1,595,1,0,0.2,0.4,-0.484151223605082,-0.484151223605082,750,1,0,congruent,0.1,3293.97673509165,6054.30934714526
73,104,2,211,0.5,-0.5,0.5,4,1,0.4,4,838,1,0,838,1,0,0.4,NaN,1.45894789746639,1.45894789746639,750,0,0,incongruent,1,6140.77673139874,3976.29438267399
73,104,2,213,-0.5,0.5,0.5,4,1,0.4,4,676,1,1,676,1,0,0.6,0.6,0.163548483418743,0.163548483418743,750,0,0,incongruent,0.1,3392.02890462017,11239.9773381637
73,104,2,214,-0.5,0.5,0.5,1,2,0.4,2,510,0,1,NaN,0,0,0.8,0.6,-1.16383610134613,NaN,750,1,0,incongruent,0,1354.91326028785,5071.63235530567
73,104,2,216,-0.5,0.5,0.5,4,2,0.4,4,561,1,1,561,1,0,0.6,0.6,-0.756025174701502,-0.756025174701502,750,0,0,incongruent,0.1,7302.70221662734,3507.64194535932
73,104,2,217,-0.5,0.5,0,1,NaN,0.4,1,717,1,1,717,1,0,0.4,0.6,0.491396483270309,0.491396483270309,750,0,0,neutral,0.1,1597.43446775296,2971.85524141144
73,104,2,218,0.5,-0.5,0.5,2,3,0.6,4,569,0,1,NaN,0,0,0.6,NaN,-0.69205483326705,NaN,750,0,1,incongruent,0,7227.92234712825,5194.81140091962
73,104,2,219,-0.5,-0.5,0.5,1,4,0.6,1,841,1,0,841,0,0,0.4,0.4,1.48293677550431,1.48293677550431,750,0,0,incongruent,0,1592.12538155963,5462.59867943326
73,104,2,220,-0.5,-0.5,0,3,NaN,0.6,3,854,1,0,854,1,0,0.4,0.2,1.5868885803353,1.5868885803353,750,0,0,neutral,0.1,4862.47297614126,4525.8461819629
73,104,2,221,-0.5,0.5,0.5,1,3,0.6,1,527,1,1,527,1,0,0.6,0.8,-1.02789912579792,-1.02789912579792,750,0,0,incongruent,0.1,3962.47297310514,3094.23321177247
73,104,2,222,-0.5,0.5,0.5,4,1,0.6,4,582,1,1,582,1,0,0.6,0.8,-0.588103028436066,-0.588103028436066,750,0,0,incongruent,0.1,6611.10981896641,10699.1640653082
73,104,2,224,0.5,-0.5,-0.5,4,4,0.8,4,472,1,1,472,0,0,0.6,NaN,-1.46769522315978,-1.46769522315978,750,1,0,congruent,0,6568.01918379662,1748.58304479704
73,104,2,225,0.5,-0.5,-0.5,1,1,0.8,1,515,1,1,515,0,0,0.6,NaN,-1.1238546379496,-1.1238546379496,750,1,0,congruent,0,4485.61498236898,4080.65177620748
73,104,2,226,-0.5,0.5,0,2,NaN,0.8,2,638,1,1,638,1,0,0.4,0.8,-0.140310638394903,-0.140310638394903,750,0,0,neutral,0.1,2446.65966047285,1782.2731286623
73,104,2,227,-0.5,-0.5,0.5,1,4,0.8,1,623,1,1,623,1,0,0.4,0.4,-0.2602550285845,-0.2602550285845,750,0,0,incongruent,0.1,3828.45331457754,2685.81931519951
73,104,2,228,0.5,0.5,0.5,3,1,0.8,3,821,1,0,821,0,0,0.4,NaN,1.32301092191818,1.32301092191818,750,0,0,incongruent,0,6842.55699800099,3349.2792686781
73,104,2,229,0.5,0.5,0,2,NaN,0.6,2,723,1,1,723,1,0,0.4,NaN,0.539374239346148,0.539374239346148,750,0,0,neutral,1,10121.2091498833,11738.6006459634
73,104,2,230,0.5,-0.5,-0.5,4,4,0.6,4,654,1,1,654,1,0,0.8,NaN,-0.0123699555259993,-0.0123699555259993,750,1,0,congruent,1,3394.42389023914,3917.02284929591
73,104,2,231,-0.5,-0.5,0.5,2,3,0.6,2,613,1,1,613,1,0,1.2,0.4,-0.340217955377565,-0.340217955377565,750,0,0,incongruent,0.1,4864.62576294805,2598.65043662392
73,104,2,232,0.5,-0.5,-0.5,4,4,0.6,4,666,1,1,666,1,0,1.2,NaN,0.0835855566256785,0.0835855566256785,750,1,0,congruent,1,4934.49994336765,15880.6433643424
73,104,2,233,0.5,-0.5,0.5,3,1,0.6,1,499,0,1,NaN,0,0,1.4,NaN,-1.2517953208185,NaN,750,1,0,incongruent,0,12295.5852361193,2870.05534017555
73,104,2,234,0.5,0.5,0.5,1,4,0.6,2,732,0,1,NaN,0,0,1.4,NaN,0.611340873459906,NaN,750,0,1,incongruent,0,2923.05344823436,14155.3090898131
73,104,2,235,-0.5,0.5,0,4,NaN,0.4,4,684,1,1,684,1,0,1,1,0.227518824853195,0.227518824853195,750,0,0,neutral,0.1,4534.05962263258,3155.83237718972
73,104,2,236,-0.5,-0.5,0.5,1,4,0.6,1,447,1,1,447,0,0,0.8,0.6,-1.66760254014244,-1.66760254014244,750,0,0,incongruent,0,7499.32251704047,5812.70829178076
73,104,2,237,0.5,-0.5,-0.5,2,2,0.6,2,552,1,1,552,1,0,0.6,NaN,-0.82799180881526,-0.82799180881526,750,1,0,congruent,1,10814.5584738493,3210.21074384581
73,104,2,238,0.5,-0.5,0.5,1,4,0.6,1,518,1,1,518,1,0,0.6,NaN,-1.09986575991168,-1.09986575991168,750,0,0,incongruent,1,1428.50424696966,1036.34008596628
73,104,2,239,-0.5,-0.5,0,4,NaN,0.6,4,572,1,1,572,1,0,1,0.6,-0.668065955229131,-0.668065955229131,750,0,0,neutral,0.1,10111.71672744,2518.94254180392
73,104,2,240,0.5,0.5,-0.5,3,3,0.6,3,609,1,1,609,1,0,1.2,NaN,-0.372203126094791,-0.372203126094791,750,1,0,congruent,1,7522.00487571514,4565.27761892993
73,104,2,241,-0.5,-0.5,0.5,1,4,0.6,1,613,1,1,613,1,0,1.4,0.8,-0.340217955377565,-0.340217955377565,750,0,0,incongruent,0.1,4135.68621029645,4607.70765544065
73,104,2,242,0.5,-0.5,-0.5,3,3,0.6,3,679,1,1,679,1,0,1.6,NaN,0.187537361456663,0.187537361456663,750,1,0,congruent,1,1412.91251111249,4925.70965563313
73,104,2,243,-0.5,0.5,0.5,1,2,0.6,1,810,1,0,810,0,0,1.6,1,1.23505170244581,1.23505170244581,750,0,0,incongruent,0,1242.72569922496,2403.7621005258
73,104,2,244,0.5,0.5,0.5,3,1,0.6,1,627,0,1,NaN,0,0,1.2,NaN,-0.228269857867274,NaN,750,1,0,incongruent,0,21923.3067322663,10907.4858934456
73,104,2,245,0.5,0.5,-0.5,4,4,0.4,4,719,1,1,719,1,0,1,NaN,0.507389068628922,0.507389068628922,750,1,0,congruent,1,4663.88831523172,10496.5332569555
73,104,2,247,-0.5,-0.5,-0.5,1,1,0.4,1,517,1,1,517,0,0,0.8,0.8,-1.10786205259099,-1.10786205259099,750,1,0,congruent,0,4899.1817806633,3601.47059844107
73,104,2,248,0.5,0.5,-0.5,4,4,0.4,4,577,1,1,577,1,0,0.4,NaN,-0.628084491832598,-0.628084491832598,750,1,0,congruent,1,2722.7935961448,3886.53262767747
73,104,2,249,-0.5,-0.5,0.5,3,1,0.4,3,806,1,0,806,0,0,0.8,0.6,1.20306653172859,1.20306653172859,750,0,0,incongruent,0,2872.92044473968,2134.83826086575
73,104,2,250,-0.5,0.5,0,1,NaN,0.4,1,563,1,1,563,1,0,0.8,0.6,-0.740032589342889,-0.740032589342889,750,0,0,neutral,0.1,6887.65891082103,1305.07812129641
73,104,2,251,-0.5,0.5,-0.5,4,4,0.6,4,544,1,1,544,1,0,0.6,0.6,-0.891962150249712,-0.891962150249712,750,1,0,congruent,0.1,6372.22975779404,3368.57117669235
73,104,2,252,-0.5,0.5,0,1,NaN,0.8,1,482,1,1,482,1,0,0.8,0.6,-1.38773229636671,-1.38773229636671,750,0,0,neutral,0.1,9050.1414091197,6180.55713187129
73,104,2,253,-0.5,0.5,-0.5,4,4,0.8,4,553,1,1,553,1,0,1,0.6,-0.819995516135954,-0.819995516135954,750,1,0,congruent,0.1,3301.65291998802,6232.0309699366
73,104,2,254,-0.5,-0.5,-0.5,3,3,1,4,576,0,1,NaN,1,0,0.8,0.4,-0.636080784511905,NaN,750,0,1,congruent,0.1,3699.50035292417,4375.99099051126
73,104,2,255,-0.5,-0.5,0,4,NaN,1,4,775,1,0,775,1,0,1,0.6,0.955181458670085,0.955181458670085,750,0,0,neutral,0.1,2165.86689914642,2978.73203581876
73,104,2,256,0.5,0.5,-0.5,3,3,1,3,726,1,1,726,1,0,1,NaN,0.563363117384067,0.563363117384067,750,1,0,congruent,1,1740.87043376572,3255.41859358192
73,104,2,257,-0.5,-0.5,-0.5,1,1,1,2,586,0,1,NaN,1,0,1.2,0.6,-0.55611785771884,NaN,750,0,1,congruent,0.1,2046.93160491946,4113.27189604187
73,104,2,258,0.5,0.5,0.5,2,3,1,3,709,0,1,NaN,0,0,1.2,NaN,0.427426141835857,NaN,750,1,0,incongruent,0,12240.5312024944,4138.29040270248
73,104,2,259,0.5,0.5,0.5,1,4,0.8,1,802,1,0,802,0,0,1,NaN,1.17108136101136,1.17108136101136,750,0,0,incongruent,0,3439.78662138031,11256.3348629733
73,104,2,260,-0.5,-0.5,0,4,NaN,0.6,3,356,0,1,NaN,1,0,0.8,0.6,-2.39526517395933,NaN,750,0,1,neutral,0.1,11291.2348004474,4227.81996397915
73,104,2,261,0.5,0.5,0.5,3,2,0.6,3,916,1,0,916,0,0,0.8,NaN,2.0826587264523,2.0826587264523,750,0,0,incongruent,0,988.995017713075,960.950967565212
73,104,2,262,-0.5,0.5,0,4,NaN,0.4,4,584,1,1,584,1,0,0.4,0.8,-0.572110443077453,-0.572110443077453,750,0,0,neutral,0.1,9850.16110387759,5691.2819106105
73,104,2,263,0.5,-0.5,-0.5,1,1,0.4,1,512,1,1,512,0,0,0.4,NaN,-1.14784351598752,-1.14784351598752,750,1,0,congruent,0,4228.35822226052,2244.88598081334
73,104,2,264,-0.5,-0.5,0,3,NaN,0.4,2,294,0,1,NaN,0,0,0.4,0.8,-2.89103532007633,NaN,750,0,1,neutral,0,12422.0096378334,1760.99257900725
73,104,2,265,0.5,0.5,-0.5,4,4,0.4,4,533,1,1,533,1,0,0.4,NaN,-0.979921369722084,-0.979921369722084,750,1,0,congruent,1,5204.22352917056,3023.42335673735
73,104,2,266,-0.5,0.5,0.5,2,3,0.4,2,824,1,0,824,0,0,0.6,1,1.3469997999561,1.3469997999561,750,0,0,incongruent,0,7023.65305374578,11735.9268799861
73,104,2,267,-0.5,-0.5,0,1,NaN,0.4,1,545,1,1,545,0,0,0.6,0.8,-0.883965857570406,-0.883965857570406,750,0,0,neutral,0,1498.02014339876,10051.5298305055
73,104,2,268,0.5,0.5,-0.5,3,3,0.4,3,859,1,0,859,0,0,0.4,NaN,1.62687004373183,1.62687004373183,750,1,0,congruent,0,12390.783524647,12844.0028020413
73,104,2,269,-0.5,-0.5,0.5,2,1,0.4,3,337,0,1,NaN,1,0,0.4,0.6,-2.54719473486615,NaN,750,0,1,incongruent,0.1,3105.30514425059,6799.72914411209
73,104,2,270,-0.5,0.5,-0.5,4,4,0.4,4,631,1,1,631,1,0,0.6,0.8,-0.196284687150048,-0.196284687150048,750,1,0,congruent,0.1,1698.3064898293,3357.43550568912
73,104,2,271,-0.5,-0.5,0.5,3,1,0.6,3,701,1,1,701,0,0,0.4,0.6,0.363455800401405,0.363455800401405,750,0,0,incongruent,0,2547.46332054762,4754.89896649581
73,104,2,272,0.5,-0.5,0.5,2,4,0.6,4,567,0,1,NaN,1,0,0.4,NaN,-0.708047418625663,NaN,750,1,0,incongruent,1,4330.09074538285,4263.48765164833
73,104,2,273,-0.5,-0.5,0.5,1,2,0.6,2,374,0,1,NaN,0,0,0.8,0.4,-2.25133190573181,NaN,750,1,0,incongruent,0,3990.68633390663,1861.60921111895
73,104,2,274,0.5,-0.5,0,2,NaN,0.6,2,646,1,1,646,1,0,0.8,NaN,-0.0763402969604512,-0.0763402969604512,750,0,0,neutral,1,9412.88267479353,12988.9742739813
73,104,2,275,0.5,-0.5,-0.5,3,3,0.6,3,634,1,1,634,1,0,1,NaN,-0.172295809112129,-0.172295809112129,750,1,0,congruent,1,4830.02228518831,7898.55498506225
73,104,2,276,0.5,-0.5,-0.5,1,1,0.6,1,800,1,0,800,0,0,1.2,NaN,1.15508877565275,1.15508877565275,750,1,0,congruent,0,4067.28110740852,7211.58847215889
73,104,2,277,0.5,0.5,-0.5,3,3,0.6,3,715,1,1,715,1,0,1.2,NaN,0.475403897911696,0.475403897911696,750,1,0,congruent,1,2167.59529373994,4675.00325806501
73,104,2,278,-0.5,0.5,-0.5,1,1,0.6,1,539,1,1,539,1,0,1.2,0.8,-0.931943613646245,-0.931943613646245,750,1,0,congruent,0.1,5641.08085903441,9309.09413434814
73,104,2,279,-0.5,-0.5,0.5,3,2,0.6,4,535,0,1,NaN,1,0,1.4,0.2,-0.963928784363471,NaN,750,0,1,incongruent,0.1,3605.68614197777,4411.36449441303
73,104,2,280,-0.5,-0.5,0.5,2,1,0.6,2,585,1,1,585,1,0,1.2,0.4,-0.564114150398147,-0.564114150398147,750,0,0,incongruent,0.1,8636.96913663773,3246.4727223809
73,104,2,281,-0.5,-0.5,0.5,1,2,0.6,1,628,1,1,628,1,0,1,0.6,-0.220273565187968,-0.220273565187968,750,0,0,incongruent,0.1,12505.4503024769,1369.7694501932
73,104,2,282,-0.5,-0.5,-0.5,3,3,0.6,3,547,1,1,547,1,0,1.2,0.6,-0.867973272211793,-0.867973272211793,750,1,0,congruent,0.1,9168.75491209985,3675.93161497975
73,104,2,283,-0.5,0.5,-0.5,4,4,0.6,4,599,1,1,599,1,0,1,0.8,-0.452166052887856,-0.452166052887856,750,1,0,congruent,0.1,3508.52166032861,11093.7702987355
73,104,2,284,0.5,-0.5,0.5,3,1,0.8,3,866,1,0,866,1,0,1,NaN,1.68284409248697,1.68284409248697,750,0,0,incongruent,1,1436.543792191,3789.50390682834
73,104,2,285,0.5,0.5,0.5,2,3,0.8,2,713,1,1,713,1,0,1.2,NaN,0.459411312553083,0.459411312553083,750,0,0,incongruent,1,8431.31239147986,5104.28127960168
73,104,2,286,-0.5,-0.5,0,1,NaN,1,2,406,0,1,NaN,1,0,1.4,0.8,-1.99545053999401,NaN,750,0,1,neutral,0.1,8413.26894660101,5386.46563355652
73,104,2,287,-0.5,0.5,0.5,2,3,1,2,711,1,1,711,1,0,1.4,0.8,0.44341872719447,0.44341872719447,750,0,0,incongruent,0.1,6303.92677407797,2552.98483492756
73,104,2,288,0.5,-0.5,0.5,3,1,1,1,601,0,1,NaN,1,0,1.4,NaN,-0.436173467529243,NaN,750,1,0,incongruent,1,5587.46038552491,5840.06184260987
73,104,2,289,-0.5,-0.5,-0.5,2,2,1,2,599,1,1,599,1,0,1.6,1,-0.452166052887856,-0.452166052887856,750,1,0,congruent,0.1,10421.5046883236,3480.90667998038
73,104,2,290,0.5,-0.5,0,1,NaN,1,1,562,1,1,562,1,0,1.4,NaN,-0.748028882022196,-0.748028882022196,750,0,0,neutral,1,2952.83999385367,6227.74330316635
73,104,2,291,-0.5,0.5,-0.5,2,2,1,3,706,0,1,NaN,0,0,1.4,0.8,0.403437263797938,NaN,750,0,1,congruent,0,7265.58222844521,4831.49604065785
73,104,2,292,-0.5,-0.5,0.5,3,1,0.8,2,706,0,1,NaN,1,0,1.2,1,0.403437263797938,NaN,750,0,1,incongruent,0.1,2721.20253111995,6583.16208970643
73,104,2,293,-0.5,0.5,0,1,NaN,0.8,1,477,1,1,477,1,0,1.2,0.8,-1.42771375976325,-1.42771375976325,750,0,0,neutral,0.1,7065.57677943024,5610.2451540353
73,104,2,294,0.5,-0.5,0.5,2,1,0.8,2,664,1,1,664,1,0,1,NaN,0.0675929712670655,0.0675929712670655,750,0,0,incongruent,1,4869.96826711531,3523.98189139679
73,104,2,295,0.5,-0.5,0,3,NaN,0.8,3,721,1,1,721,1,0,1.2,NaN,0.523381653987535,0.523381653987535,750,0,0,neutral,1,6814.88962154133,4597.88840793133
73,104,2,296,0.5,0.5,0.5,2,4,0.8,4,661,0,1,NaN,0,0,1.2,NaN,0.0436040932291461,NaN,750,1,0,incongruent,0,2458.95511290397,3084.24987206091
73,104,2,297,0.5,-0.5,0,3,NaN,0.6,3,858,1,0,858,1,0,1.2,NaN,1.61887375105252,1.61887375105252,750,0,0,neutral,1,4841.32326460385,3517.31099313594
73,104,2,298,0.5,0.5,0.5,4,2,0.6,4,711,1,1,711,1,0,1.4,NaN,0.44341872719447,0.44341872719447,750,0,0,incongruent,1,7890.04519735069,9370.06295891595
73,104,2,299,-0.5,0.5,-0.5,3,3,0.6,3,657,1,1,657,1,0,1.6,0.8,0.0116189225119202,0.0116189225119202,750,1,0,congruent,0.1,4558.78497372729,4659.75254397948
73,104,2,300,-0.5,0.5,-0.5,4,4,0.6,4,563,1,1,563,1,0,1.4,0.8,-0.740032589342889,-0.740032589342889,750,1,0,congruent,0.1,4429.36894938179,1780.99274513184
73,104,3,301,0.5,0.5,0.5,3,2,0.8,3,813,1,0,813,0,0,1.2,NaN,1.25904058048373,1.25904058048373,750,0,0,incongruent,0,3355.25635960143,3444.27868028279
73,104,3,302,-0.5,0.5,0,1,NaN,0.6,1,452,1,1,452,1,0,1.2,0.8,-1.62762107674591,-1.62762107674591,750,0,0,neutral,0.1,3089.19603796664,4724.69635318611
73,104,3,303,0.5,0.5,-0.5,2,2,0.8,3,592,0,1,NaN,0,0,1,NaN,-0.508140101643001,NaN,750,0,1,congruent,0,3588.08382913434,3433.05680909274
73,104,3,304,-0.5,0.5,-0.5,1,1,0.6,1,569,1,1,569,1,0,0.6,0.8,-0.69205483326705,-0.69205483326705,750,1,0,congruent,0.1,4103.08457669253,4337.63600924498
73,104,3,305,0.5,-0.5,-0.5,3,3,0.6,3,634,1,1,634,1,0,0.6,NaN,-0.172295809112129,-0.172295809112129,750,1,0,congruent,1,5729.41487893062,3377.80988974184
73,104,3,306,0.5,0.5,0,2,NaN,0.6,2,690,1,1,690,1,0,0.8,NaN,0.275496580929034,0.275496580929034,750,0,0,neutral,1,2402.96070307154,17474.3713564994
73,104,3,307,0.5,0.5,-0.5,4,4,0.6,4,532,1,1,532,1,0,1.2,NaN,-0.98791766240139,-0.98791766240139,750,1,0,congruent,1,7818.69610326784,1071.76892985671
73,104,3,308,0.5,-0.5,-0.5,3,3,0.8,3,568,1,1,568,1,0,1.4,NaN,-0.700051125946357,-0.700051125946357,750,1,0,congruent,1,12437.9819514612,4320.12688215163
73,104,3,309,0.5,-0.5,0.5,4,2,0.8,2,684,0,1,NaN,1,0,1.8,NaN,0.227518824853195,NaN,750,1,0,incongruent,1,9255.65230739279,6717.26360714937
73,104,3,310,0.5,-0.5,-0.5,1,1,0.8,1,541,1,1,541,1,0,2,NaN,-0.915951028287632,-0.915951028287632,750,1,0,congruent,1,2859.89213388592,4097.75854432913
73,104,3,311,-0.5,-0.5,-0.5,4,4,0.8,2,272,0,1,NaN,1,0,2,1,-3.06695375902108,NaN,750,0,1,congruent,0.1,7508.21063042379,2935.32010125154
73,104,3,312,-0.5,0.5,0,3,NaN,0.8,1,586,0,1,NaN,0,0,1.8,1,-0.55611785771884,NaN,750,0,1,neutral,0,3790.26442646567,12711.3999691555
73,104,3,313,-0.5,0.5,-0.5,2,2,0.6,2,875,1,0,875,0,0,1.4,0.8,1.75481072660073,1.75481072660073,750,1,0,congruent,0,3722.22570542066,3406.26930773846
73,104,3,314,0.5,-0.5,-0.5,4,4,0.6,4,700,1,1,700,1,0,1,NaN,0.355459507722099,0.355459507722099,750,1,0,congruent,1,9149.67370826933,9111.73161179537
73,104,3,316,0.5,0.5,0,4,NaN,0.4,4,632,1,1,632,1,0,0.6,NaN,-0.188288394470742,-0.188288394470742,750,0,0,neutral,1,12820.6044069037,2992.97090939712
73,104,3,317,0.5,0.5,-0.5,3,3,0.4,3,810,1,0,810,0,0,0.8,NaN,1.23505170244581,1.23505170244581,750,1,0,congruent,0,6491.24415771439,6420.43925530093
73,104,3,318,0.5,0.5,0,1,NaN,0.2,1,509,1,1,509,1,0,0.8,NaN,-1.17183239402544,-1.17183239402544,750,0,0,neutral,1,7043.40203336275,4276.40178332593
73,104,3,319,-0.5,-0.5,-0.5,3,3,0.4,4,612,0,1,NaN,0,0,1.2,1,-0.348214248056872,NaN,750,0,1,congruent,0,8623.41570658868,5832.08529410883
73,104,3,320,-0.5,-0.5,0.5,1,2,0.4,1,360,1,1,360,1,0,0.8,0.8,-2.3632800032421,-2.3632800032421,750,0,0,incongruent,0.1,7144.10302702203,7359.5480351122
73,104,3,321,-0.5,0.5,0.5,2,4,0.4,3,529,0,1,NaN,0,0,1,0.4,-1.01190654043931,NaN,750,0,1,incongruent,0,5216.49899238109,4022.16977164911
73,104,3,322,-0.5,-0.5,0,3,NaN,0.4,2,758,0,0,NaN,0,0,0.6,0.8,0.819244483121875,NaN,750,0,1,neutral,0,4940.37829945409,5787.09558036451
73,104,3,323,-0.5,0.5,-0.5,2,2,0.4,2,750,1,1,750,0,0,0.6,0.2,0.755274141687423,0.755274141687423,750,1,0,congruent,0,8075.9082486102,4155.87924342363
73,104,3,324,0.5,0.5,0.5,1,3,0.4,3,769,0,0,NaN,0,0,0.2,NaN,0.907203702594246,NaN,750,1,0,incongruent,0,4844.79952079826,6024.99155454675
73,104,3,325,-0.5,-0.5,0,2,NaN,0.2,1,378,0,1,NaN,0,0,0.2,0.6,-2.21934673501459,NaN,750,0,1,neutral,0,6964.65381921871,2584.44450622839
73,104,3,326,0.5,-0.5,-0.5,3,3,0.2,3,563,1,1,563,0,0,0,NaN,-0.740032589342889,-0.740032589342889,750,1,0,congruent,0,6699.13368063672,7161.58107083926
73,104,3,327,-0.5,-0.5,-0.5,1,1,0.2,2,344,0,1,NaN,1,0,0,0.4,-2.49122068611101,NaN,750,0,1,congruent,0.1,5292.50082205452,863.967960152991
73,104,3,328,-0.5,0.5,-0.5,3,3,0.2,3,556,1,1,556,1,0,0.2,0,-0.796006638098035,-0.796006638098035,750,1,0,congruent,0.1,4814.23970300741,3754.21901190521
73,104,3,329,-0.5,0.5,-0.5,4,4,0.4,4,607,1,1,607,1,0,0.4,0.2,-0.388195711453404,-0.388195711453404,750,1,0,congruent,0.1,7770.75185268056,2957.67142364798
73,104,3,330,0.5,0.5,0.5,1,3,0.4,1,357,1,1,357,1,0,0.6,NaN,-2.38726888128002,-2.38726888128002,750,0,0,incongruent,1,12966.495204889,1831.29305256674
73,104,3,331,0.5,0.5,0.5,2,1,0.6,3,884,0,0,NaN,0,0,1,NaN,1.82677736071449,NaN,750,0,1,incongruent,0,4726.37893922519,10490.8267842049
73,104,3,332,-0.5,-0.5,-0.5,3,3,0.6,3,566,1,1,566,1,0,1,0.4,-0.71604371130497,-0.71604371130497,750,1,0,congruent,0.1,7627.96673826807,5509.02169164387
73,104,3,333,0.5,0.5,0,2,NaN,0.6,3,787,0,0,NaN,0,0,1,NaN,1.05113697082176,NaN,750,0,1,neutral,0,5210.22314920892,2926.8999179124
73,104,3,334,-0.5,0.5,0.5,1,3,0.6,1,622,1,1,622,1,0,0.8,0.4,-0.268251321263807,-0.268251321263807,750,0,0,incongruent,0.1,5054.84464271828,11476.664295883
73,104,3,335,0.5,0.5,0.5,2,4,0.6,4,651,0,1,NaN,0,0,0.8,NaN,-0.0363588335639187,NaN,750,1,0,incongruent,0,3699.45455784411,9142.88336399739
73,104,3,336,0.5,-0.5,0,3,NaN,0.4,3,780,1,0,780,0,0,0.4,NaN,0.995162922066617,0.995162922066617,750,0,0,neutral,0,12457.8839698053,11389.1908779291
73,104,3,337,0.5,0.5,-0.5,2,2,0.4,3,649,0,1,NaN,0,0,0.4,NaN,-0.0523514189225317,NaN,750,0,1,congruent,0,1850.01500014551,3741.85357929456
73,104,3,338,0.5,-0.5,0,1,NaN,0.2,1,639,1,1,639,0,0,0.2,NaN,-0.132314345715597,-0.132314345715597,750,0,0,neutral,0,3559.80099142695,922.235654791429
73,104,3,339,0.5,0.5,0.5,3,2,0.2,3,686,1,1,686,1,0,0.2,NaN,0.243511410211808,0.243511410211808,750,0,0,incongruent,1,15697.7122368801,3231.93084923755
73,104,3,340,-0.5,0.5,-0.5,4,4,0.4,4,543,1,1,543,1,0,0.4,0.6,-0.899958442929019,-0.899958442929019,750,1,0,congruent,0.1,2913.72074812575,2561.13873239851
73,104,3,341,0.5,-0.5,0,2,NaN,0.6,4,869,0,0,NaN,1,0,0.6,NaN,1.70683297052489,NaN,750,0,1,neutral,1,3595.4794309346,10261.4980192838
73,104,3,342,-0.5,0.5,-0.5,3,3,0.6,3,699,1,1,699,1,0,1,0.8,0.347463215042792,0.347463215042792,750,1,0,congruent,0.1,9564.91957189052,4783.97734274258
73,104,3,343,0.5,-0.5,-0.5,1,1,0.6,3,298,0,1,NaN,1,0,1.2,NaN,-2.85905014935911,NaN,750,0,1,congruent,1,3545.86038167718,2333.2476055586
73,104,3,345,0.5,0.5,-0.5,2,2,0.6,1,478,0,1,NaN,0,0,1.2,NaN,-1.41971746708394,NaN,750,0,1,congruent,0,4312.66098843027,7065.25433060904
73,104,3,346,0.5,0.5,0,4,NaN,0.6,4,599,1,1,599,1,0,1,NaN,-0.452166052887856,-0.452166052887856,750,0,0,neutral,1,6181.00478343901,2261.56656313155
73,104,3,347,-0.5,-0.5,-0.5,3,3,0.6,3,622,1,1,622,1,0,1,0.6,-0.268251321263807,-0.268251321263807,750,1,0,congruent,0.1,12408.9584726829,2974.28202634337
73,104,3,349,-0.5,-0.5,0,4,NaN,0.6,3,585,0,1,NaN,0,0,0.8,0.8,-0.564114150398147,NaN,750,0,1,neutral,0,6824.27951717626,1722.68106964579
73,104,3,350,0.5,0.5,-0.5,3,3,0.6,3,631,1,1,631,1,0,0.8,NaN,-0.196284687150048,-0.196284687150048,750,1,0,congruent,1,6329.85043786434,2730.26589890648
73,104,3,351,-0.5,0.5,-0.5,2,2,0.6,1,700,0,1,NaN,0,0,1.2,0.8,0.355459507722099,NaN,750,0,1,congruent,0,4012.48284481102,4242.7832793464
73,104,3,352,-0.5,0.5,-0.5,3,3,0.4,3,677,1,1,677,1,0,0.8,0.6,0.17154477609805,0.17154477609805,750,1,0,congruent,0.1,5411.65486442816,3516.531813453
73,104,3,353,0.5,-0.5,0,2,NaN,0.6,3,624,0,1,NaN,1,0,0.8,NaN,-0.252258735905194,NaN,750,0,1,neutral,1,5592.4302331399,5607.91801204919
73,104,3,354,0.5,0.5,-0.5,3,3,0.6,3,585,1,1,585,1,0,1,NaN,-0.564114150398147,-0.564114150398147,750,1,0,congruent,1,5701.50053731746,3335.99092041831
73,104,3,355,-0.5,-0.5,0.5,1,4,0.8,1,781,1,0,781,1,0,1.4,0.8,1.00315921474592,1.00315921474592,750,0,0,incongruent,0.1,5107.08883805948,4840.78639952782
73,104,3,356,0.5,-0.5,0.5,4,1,0.8,4,725,1,1,725,1,0,1.2,NaN,0.555366824704761,0.555366824704761,750,0,0,incongruent,1,16642.8518372715,6793.54068148549
73,104,3,357,0.5,-0.5,0,2,NaN,0.8,2,661,1,1,661,1,0,1.6,NaN,0.0436040932291461,0.0436040932291461,750,0,0,neutral,1,4568.74910368889,8569.80021485579
73,104,3,358,-0.5,-0.5,-0.5,3,3,0.8,4,614,0,1,NaN,1,0,1.8,0.8,-0.332221662698259,NaN,750,0,1,congruent,0.1,1685.7772956881,8892.0261776378
73,104,3,359,-0.5,0.5,0.5,2,4,0.8,4,729,0,1,NaN,0,0,1.6,0.6,0.587351995421987,NaN,750,1,0,incongruent,0,25144.6634897547,2623.57546813335
73,104,3,360,-0.5,0.5,-0.5,3,3,0.6,3,599,1,1,599,1,0,1.2,0.4,-0.452166052887856,-0.452166052887856,750,1,0,congruent,0.1,6913.9892491202,2265.44801809807
73,104,3,361,-0.5,0.5,0,4,NaN,0.6,3,691,0,1,NaN,0,0,1.2,0.4,0.283492873608341,NaN,750,0,1,neutral,0,3956.12032795699,8333.28263442439
73,104,3,362,-0.5,-0.5,-0.5,1,1,0.6,2,607,0,1,NaN,1,0,0.8,0.8,-0.388195711453404,NaN,750,0,1,congruent,0.1,2608.20377434149,6049.7916838898
73,104,3,363,0.5,0.5,0,4,NaN,0.6,4,694,1,1,694,1,0,0.6,NaN,0.30748175164626,0.30748175164626,750,0,0,neutral,1,28685.9525227362,7729.11124460478
73,104,3,364,0.5,0.5,-0.5,1,1,0.6,1,580,1,1,580,1,0,0.8,NaN,-0.604095613794679,-0.604095613794679,750,1,0,congruent,1,4489.77003402253,2788.25892939671
73,104,3,365,0.5,0.5,0,3,NaN,0.6,3,648,1,1,648,1,0,1.2,NaN,-0.0603477116018382,-0.0603477116018382,750,0,0,neutral,1,4719.80460922674,6708.86733426792
73,104,3,366,0.5,-0.5,-0.5,4,4,0.8,4,491,1,1,491,1,0,1.4,NaN,-1.31576566225296,-1.31576566225296,750,1,0,congruent,1,4362.00696081126,3808.08154445028
73,104,3,367,0.5,0.5,0,1,NaN,0.8,1,694,1,1,694,1,0,1.8,NaN,0.30748175164626,0.30748175164626,750,0,0,neutral,1,4790.88033000139,3157.09150941122
73,104,3,368,-0.5,-0.5,-0.5,2,2,0.8,2,567,1,1,567,1,0,2,0.8,-0.708047418625663,-0.708047418625663,750,1,0,congruent,0.1,5364.16933040074,4660.45916083906
73,104,3,369,0.5,-0.5,0.5,4,3,0.8,4,667,1,1,667,1,0,1.8,NaN,0.091581849304985,0.091581849304985,750,0,0,incongruent,1,2337.89350456035,13686.7383920212
73,104,3,370,0.5,0.5,-0.5,2,2,0.8,2,629,1,1,629,1,0,1.8,NaN,-0.212277272508661,-0.212277272508661,750,1,0,congruent,1,9802.6456273672,3649.04898870941
73,104,3,371,-0.5,-0.5,-0.5,1,1,1,1,673,1,1,673,1,0,1.8,0.8,0.139559605380824,0.139559605380824,750,1,0,congruent,0.1,6535.73616617526,13257.1301458225
73,104,3,372,0.5,-0.5,0.5,3,4,1,3,754,1,0,754,1,0,1.6,NaN,0.787259312404649,0.787259312404649,750,0,0,incongruent,1,6279.98460671017,5937.93088639232
73,104,3,373,-0.5,0.5,0,1,NaN,1,1,640,1,1,640,1,0,1.6,0.4,-0.12431805303629,-0.12431805303629,750,0,0,neutral,0.1,4141.95185392194,5339.20464630821
73,104,3,374,0.5,-0.5,-0.5,4,4,1,4,492,1,1,492,1,0,1.6,NaN,-1.30776936957365,-1.30776936957365,750,1,0,congruent,1,724.844530457532,1465.82420560943
73,104,3,375,0.5,-0.5,0,1,NaN,1,1,550,1,1,550,1,0,1.6,NaN,-0.843984394173873,-0.843984394173873,750,0,0,neutral,1,21059.6816583495,30367.0049967584
73,104,3,376,0.5,0.5,0.5,3,1,1,3,950,1,0,950,0,0,1.6,NaN,2.35453267754872,2.35453267754872,750,0,0,incongruent,0,2160.99264722429,8282.44533524595
73,104,3,377,0.5,-0.5,0.5,2,4,0.8,4,850,0,0,NaN,1,0,1.4,NaN,1.55490340961807,NaN,750,1,0,incongruent,1,24650.5337486028,7356.22107682845
73,104,3,378,-0.5,-0.5,0,4,NaN,0.8,4,600,1,1,600,1,0,1.4,1,-0.444169760208549,-0.444169760208549,750,0,0,neutral,0.1,3904.79725881373,3558.8445395346
73,104,3,379,-0.5,-0.5,-0.5,2,2,0.8,3,597,0,1,NaN,1,0,1.4,1,-0.468158638246469,NaN,750,0,1,congruent,0.1,3286.41681604036,1799.88947364149
73,104,3,380,0.5,0.5,0,3,NaN,0.8,2,576,0,1,NaN,0,0,1.2,NaN,-0.636080784511905,NaN,750,0,1,neutral,0,20954.7939240296,3614.75029677782
73,104,3,381,-0.5,-0.5,0.5,4,1,0.6,3,324,0,1,NaN,0,0,0.8,1,-2.65114653969714,NaN,750,0,1,incongruent,0,6045.58957306051,2764.0941947092
73,104,3,382,-0.5,-0.5,-0.5,3,3,0.6,3,686,1,1,686,1,0,0.8,0.8,0.243511410211808,0.243511410211808,750,1,0,congruent,0.1,4031.83569171732,2151.20328764968
73,104,3,383,-0.5,0.5,0,4,NaN,0.6,4,657,1,1,657,1,0,0.6,0.6,0.0116189225119202,0.0116189225119202,750,0,0,neutral,0.1,3407.23584736852,2120.15064700327
73,104,3,384,-0.5,-0.5,-0.5,2,2,0.6,2,693,1,1,693,0,0,0.6,0.8,0.299485458966953,0.299485458966953,750,1,0,congruent,0,10352.1470248067,2490.06704030705
73,104,3,385,-0.5,0.5,0.5,4,1,0.6,3,687,0,1,NaN,0,0,0.4,0.6,0.251507702891115,NaN,750,0,1,incongruent,0,10535.0899351363,3425.94865607814
73,104,3,386,-0.5,-0.5,0.5,1,2,0.4,1,703,1,1,703,0,0,0.4,0.6,0.379448385760018,0.379448385760018,750,0,0,incongruent,0,2265.05109055627,3343.86915163705
73,104,3,387,0.5,-0.5,0,4,NaN,0.4,4,752,1,0,752,1,0,0.4,NaN,0.771266727046036,0.771266727046036,750,0,0,neutral,1,4522.94379151005,5711.70501116236
73,104,3,388,-0.5,0.5,-0.5,2,2,0.4,2,668,1,1,668,1,0,0.6,0.6,0.0995781419842915,0.0995781419842915,750,1,0,congruent,0.1,4512.66113675955,6773.29226120159
73,104,3,389,0.5,-0.5,-0.5,3,3,0.4,3,775,1,0,775,0,0,0.6,NaN,0.955181458670085,0.955181458670085,750,1,0,congruent,0,6514.40552715429,7309.13794383818
73,104,3,390,-0.5,-0.5,-0.5,4,4,0.4,4,581,1,1,581,0,0,0.6,0.4,-0.596099321115372,-0.596099321115372,750,1,0,congruent,0,5492.42296887643,8603.41182427512
73,104,3,391,0.5,0.5,0,3,NaN,0.4,3,849,1,0,849,0,0,0.6,NaN,1.54690711693876,1.54690711693876,750,0,0,neutral,0,6794.29208248515,5347.67175428006
73,104,3,392,-0.5,-0.5,0.5,1,2,0.4,1,710,1,1,710,1,0,0.6,0.2,0.435422434515164,0.435422434515164,750,0,0,incongruent,0.1,2734.49345602695,2905.46461783564
73,104,3,393,-0.5,0.5,-0.5,3,3,0.4,3,641,1,1,641,1,0,0.4,0.6,-0.116321760356984,-0.116321760356984,750,1,0,congruent,0.1,3320.61652260463,12009.8729241625
73,104,3,394,0.5,0.5,-0.5,1,1,0.6,1,652,1,1,652,1,0,0.4,NaN,-0.0283625408846123,-0.0283625408846123,750,1,0,congruent,1,2297.14244271748,9118.89301408573
73,104,3,395,0.5,0.5,0,3,NaN,0.6,4,644,0,1,NaN,0,0,0.8,NaN,-0.0923328823190641,NaN,750,0,1,neutral,0,9436.19856632155,7299.25153803101
73,104,3,396,0.5,0.5,0.5,4,3,0.6,4,657,1,1,657,1,0,0.8,NaN,0.0116189225119202,0.0116189225119202,750,0,0,incongruent,1,7427.09547713552,2136.1516282917
73,104,3,397,-0.5,-0.5,0,2,NaN,0.6,3,568,0,1,NaN,0,0,1.2,0.4,-0.700051125946357,NaN,750,0,1,neutral,0,3899.35428366184,3866.73880892264
73,104,3,398,0.5,-0.5,-0.5,1,1,0.6,1,737,1,1,737,1,0,1,NaN,0.651322336856439,0.651322336856439,750,1,0,congruent,1,2087.07879866115,4140.83313891103
73,104,3,399,0.5,-0.5,0,2,NaN,0.6,4,738,0,1,NaN,1,0,1.2,NaN,0.659318629535745,NaN,750,0,1,neutral,1,5932.87790656394,18117.2332228752
73,104,3,400,-0.5,-0.5,0.5,1,2,0.6,1,602,1,1,602,1,0,1.2,0.2,-0.428177174849936,-0.428177174849936,750,0,0,incongruent,0.1,9032.81484786346,1187.13606789257
73,104,3,401,0.5,-0.5,0,2,NaN,0.6,4,627,0,1,NaN,0,0,1.4,NaN,-0.228269857867274,NaN,750,0,1,neutral,0,4560.92571582969,2236.87343063815
73,104,3,402,-0.5,0.5,-0.5,3,3,0.6,3,593,1,1,593,1,0,1,0.8,-0.500143808963695,-0.500143808963695,750,1,0,congruent,0.1,4537.14830718113,3879.56966613099
73,104,3,403,-0.5,0.5,0.5,4,1,0.8,4,770,1,0,770,0,0,1.2,0.8,0.915199995273553,0.915199995273553,750,0,0,incongruent,0,14823.8788658168,4636.24980448902
73,104,3,404,0.5,-0.5,-0.5,2,2,0.6,2,677,1,1,677,1,0,0.8,NaN,0.17154477609805,0.17154477609805,750,1,0,congruent,1,1923.09454158446,5980.68513935791
73,104,3,405,-0.5,0.5,0,3,NaN,0.6,3,646,1,1,646,1,0,0.8,0.6,-0.0763402969604512,-0.0763402969604512,750,0,0,neutral,0.1,3803.76241648007,1270.41628772618
73,104,3,406,0.5,-0.5,0.5,1,4,0.6,4,588,0,1,NaN,1,0,0.8,NaN,-0.540125272360227,NaN,750,1,0,incongruent,1,3631.27940161379,3314.4131020559
73,104,3,407,-0.5,-0.5,-0.5,3,3,0.6,3,896,1,0,896,0,0,1.2,0.4,1.92273287286617,1.92273287286617,750,1,0,congruent,0,6131.2550549776,1720.70716823895
73,104,3,408,-0.5,0.5,0,2,NaN,0.6,2,794,1,0,794,0,0,1,0.8,1.10711101957691,1.10711101957691,750,0,0,neutral,0,2634.48974015194,7832.39012348488
73,104,3,409,0.5,0.5,-0.5,1,1,0.6,2,544,0,1,NaN,0,0,1,NaN,-0.891962150249712,NaN,750,0,1,congruent,0,2951.72832682511,12494.490760282
73,104,3,410,0.5,-0.5,-0.5,2,2,0.4,2,590,1,1,590,0,0,0.6,NaN,-0.524132687001614,-0.524132687001614,750,1,0,congruent,0,2306.81232041211,4528.2333991078
73,104,3,411,-0.5,-0.5,0.5,3,1,0.4,3,759,1,0,759,1,0,0.4,0.4,0.827240775801181,0.827240775801181,750,0,0,incongruent,0.1,2689.14710684534,3326.46899902867
73,104,3,412,0.5,0.5,-0.5,4,4,0.4,4,771,1,0,771,0,0,0.2,NaN,0.923196287952859,0.923196287952859,750,1,0,congruent,0,6412.01437087062,4426.60050199332
73,104,3,413,0.5,-0.5,0,3,NaN,0.2,3,584,1,1,584,1,0,0.2,NaN,-0.572110443077453,-0.572110443077453,750,0,0,neutral,1,19967.3601037689,7573.10654131947
73,104,3,414,-0.5,-0.5,-0.5,1,1,0.2,1,517,1,1,517,1,0,0.6,0.6,-1.10786205259099,-1.10786205259099,750,1,0,congruent,0.1,5613.72899180432,3568.77491544484
73,104,3,415,-0.5,-0.5,0.5,2,3,0.2,4,417,0,1,NaN,0,0,0.8,0.6,-1.90749132052164,NaN,750,0,1,incongruent,0,5650.14153753175,4090.74506571936
73,104,3,416,0.5,-0.5,-0.5,4,4,0.2,4,530,1,1,530,1,0,0.8,NaN,-1.00391024776,-1.00391024776,750,1,0,congruent,1,10563.6081320328,10958.8670653195
73,104,3,417,-0.5,0.5,0.5,3,1,0.2,2,796,0,0,NaN,0,0,1,0.6,1.12310360493552,NaN,750,0,1,incongruent,0,13655.5072722633,17367.1552877999
73,104,3,418,-0.5,-0.5,0,1,NaN,0.2,1,598,1,1,598,0,0,1,0.6,-0.460162345567162,-0.460162345567162,750,0,0,neutral,0,1074.98050981295,3086.95224474671
73,104,3,419,-0.5,-0.5,-0.5,2,2,0.2,3,677,0,1,NaN,0,0,0.6,0.4,0.17154477609805,NaN,750,0,1,congruent,0,9905.30351864197,1596.06895032158
73,104,3,420,-0.5,-0.5,0.5,3,1,0.2,2,687,0,1,NaN,0,0,0.4,0.4,0.251507702891115,NaN,750,0,1,incongruent,0,10144.2074254643,11574.8523900576
73,104,3,421,0.5,-0.5,0,2,NaN,0.2,2,921,1,0,921,0,0,0.4,NaN,2.12264018984883,2.12264018984883,750,0,0,neutral,0,8210.59205267368,16376.2656365453
73,104,3,422,-0.5,-0.5,-0.5,1,1,0.2,1,582,1,1,582,1,0,0,0.2,-0.588103028436066,-0.588103028436066,750,1,0,congruent,0.1,1379.95272661357,5475.71495319417
73,104,3,423,0.5,-0.5,0,2,NaN,0.2,4,687,0,1,NaN,0,0,0.2,NaN,0.251507702891115,NaN,750,0,1,neutral,0,6148.95220941634,4595.21627573577
73,104,3,424,-0.5,-0.5,-0.5,3,3,0.2,3,962,1,0,962,0,0,0.2,0.2,2.4504881897004,2.4504881897004,750,1,0,congruent,0,13112.1969244879,4579.15158324209
73,104,3,425,-0.5,-0.5,0.5,1,2,0.2,1,535,1,1,535,1,0,0.2,0.2,-0.963928784363471,-0.963928784363471,750,0,0,incongruent,0.1,7321.06989008708,3394.21523927314
73,104,3,426,-0.5,0.5,-0.5,3,3,0.2,3,764,1,0,764,0,0,0.4,0.4,0.867222239197714,0.867222239197714,750,1,0,congruent,0,7400.94671780035,6064.32004980254
73,104,3,427,0.5,0.5,0.5,1,2,0,1,542,1,1,542,1,0,0.4,NaN,-0.907954735608325,-0.907954735608325,750,0,0,incongruent,1,1064.71426842501,5208.87508543923
73,104,3,428,-0.5,0.5,-0.5,3,3,0.2,3,400,1,1,400,1,0,0.6,0.2,-2.04342829606985,-2.04342829606985,750,1,0,congruent,0.1,6878.42401314828,5809.21363395911
73,104,3,429,-0.5,-0.5,0,4,NaN,0.4,4,606,1,1,606,1,0,0.8,0.4,-0.39619200413271,-0.39619200413271,750,0,0,neutral,0.1,9969.0555671595,7199.85258351813
73,104,3,430,-0.5,-0.5,0.5,3,2,0.4,3,640,1,1,640,0,0,1,0.6,-0.12431805303629,-0.12431805303629,750,0,0,incongruent,0,9295.84414556464,2543.55333510929
73,104,3,431,0.5,-0.5,0.5,1,4,0.4,1,682,1,1,682,1,0,0.8,NaN,0.211526239494582,0.211526239494582,750,0,0,incongruent,1,4783.41651715681,2820.20653016733
73,104,3,432,-0.5,-0.5,0,3,NaN,0.4,3,632,1,1,632,1,0,1.2,0.6,-0.188288394470742,-0.188288394470742,750,0,0,neutral,0.1,7319.22030723024,7750.92462000909
73,104,3,433,0.5,0.5,-0.5,4,4,0.4,4,553,1,1,553,1,0,1,NaN,-0.819995516135954,-0.819995516135954,750,1,0,congruent,1,2861.43118189338,7290.4297854783
73,104,3,434,0.5,0.5,0.5,2,3,0.6,4,601,0,1,NaN,0,0,1.2,NaN,-0.436173467529243,NaN,750,0,1,incongruent,0,11095.5908061601,8918.62425261945
73,104,3,435,0.5,0.5,0,1,NaN,0.6,2,382,0,1,NaN,0,0,1,NaN,-2.18736156429736,NaN,750,0,1,neutral,0,6124.44117257808,1734.95572283084
73,104,3,436,0.5,0.5,0.5,3,4,0.6,3,567,1,1,567,1,0,1,NaN,-0.708047418625663,-0.708047418625663,750,0,0,incongruent,1,5409.1145975237,2401.12763694053
73,104,3,437,-0.5,-0.5,0.5,4,3,0.6,4,633,1,1,633,1,0,1,0.6,-0.180292101791435,-0.180292101791435,750,0,0,incongruent,0.1,5750.19069067362,5968.36213116398
73,104,3,438,-0.5,-0.5,0.5,3,2,0.6,3,551,1,1,551,0,0,1,0.8,-0.835988101494567,-0.835988101494567,750,0,0,incongruent,0,2146.54863286347,6769.58418669075
73,104,3,439,-0.5,0.5,0.5,4,3,0.6,4,490,1,1,490,1,0,0.6,0.4,-1.32376195493226,-1.32376195493226,750,0,0,incongruent,0.1,3662.38726395269,2457.21875136064
73,104,3,440,0.5,0.5,0.5,1,4,0.6,1,646,1,1,646,1,0,0.8,NaN,-0.0763402969604512,-0.0763402969604512,750,0,0,incongruent,1,8302.00909374909,2611.92635491742
73,104,3,442,-0.5,-0.5,0,1,NaN,0.8,1,577,1,1,577,1,0,1.2,0.6,-0.628084491832598,-0.628084491832598,750,0,0,neutral,0.1,3416.47849879219,4653.08040296185
73,104,3,443,-0.5,0.5,-0.5,3,3,0.8,3,858,1,0,858,0,0,1.2,0.4,1.61887375105252,1.61887375105252,750,1,0,congruent,0,20601.4594905594,7334.55322577812
73,104,3,444,0.5,-0.5,0.5,1,4,0.8,4,517,0,1,NaN,1,0,1.2,NaN,-1.10786205259099,NaN,750,1,0,incongruent,1,17814.3618662281,15741.4839934401
73,104,3,445,-0.5,0.5,0,2,NaN,0.8,2,610,1,1,610,1,0,1.4,0.4,-0.364206833415484,-0.364206833415484,750,0,0,neutral,0.1,4545.87464948627,3096.42215312887
73,104,3,446,0.5,0.5,-0.5,3,3,0.8,3,882,1,0,882,0,0,1.2,NaN,1.81078477535588,1.81078477535588,750,1,0,congruent,0,8498.44081247547,7965.44293631065
73,104,3,447,-0.5,0.5,-0.5,1,1,0.6,1,646,1,1,646,1,0,0.8,0.6,-0.0763402969604512,-0.0763402969604512,750,1,0,congruent,0.1,3886.14707924257,4788.92905625099
73,104,3,448,0.5,-0.5,0,2,NaN,0.6,2,611,1,1,611,1,0,0.8,NaN,-0.356210540736178,-0.356210540736178,750,0,0,neutral,1,2185.28774267046,6141.86577730916
73,104,3,450,-0.5,0.5,0,2,NaN,0.6,2,559,1,1,559,1,0,0.8,0.8,-0.772017760060115,-0.772017760060115,750,0,0,neutral,0.1,14277.653579443,5348.30616621699
73,104,4,451,0.5,-0.5,-0.5,4,4,0.6,4,626,1,1,626,0,0,0.8,NaN,-0.236266150546581,-0.236266150546581,750,1,0,congruent,0,2392.59418773234,2540.04051108903
73,104,4,452,0.5,0.5,0,2,NaN,0.6,2,750,1,1,750,0,0,0.8,NaN,0.755274141687423,0.755274141687423,750,0,0,neutral,0,4621.47998762105,10222.3839664851
73,104,4,453,0.5,-0.5,0.5,1,4,0.6,1,630,1,1,630,0,0,0.6,NaN,-0.204280979829355,-0.204280979829355,750,0,0,incongruent,0,12248.6276430148,5996.50688979679
73,104,4,454,-0.5,0.5,-0.5,2,2,0.6,2,541,1,1,541,1,0,0.2,0.8,-0.915951028287632,-0.915951028287632,750,1,0,congruent,0.1,2801.22175153227,742.969197638535
73,104,4,456,0.5,-0.5,-0.5,1,1,0.6,1,524,1,1,524,1,0,0.2,NaN,-1.05188800383584,-1.05188800383584,750,1,0,congruent,1,2756.79889347656,2316.03933176617
73,104,4,458,-0.5,-0.5,0.5,4,3,0.6,4,736,1,1,736,0,0,0.6,0.6,0.643326044177132,0.643326044177132,750,0,0,incongruent,0,2497.49163819258,7924.78346915994
73,104,4,459,0.5,-0.5,0,1,NaN,0.6,2,538,0,1,NaN,1,0,0.6,NaN,-0.939939906325551,NaN,750,0,1,neutral,1,7016.0986052745,10384.040652557
73,104,4,460,0.5,0.5,-0.5,4,4,0.6,4,584,1,1,584,1,0,0.8,NaN,-0.572110443077453,-0.572110443077453,750,1,0,congruent,1,3413.88504545035,2687.55267274006
73,104,4,462,-0.5,0.5,-0.5,4,4,0.4,4,644,1,1,644,1,0,0.8,0.6,-0.0923328823190641,-0.0923328823190641,750,1,0,congruent,0.1,1805.02092038847,3953.33018020896
73,104,4,463,0.5,-0.5,0,3,NaN,0.6,1,605,0,1,NaN,1,0,1,NaN,-0.404188296812017,NaN,750,0,1,neutral,1,4495.55740118481,4775.74745943439
73,104,4,464,-0.5,-0.5,-0.5,2,2,0.6,3,322,0,1,NaN,0,0,1.4,0.6,-2.66713912505575,NaN,750,0,1,congruent,0,14025.2923481493,6871.72768375306
73,104,4,465,0.5,-0.5,0,3,NaN,0.6,2,391,0,1,NaN,0,0,1,NaN,-2.1153949301836,NaN,750,0,1,neutral,0,7220.69033688833,3389.45809383789
73,104,4,466,0.5,-0.5,-0.5,1,1,0.6,1,557,1,1,557,1,0,0.6,NaN,-0.788010345418728,-0.788010345418728,750,1,0,congruent,1,4020.23846956515,2601.07336247343
73,104,4,467,-0.5,-0.5,0,3,NaN,0.6,3,748,1,1,748,1,0,1,0.4,0.73928155632881,0.73928155632881,750,0,0,neutral,0.1,3554.49730077791,3098.1784749461
73,104,4,468,0.5,-0.5,-0.5,2,2,0.6,2,731,1,1,731,1,0,1,NaN,0.6033445807806,0.6033445807806,750,1,0,congruent,1,2048.1392088747,3197.1526215373
73,104,4,469,-0.5,-0.5,0.5,3,1,0.6,2,627,0,1,NaN,1,0,1,0.4,-0.228269857867274,NaN,750,0,1,incongruent,0.1,8396.99184298121,4241.33536368766
73,104,4,470,-0.5,-0.5,0.5,4,3,0.6,4,540,1,1,540,1,0,1.2,0.6,-0.923947320966938,-0.923947320966938,750,0,0,incongruent,0.1,5750.92679667592,4685.29619330579
73,104,4,471,0.5,-0.5,0.5,3,1,0.6,3,907,1,0,907,0,0,1.4,NaN,2.01069209233854,2.01069209233854,750,0,0,incongruent,0,5152.59763531658,2712.37883596002
73,104,4,472,-0.5,0.5,0,1,NaN,0.6,1,780,1,0,780,0,0,1,0.6,0.995162922066617,0.995162922066617,750,0,0,neutral,0,1847.21562435411,12143.8151652789
73,104,4,473,0.5,0.5,0.5,4,2,0.4,4,529,1,1,529,1,0,0.8,NaN,-1.01190654043931,-1.01190654043931,750,0,0,incongruent,1,6404.85412988463,6192.23800033491
73,104,4,474,0.5,0.5,-0.5,1,1,0.6,1,822,1,0,822,0,0,0.8,NaN,1.33100721459749,1.33100721459749,750,1,0,congruent,0,2752.96985084081,14437.4837859917
73,104,4,475,0.5,-0.5,-0.5,2,2,0.4,3,552,0,1,NaN,0,0,0.6,NaN,-0.82799180881526,NaN,750,0,1,congruent,0,14022.902321671,4748.72862990307
73,104,4,477,0.5,0.5,-0.5,3,3,0.4,3,524,1,1,524,1,0,0.4,NaN,-1.05188800383584,-1.05188800383584,750,1,0,congruent,1,13688.0511304501,3182.63701751195
73,104,4,478,0.5,0.5,-0.5,1,1,0.4,1,664,1,1,664,1,0,0.8,NaN,0.0675929712670655,0.0675929712670655,750,1,0,congruent,1,6292.49632790192,6306.94867957032
73,104,4,479,0.5,0.5,0,2,NaN,0.6,3,658,0,1,NaN,0,0,0.8,NaN,0.0196152151912266,NaN,750,0,1,neutral,0,9988.0167353264,7308.26541586147
73,104,4,480,0.5,-0.5,-0.5,1,1,0.4,1,718,1,1,718,0,0,0.8,NaN,0.499392775949616,0.499392775949616,750,1,0,congruent,0,5004.85431976837,4719.43660857184
73,104,4,481,0.5,0.5,0.5,4,3,0.4,4,549,1,1,549,1,0,0.8,NaN,-0.85198068685318,-0.85198068685318,750,0,0,incongruent,1,4903.24594648031,4760.30673300922
73,104,4,482,0.5,0.5,0,3,NaN,0.6,2,654,0,1,NaN,0,0,1.2,NaN,-0.0123699555259993,NaN,750,0,1,neutral,0,9172.93062826324,9846.11442756413
73,104,4,483,-0.5,-0.5,-0.5,1,1,0.6,1,710,1,1,710,1,0,0.8,0.6,0.435422434515164,0.435422434515164,750,1,0,congruent,0.1,3213.17747696294,3502.80583699198
73,104,4,484,0.5,-0.5,0,4,NaN,0.6,4,478,1,1,478,1,0,0.6,NaN,-1.41971746708394,-1.41971746708394,750,0,0,neutral,1,5597.64196704518,8794.8513562458
73,104,4,485,-0.5,-0.5,-0.5,1,1,0.6,1,630,1,1,630,0,0,1,0.8,-0.204280979829355,-0.204280979829355,750,1,0,congruent,0,5489.30598114586,10982.6890187099
73,104,4,486,0.5,0.5,0.5,2,3,0.6,3,848,0,0,NaN,0,0,1,NaN,1.53891082425946,NaN,750,1,0,incongruent,0,2540.60107660753,19381.9788405118
73,104,4,487,-0.5,-0.5,0,1,NaN,0.4,2,297,0,1,NaN,0,0,0.6,0.8,-2.86704644203841,NaN,750,0,1,neutral,0,4759.3991049821,7696.39564363864
73,104,4,488,-0.5,0.5,-0.5,2,2,0.4,3,770,0,0,NaN,0,0,0.6,0.2,0.915199995273553,NaN,750,0,1,congruent,0,1623.64152067945,4309.82945120475
73,104,4,489,-0.5,-0.5,-0.5,3,3,0.2,3,552,1,1,552,0,0,0.4,0.6,-0.82799180881526,-0.82799180881526,750,1,0,congruent,0,11832.1228845013,16235.733194091
73,104,4,490,0.5,-0.5,0.5,1,2,0.2,1,963,1,0,963,0,0,0,NaN,2.4584844823797,2.4584844823797,750,0,0,incongruent,0,4785.73728774329,3019.5467100045
73,104,4,492,-0.5,0.5,0.5,1,3,0.2,3,628,0,1,NaN,0,0,0,0.2,-0.220273565187968,NaN,750,1,0,incongruent,0,6280.61749014541,6337.82047313408
73,104,4,493,0.5,0.5,0.5,4,1,0,4,703,1,1,703,1,0,0,NaN,0.379448385760018,0.379448385760018,750,0,0,incongruent,1,2327.00307625832,2192.90502942213
73,104,4,494,-0.5,0.5,0,1,NaN,0.2,4,794,0,0,NaN,0,0,0.4,0,1.10711101957691,NaN,750,0,1,neutral,0,2683.5964640703,3817.55365724275
73,104,4,495,-0.5,0.5,0.5,2,1,0.2,3,780,0,0,NaN,0,0,0.4,0,0.995162922066617,NaN,750,0,1,incongruent,0,4393.07327037102,2629.11995414249
73,104,4,496,-0.5,-0.5,0,4,NaN,0.2,4,548,1,1,548,0,0,0.4,0.4,-0.859976979532486,-0.859976979532486,750,0,0,neutral,0,7458.38065484717,2008.69412517016
73,104,4,497,0.5,0.5,-0.5,1,1,0.2,1,631,1,1,631,1,0,0.4,NaN,-0.196284687150048,-0.196284687150048,750,1,0,congruent,1,12620.1601758828,11938.1009120345
73,104,4,498,-0.5,-0.5,0.5,4,2,0.4,4,525,1,1,525,0,0,0.8,0.2,-1.04389171115654,-1.04389171115654,750,0,0,incongruent,0,2444.54251157623,4764.3609868735
73,104,4,500,0.5,-0.5,0.5,4,1,0.4,4,860,1,0,860,1,0,0.4,NaN,1.63486633641114,1.63486633641114,750,0,0,incongruent,1,20083.5498510264,7072.01165842082
73,104,4,501,-0.5,-0.5,-0.5,3,3,0.4,3,707,1,1,707,0,0,0.8,0,0.411433556477244,0.411433556477244,750,1,0,congruent,0,5391.20663510777,11104.6219668934
73,104,4,502,0.5,0.5,0,4,NaN,0.4,4,625,1,1,625,1,0,0.8,NaN,-0.244262443225887,-0.244262443225887,750,0,0,neutral,1,7077.18565628101,3783.3343020566
73,104,4,503,0.5,-0.5,-0.5,2,2,0.6,3,695,0,1,NaN,0,0,0.8,NaN,0.315478044325566,NaN,750,0,1,congruent,0,9475.17095861714,8681.12451168781
73,104,4,504,0.5,-0.5,0.5,3,1,0.6,3,708,1,1,708,1,0,0.8,NaN,0.419429849156551,0.419429849156551,750,0,0,incongruent,1,15412.8508162508,6975.47609919487
73,104,4,505,0.5,-0.5,0,1,NaN,0.6,1,796,1,0,796,1,0,1.2,NaN,1.12310360493552,1.12310360493552,750,0,0,neutral,1,6387.20431371147,7129.25702936015
73,104,4,506,-0.5,0.5,-0.5,4,4,0.6,4,589,1,1,589,1,0,1.2,0,-0.532128979680921,-0.532128979680921,750,1,0,congruent,0.1,6858.21067450944,10131.5489234112
73,104,4,507,0.5,0.5,0,1,NaN,0.6,1,909,1,0,909,0,0,1.4,NaN,2.02668467769715,2.02668467769715,750,0,0,neutral,0,2622.6882200854,2399.61971629145
73,104,4,508,0.5,-0.5,0.5,4,3,0.6,4,658,1,1,658,1,0,1,NaN,0.0196152151912266,0.0196152151912266,750,0,0,incongruent,1,1984.62734606145,3444.02282338592
73,104,4,509,0.5,-0.5,0,1,NaN,0.6,1,576,1,1,576,1,0,1.4,NaN,-0.636080784511905,-0.636080784511905,750,0,0,neutral,1,3868.53522761353,4613.49099353787
73,104,4,510,0.5,-0.5,0.5,4,2,0.6,4,753,1,0,753,1,0,1.4,NaN,0.779263019725342,0.779263019725342,750,0,0,incongruent,1,8369.21296467676,17613.1466963483
73,104,4,511,-0.5,0.5,0,2,NaN,0.6,4,697,0,1,NaN,0,0,1.4,0.2,0.331470629684179,NaN,750,0,1,neutral,0,2870.43843528385,6989.11549159119
73,104,4,512,-0.5,0.5,-0.5,4,4,0.6,4,467,1,1,467,1,0,1.2,0.2,-1.50767668655631,-1.50767668655631,750,1,0,congruent,0.1,3968.04957030246,5917.45243799827
73,104,4,513,0.5,-0.5,0.5,2,1,0.6,2,881,1,0,881,1,0,1.4,NaN,1.80278848267657,1.80278848267657,750,0,0,incongruent,1,5813.42609664355,7000.79601574605
73,104,4,514,0.5,-0.5,-0.5,4,4,0.6,4,608,1,1,608,1,0,1.4,NaN,-0.380199418774097,-0.380199418774097,750,1,0,congruent,1,5782.62166051396,7492.07825804355
73,104,4,515,0.5,0.5,0.5,2,1,0.6,2,814,1,0,814,0,0,1.4,NaN,1.26703687316304,1.26703687316304,750,0,0,incongruent,0,13916.7053731972,2884.14250297122
73,104,4,516,0.5,-0.5,-0.5,4,4,0.4,4,578,1,1,578,0,0,1,NaN,-0.620088199153292,-0.620088199153292,750,1,0,congruent,0,7135.76425366869,4614.04655173149
73,104,4,517,0.5,0.5,0.5,3,2,0.4,3,721,1,1,721,1,0,1,NaN,0.523381653987535,0.523381653987535,750,0,0,incongruent,1,4517.39507380346,2821.35742620918
73,104,4,519,0.5,0.5,0,3,NaN,0.4,2,671,0,1,NaN,0,0,1,NaN,0.123567020022211,NaN,750,0,1,neutral,0,472.692951237225,6598.11846120178
73,104,4,521,-0.5,0.5,-0.5,2,2,0.4,3,765,0,0,NaN,0,0,0.6,0.4,0.87521853187702,NaN,750,0,1,congruent,0,2023.4620667118,4758.91085524028
73,104,4,522,-0.5,0.5,0.5,3,1,0.4,2,684,0,1,NaN,0,0,0.6,0.4,0.227518824853195,NaN,750,0,1,incongruent,0,5252.13915879813,1086.52193464621
73,104,4,523,-0.5,0.5,-0.5,2,2,0.2,2,605,1,1,605,1,0,0.2,0.4,-0.404188296812017,-0.404188296812017,750,1,0,congruent,0.1,1803.58438642024,4946.68550668226
73,104,4,524,0.5,-0.5,0,1,NaN,0.4,1,698,1,1,698,0,0,0.2,NaN,0.339466922363486,0.339466922363486,750,0,0,neutral,0,4845.50644116465,12325.8825052388
73,104,4,525,0.5,-0.5,-0.5,2,2,0.4,2,619,1,1,619,0,0,0.2,NaN,-0.292240199301726,-0.292240199301726,750,1,0,congruent,0,6695.32322311528,1499.94173335526
73,104,4,526,0.5,-0.5,-0.5,4,4,0.4,4,547,1,1,547,0,0,0.2,NaN,-0.867973272211793,-0.867973272211793,750,1,0,congruent,0,4330.62740303428,1360.30157899155
73,104,4,527,0.5,-0.5,0.5,2,1,0.4,2,914,1,0,914,1,0,0.2,NaN,2.06666614109369,2.06666614109369,750,0,0,incongruent,1,990.714548381286,1341.54509025734
73,104,4,528,0.5,-0.5,-0.5,4,4,0.4,4,607,1,1,607,0,0,0.6,NaN,-0.388195711453404,-0.388195711453404,750,1,0,congruent,0,4808.46487586609,5717.22650000012
73,104,4,529,-0.5,-0.5,0.5,3,2,0.4,2,546,0,1,NaN,1,0,0.4,0.2,-0.875969564891099,NaN,750,1,0,incongruent,0.1,2571.14629118807,5305.79612152336
73,104,4,530,0.5,-0.5,-0.5,4,4,0.4,4,487,1,1,487,0,0,0.6,NaN,-1.34775083297018,-1.34775083297018,750,1,0,congruent,0,7867.20834213825,1891.27340103835
73,104,4,531,0.5,0.5,-0.5,2,2,0.4,2,502,1,1,502,1,0,0.6,NaN,-1.22780644278058,-1.22780644278058,750,1,0,congruent,1,4336.28391357821,7251.32372201203
73,104,4,532,0.5,0.5,0,4,NaN,0.4,4,587,1,1,587,1,0,1,NaN,-0.548121565039534,-0.548121565039534,750,0,0,neutral,1,3440.84918212515,2081.63118296538
73,104,4,533,-0.5,-0.5,0.5,1,2,0.6,1,739,1,1,739,1,0,1,0.4,0.667314922215052,0.667314922215052,750,0,0,incongruent,0.1,10304.5619054143,5271.80250280032
73,104,4,534,-0.5,0.5,-0.5,4,4,0.6,4,489,1,1,489,1,0,1.2,0.4,-1.33175824761157,-1.33175824761157,750,1,0,congruent,0.1,772.295936466881,5521.47221325212
73,104,4,535,0.5,-0.5,0,3,NaN,0.8,2,608,0,1,NaN,1,0,1.2,NaN,-0.380199418774097,NaN,750,0,1,neutral,1,4814.91014022592,5773.20989615045
73,104,4,536,0.5,0.5,-0.5,4,4,0.8,4,485,1,1,485,1,0,1.6,NaN,-1.36374341832879,-1.36374341832879,750,1,0,congruent,1,9846.19641556671,10075.8709431037
73,104,4,537,0.5,-0.5,-0.5,2,2,1,3,675,0,1,NaN,1,0,1.6,NaN,0.155552190739437,NaN,750,0,1,congruent,1,4911.01542954243,2902.72454567044
73,104,4,538,0.5,-0.5,0,3,NaN,1,3,704,1,1,704,1,0,1.6,NaN,0.387444678439325,0.387444678439325,750,0,0,neutral,1,7620.61209362231,10480.4205400579
73,104,4,539,0.5,-0.5,-0.5,2,2,1,2,900,1,0,900,1,0,1.8,NaN,1.9547180435834,1.9547180435834,750,1,0,congruent,1,3701.07129244626,2936.23276366799
73,104,4,540,0.5,-0.5,-0.5,3,3,1,3,675,1,1,675,1,0,2,NaN,0.155552190739437,0.155552190739437,750,1,0,congruent,1,6210.46418397556,2689.56765512276
73,104,4,541,0.5,-0.5,-0.5,1,1,1,1,758,1,0,758,1,0,2,NaN,0.819244483121875,0.819244483121875,750,1,0,congruent,1,3024.54412816792,9926.55761866605
73,104,4,542,-0.5,0.5,-0.5,2,2,1,3,687,0,1,NaN,0,0,2,0.6,0.251507702891115,NaN,750,0,1,congruent,0,1439.6504212163,5732.46396133943
73,104,4,543,0.5,-0.5,0.5,4,1,0.8,4,888,1,0,888,1,0,1.6,NaN,1.85876253143172,1.85876253143172,750,0,0,incongruent,1,1296.43329510054,5910.78835830199
73,104,4,544,-0.5,0.5,0.5,1,2,0.8,1,671,1,1,671,1,0,1.6,0.4,0.123567020022211,0.123567020022211,750,0,0,incongruent,0.1,4372.80858897144,8432.65094283507
73,104,4,545,0.5,-0.5,0,4,NaN,0.8,4,664,1,1,664,1,0,1.4,NaN,0.0675929712670655,0.0675929712670655,750,0,0,neutral,1,7059.60695851212,2798.05936690909
73,104,4,546,0.5,-0.5,-0.5,3,3,0.8,3,731,1,1,731,1,0,1.4,NaN,0.6033445807806,0.6033445807806,750,1,0,congruent,1,4536.30674739979,11824.4388434275
73,104,4,547,0.5,-0.5,-0.5,2,2,0.8,2,779,1,0,779,1,0,1.4,NaN,0.987166629387311,0.987166629387311,750,1,0,congruent,1,2759.33257615214,4574.61171446802
73,104,4,548,0.5,0.5,0.5,3,1,0.8,1,901,0,0,NaN,0,0,1.8,NaN,1.9627143362627,NaN,750,1,0,incongruent,0,1092.37483016429,1411.33798673877
73,104,4,549,0.5,-0.5,-0.5,2,2,0.6,2,954,1,0,954,1,0,1.4,NaN,2.38651784826595,2.38651784826595,750,1,0,congruent,1,2553.43089157263,1883.94592123593
73,104,4,550,0.5,-0.5,0,1,NaN,0.6,1,623,1,1,623,0,0,1.6,NaN,-0.2602550285845,-0.2602550285845,750,0,0,neutral,0,3794.41147674876,1391.0401008124
73,104,4,551,0.5,0.5,-0.5,2,2,0.6,2,618,1,1,618,1,0,1.2,NaN,-0.300236491981033,-0.300236491981033,750,1,0,congruent,1,7610.29408508991,5555.09682706762
73,104,4,552,-0.5,-0.5,0.5,1,3,0.6,1,969,1,0,969,0,0,1.2,0.6,2.50646223845554,2.50646223845554,750,0,0,incongruent,0,18425.8975804224,2481.064920024
73,104,4,553,-0.5,-0.5,-0.5,4,4,0.6,4,529,1,1,529,1,0,0.8,0.6,-1.01190654043931,-1.01190654043931,750,1,0,congruent,0.1,7595.67326625917,1072.63087765227
73,104,4,555,-0.5,-0.5,0.5,1,3,0.4,1,784,1,0,784,1,0,0.6,0.8,1.02714809278384,1.02714809278384,750,0,0,incongruent,0.1,6307.96408111255,6699.79135649275
73,104,4,556,0.5,-0.5,0,2,NaN,0.4,3,680,0,1,NaN,1,0,0.8,NaN,0.195533654135969,NaN,750,0,1,neutral,1,4417.96017755475,1899.4944055449
73,104,4,557,-0.5,-0.5,-0.5,3,3,0.4,3,606,1,1,606,0,0,0.8,0.8,-0.39619200413271,-0.39619200413271,750,1,0,congruent,0,18950.1652157273,11629.7783778437
73,104,4,558,-0.5,-0.5,-0.5,1,1,0.4,1,720,1,1,720,0,0,0.8,0.6,0.515385361308229,0.515385361308229,750,1,0,congruent,0,24443.4877327069,9799.63995236623
73,104,4,559,-0.5,-0.5,0.5,2,3,0.4,3,535,0,1,NaN,1,0,0.6,0.4,-0.963928784363471,NaN,750,1,0,incongruent,0.1,6878.8524303479,1890.56446346049
73,104,4,560,-0.5,-0.5,0,3,NaN,0.4,2,785,0,0,NaN,0,0,0.8,0.6,1.03514438546315,NaN,750,0,1,neutral,0,4766.63086877372,10779.4058298908
73,104,4,561,0.5,0.5,0.5,1,4,0.4,4,617,0,1,NaN,0,0,0.6,NaN,-0.308232784660339,NaN,750,1,0,incongruent,0,6447.25614838883,4427.83392287414
73,104,4,562,0.5,-0.5,0,2,NaN,0.4,2,710,1,1,710,0,0,0.2,NaN,0.435422434515164,0.435422434515164,750,0,0,neutral,0,3199.28772856047,4265.28556857678
73,104,4,563,-0.5,0.5,-0.5,3,3,0.4,3,687,1,1,687,1,0,0.2,0.6,0.251507702891115,0.251507702891115,750,1,0,congruent,0.1,8643.32708351222,5044.09762795014
73,104,4,564,0.5,-0.5,0.5,1,4,0.4,4,514,0,1,NaN,0,0,0.4,NaN,-1.13185093062891,NaN,750,1,0,incongruent,0,9466.60220277545,4610.8483166941
73,104,4,566,-0.5,-0.5,-0.5,4,4,0.6,4,721,1,1,721,1,0,0.4,0.4,0.523381653987535,0.523381653987535,750,1,0,congruent,0.1,14542.5951966565,3499.02840032481
73,104,4,574,0.5,-0.5,-0.5,4,4,0.6,4,558,1,1,558,1,0,1.4,NaN,-0.780014052739422,-0.780014052739422,750,1,0,congruent,1,4151.59612208107,3186.73527058374
73,104,4,576,-0.5,0.5,-0.5,4,4,0.4,4,574,1,1,574,1,0,1.2,0.6,-0.652073369870518,-0.652073369870518,750,1,0,congruent,0.1,2338.17885524685,3780.28975943934
73,104,4,579,-0.5,0.5,0,2,NaN,0.6,2,636,1,1,636,1,0,0.8,0.8,-0.156303223753516,-0.156303223753516,750,0,0,neutral,0.1,1365.24222896591,4744.84110593565
73,104,4,580,-0.5,-0.5,-0.5,1,1,0.8,1,631,1,1,631,1,0,0.6,0.6,-0.196284687150048,-0.196284687150048,750,1,0,congruent,0.1,6678.74948507276,2557.48625652878
73,104,4,581,0.5,0.5,0.5,3,4,0.8,4,584,0,1,NaN,0,0,0.8,NaN,-0.572110443077453,NaN,750,1,0,incongruent,0,2877.57217672243,12764.5839229231
73,104,4,582,-0.5,0.5,0.5,2,3,0.6,2,714,1,1,714,1,0,0.6,0.8,0.46740760523239,0.46740760523239,750,0,0,incongruent,0.1,5213.5650263818,5871.21721418984
73,104,4,583,-0.5,-0.5,-0.5,1,1,0.6,1,919,1,0,919,1,0,0.6,0.6,2.10664760449022,2.10664760449022,750,1,0,congruent,0.1,33826.3490845493,3402.074634967
73,104,4,584,-0.5,-0.5,0.5,4,2,0.6,4,742,1,1,742,1,0,0.8,0.6,0.691303800252971,0.691303800252971,750,0,0,incongruent,0.1,4183.35821162359,8919.65821847104
73,104,4,585,-0.5,0.5,0,3,NaN,0.6,2,728,0,1,NaN,0,0,0.8,1,0.57935570274268,NaN,750,0,1,neutral,0,7236.600086851,5790.44257288455
73,104,4,586,-0.5,0.5,0.5,1,3,0.6,2,766,0,0,NaN,0,0,0.6,0.8,0.883214824556327,NaN,750,0,1,incongruent,0,10924.4615426343,22476.6196026212
73,104,4,587,0.5,-0.5,0.5,3,1,0.4,2,714,0,1,NaN,0,0,0.6,NaN,0.46740760523239,NaN,750,0,1,incongruent,0,2374.8891747999,24150.7686999654
73,104,4,589,-0.5,-0.5,-0.5,3,3,0.4,2,718,0,1,NaN,1,0,0.2,0.6,0.499392775949616,NaN,750,0,1,congruent,0.1,4582.288859872,3629.44102116706
73,104,4,590,-0.5,0.5,0.5,1,4,0.4,4,648,0,1,NaN,0,0,0.2,0.6,-0.0603477116018382,NaN,750,1,0,incongruent,0,3081.49307482634,6153.51397874983
73,104,4,592,0.5,-0.5,-0.5,3,3,0.2,2,791,0,0,NaN,0,0,0.2,NaN,1.08312214153899,NaN,750,0,1,congruent,0,3231.59254939594,1470.50773298435
73,104,4,593,0.5,-0.5,-0.5,4,4,0.2,4,599,1,1,599,0,0,0.2,NaN,-0.452166052887856,-0.452166052887856,750,1,0,congruent,0,8330.92464174191,7089.64835124099
73,104,4,594,-0.5,-0.5,-0.5,1,1,0.2,1,602,1,1,602,0,0,0.2,0.8,-0.428177174849936,-0.428177174849936,750,1,0,congruent,0,4164.01327749091,12277.3078261311
73,104,4,595,0.5,-0.5,0,4,NaN,0.2,3,780,0,0,NaN,0,0,0,NaN,0.995162922066617,NaN,750,0,1,neutral,0,7750.18791492831,9284.49192188237
73,104,4,597,-0.5,0.5,0,4,NaN,0.2,4,734,1,1,734,1,0,0,0.4,0.627333458818519,0.627333458818519,750,0,0,neutral,0.1,11121.1723710971,4061.86760783504
73,104,4,598,0.5,0.5,-0.5,3,3,0.4,4,461,0,1,NaN,0,0,0.2,NaN,-1.55565444263215,NaN,750,0,1,congruent,0,6525.93562178567,4420.50556123825
73,104,4,599,0.5,0.5,-0.5,1,1,0.2,1,650,1,1,650,1,0,0.2,NaN,-0.0443551262432252,-0.0443551262432252,750,1,0,congruent,1,4997.82431359406,11845.4343392922
73,104,4,600,0.5,-0.5,0,3,NaN,0.4,2,606,0,1,NaN,0,0,0.6,NaN,-0.39619200413271,NaN,750,0,1,neutral,0,8756.98484259787,8257.70939462141
